sensor_ID	0006660160E3
Accel_X	Accel_Y	Accel_Z	Roll	Pitch	Yaw	Mag_X	Mag_Y	Mag_Z	Count	SysTime
-0.090820	-0.518555	0.307617	-0.365598	-0.703074	-0.581208	0.585938	1.054688	-0.117188	0	17_11_16_6161000
-0.067383	-0.521484	0.301758	-0.374973	-0.703074	-0.581208	0.597656	0.914063	-0.175781	1	17_11_16_6322290
-0.079102	-0.512695	0.310547	-0.374973	-0.703074	-0.581208	0.609375	0.878906	-0.187500	2	17_11_16_6483580
-0.082031	-0.521484	0.310547	-0.384347	-0.703074	-0.571833	0.574219	0.890625	-0.164063	3	17_11_16_6644870
-0.084961	-0.515625	0.304688	-0.374973	-0.703074	-0.571833	0.609375	0.902344	-0.164063	4	17_11_16_6806160
-0.076172	-0.515625	0.307617	-0.393721	-0.712448	-0.581208	0.609375	0.878906	-0.175781	5	17_11_16_6967450
-0.093750	-0.512695	0.313477	-0.384347	-0.731197	-0.581208	0.585938	0.960938	-0.175781	6	17_11_16_7128740
-0.093750	-0.509766	0.301758	-0.374973	-0.731197	-0.571833	0.597656	0.937500	-0.175781	7	17_11_16_7290030
-0.090820	-0.498047	0.310547	-0.374973	-0.740571	-0.581208	0.644531	0.972656	0.082031	8	17_11_16_7451320
-0.067383	-0.509766	0.310547	-0.374973	-0.740571	-0.581208	0.574219	0.902344	-0.199219	9	17_11_16_7612610
-0.064453	-0.498047	0.319336	-0.365598	-0.731197	-0.581208	0.597656	0.914063	-0.175781	10	17_11_16_7773900
-0.067383	-0.506836	0.301758	-0.356224	-0.712448	-0.590582	0.585938	0.925781	-0.175781	11	17_11_16_7935190
-0.064453	-0.509766	0.298828	-0.356224	-0.721823	-0.599956	0.597656	0.937500	-0.187500	12	17_11_16_8096480
-0.064453	-0.509766	0.304688	-0.365598	-0.712448	-0.599956	0.609375	0.890625	-0.199219	13	17_11_16_8257770
-0.064453	-0.515625	0.310547	-0.356224	-0.703074	-0.609331	0.632813	0.902344	-0.187500	14	17_11_16_8419060
-0.073242	-0.506836	0.301758	-0.356224	-0.693700	-0.609331	0.597656	0.914063	-0.187500	15	17_11_16_8580350
-0.070313	-0.521484	0.301758	-0.356224	-0.693700	-0.609331	0.597656	0.972656	-0.199219	16	17_11_16_8741640
-0.082031	-0.524414	0.322266	-0.356224	-0.684325	-0.618705	0.574219	0.972656	-0.175781	17	17_11_16_8902930
-0.084961	-0.533203	0.301758	-0.356224	-0.674951	-0.618705	0.621094	0.949219	-0.187500	18	17_11_16_9064220
-0.064453	-0.521484	0.322266	-0.365598	-0.674951	-0.618705	0.609375	0.937500	-0.199219	19	17_11_16_9225510
-0.093750	-0.521484	0.307617	-0.365598	-0.665577	-0.628079	0.621094	0.960938	-0.175781	20	17_11_16_9386800
-0.084961	-0.512695	0.301758	-0.365598	-0.665577	-0.618705	0.585938	0.902344	-0.164063	21	17_11_16_9548090
-0.084961	-0.500977	0.301758	-0.374973	-0.674951	-0.628079	0.890625	0.820313	-0.082031	22	17_11_16_9709380
-0.061523	-0.498047	0.301758	-0.374973	-0.665577	-0.628079	0.597656	0.960938	-0.187500	23	17_11_16_9870670
-0.052734	-0.503906	0.313477	-0.374973	-0.665577	-0.637454	0.585938	0.925781	-0.187500	24	17_11_17_0031960
-0.064453	-0.515625	0.328125	-0.374973	-0.646828	-0.637454	0.597656	0.914063	-0.187500	25	17_11_17_0193250
-0.082031	-0.506836	0.307617	-0.374973	-0.656202	-0.628079	0.597656	0.878906	-0.199219	26	17_11_17_0354540
-0.093750	-0.512695	0.301758	-0.365598	-0.665577	-0.618705	0.808594	0.832031	0.246094	27	17_11_17_0515830
-0.082031	-0.509766	0.292969	-0.356224	-0.693700	-0.609331	0.750000	0.843750	0.292969	28	17_11_17_0677120
-0.064453	-0.539063	0.295898	-0.365598	-0.693700	-0.599956	0.621094	0.902344	-0.187500	29	17_11_17_0838410
-0.052734	-0.515625	0.307617	-0.356224	-0.693700	-0.590582	0.585938	0.984375	-0.164063	30	17_11_17_0999700
-0.067383	-0.527344	0.301758	-0.356224	-0.684325	-0.590582	0.585938	0.914063	-0.199219	31	17_11_17_1160990
-0.084961	-0.509766	0.307617	-0.356224	-0.674951	-0.581208	0.597656	0.890625	-0.222656	32	17_11_17_1322280
-0.067383	-0.503906	0.295898	-0.356224	-0.665577	-0.581208	0.609375	0.843750	-0.199219	33	17_11_17_1483570
-0.058594	-0.524414	0.295898	-0.356224	-0.665577	-0.581208	0.621094	0.925781	-0.164063	34	17_11_17_1644860
-0.076172	-0.524414	0.298828	-0.356224	-0.656202	-0.590582	1.101563	0.914063	0.035156	35	17_11_17_1806150
-0.082031	-0.541992	0.298828	-0.356224	-0.656202	-0.590582	0.597656	0.996094	-0.175781	36	17_11_17_1967440
-0.090820	-0.515625	0.307617	-0.365598	-0.646828	-0.590582	0.726563	0.890625	-0.152344	37	17_11_17_2128730
-0.093750	-0.533203	0.304688	-0.365598	-0.656202	-0.590582	0.632813	0.843750	0.269531	38	17_11_17_2290020
-0.093750	-0.509766	0.313477	-0.374973	-0.656202	-0.599956	0.714844	0.914063	-0.152344	39	17_11_17_2451310
-0.114258	-0.521484	0.313477	-0.374973	-0.674951	-0.609331	0.609375	0.925781	-0.035156	40	17_11_17_2612600
-0.087891	-0.495117	0.313477	-0.374973	-0.674951	-0.599956	0.585938	0.890625	-0.175781	41	17_11_17_2773890
-0.102539	-0.509766	0.325195	-0.374973	-0.703074	-0.599956	0.832031	0.808594	-0.105469	42	17_11_17_2935180
-0.105469	-0.527344	0.313477	-0.384347	-0.712448	-0.599956	0.585938	0.820313	-0.152344	43	17_11_17_3096470
-0.099609	-0.512695	0.307617	-0.384347	-0.731197	-0.599956	0.597656	0.820313	-0.140625	44	17_11_17_3257760
-0.102539	-0.500977	0.301758	-0.374973	-0.749946	-0.590582	0.621094	0.914063	-0.175781	45	17_11_17_3419050
-0.093750	-0.498047	0.298828	-0.356224	-0.768694	-0.590582	1.253906	0.996094	0.093750	46	17_11_17_3580340
-0.076172	-0.509766	0.290039	-0.356224	-0.768694	-0.590582	0.609375	0.949219	-0.152344	47	17_11_17_3741630
-0.070313	-0.506836	0.304688	-0.356224	-0.749946	-0.581208	0.621094	0.925781	-0.164063	48	17_11_17_3902920
-0.067383	-0.509766	0.292969	-0.346850	-0.740571	-0.590582	0.703125	0.855469	0.234375	49	17_11_17_4064210
-0.067383	-0.503906	0.292969	-0.356224	-0.731197	-0.590582	0.738281	0.902344	-0.140625	50	17_11_17_4225500
-0.055664	-0.521484	0.301758	-0.356224	-0.703074	-0.599956	0.597656	0.867188	-0.187500	51	17_11_17_4386790
-0.067383	-0.518555	0.307617	-0.356224	-0.712448	-0.599956	0.609375	0.890625	-0.210938	52	17_11_17_4548080
-0.082031	-0.515625	0.307617	-0.356224	-0.703074	-0.590582	0.609375	0.925781	-0.187500	53	17_11_17_4709370
-0.073242	-0.527344	0.301758	-0.356224	-0.712448	-0.590582	0.585938	0.867188	-0.187500	54	17_11_17_4870660
-0.061523	-0.527344	0.307617	-0.356224	-0.703074	-0.590582	0.574219	0.925781	-0.164063	55	17_11_17_5031950
-0.061523	-0.521484	0.307617	-0.365598	-0.684325	-0.599956	0.597656	0.937500	-0.140625	56	17_11_17_5193240
-0.079102	-0.521484	0.319336	-0.365598	-0.693700	-0.599956	1.089844	0.902344	0.292969	57	17_11_17_5354530
-0.082031	-0.515625	0.313477	-0.374973	-0.693700	-0.599956	0.574219	0.855469	-0.199219	58	17_11_17_5515820
-0.084961	-0.515625	0.319336	-0.374973	-0.693700	-0.609331	0.632813	0.855469	-0.187500	59	17_11_17_5677110
-0.093750	-0.527344	0.307617	-0.374973	-0.712448	-0.599956	0.609375	0.937500	-0.199219	60	17_11_17_5838400
-0.082031	-0.515625	0.307617	-0.374973	-0.721823	-0.599956	0.574219	0.914063	-0.246094	61	17_11_17_5999690
-0.070313	-0.512695	0.295898	-0.365598	-0.731197	-0.590582	0.597656	0.820313	-0.199219	62	17_11_17_6160980
-0.052734	-0.515625	0.301758	-0.365598	-0.703074	-0.599956	0.609375	0.820313	-0.140625	63	17_11_17_6322270
-0.049805	-0.503906	0.301758	-0.356224	-0.693700	-0.599956	0.925781	0.902344	-0.035156	64	17_11_17_6483560
-0.049805	-0.512695	0.301758	-0.356224	-0.693700	-0.609331	0.597656	0.996094	-0.175781	65	17_11_17_6644850
-0.070313	-0.524414	0.284180	-0.356224	-0.693700	-0.609331	0.597656	0.960938	-0.187500	66	17_11_17_6806140
-0.070313	-0.518555	0.290039	-0.346850	-0.703074	-0.599956	0.632813	0.925781	-0.187500	67	17_11_17_6967430
-0.070313	-0.527344	0.295898	-0.346850	-0.703074	-0.590582	0.937500	0.972656	0.140625	68	17_11_17_7128720
-0.061523	-0.530273	0.295898	-0.346850	-0.703074	-0.599956	0.609375	0.937500	-0.187500	69	17_11_17_7290010
-0.052734	-0.530273	0.301758	-0.356224	-0.693700	-0.599956	0.585938	0.902344	-0.199219	70	17_11_17_7451300
-0.067383	-0.524414	0.304688	-0.365598	-0.674951	-0.609331	0.761719	0.902344	0.093750	71	17_11_17_7612590
-0.067383	-0.533203	0.310547	-0.365598	-0.665577	-0.609331	0.574219	0.960938	-0.175781	72	17_11_17_7773880
-0.079102	-0.521484	0.316406	-0.374973	-0.674951	-0.609331	0.597656	0.984375	-0.164063	73	17_11_17_7935170
-0.087891	-0.515625	0.322266	-0.374973	-0.684325	-0.609331	0.585938	0.925781	-0.187500	74	17_11_17_8096460
-0.096680	-0.521484	0.313477	-0.374973	-0.693700	-0.609331	0.621094	0.890625	-0.175781	75	17_11_17_8257750
-0.082031	-0.506836	0.313477	-0.374973	-0.712448	-0.599956	0.585938	0.949219	-0.175781	76	17_11_17_8419040
-0.070313	-0.512695	0.301758	-0.365598	-0.721823	-0.599956	1.207031	0.902344	0.082031	77	17_11_17_8580330
-0.076172	-0.512695	0.295898	-0.365598	-0.721823	-0.599956	0.585938	0.902344	-0.164063	78	17_11_17_8741620
-0.073242	-0.515625	0.301758	-0.365598	-0.721823	-0.599956	0.585938	0.937500	-0.175781	79	17_11_17_8902910
-0.061523	-0.506836	0.304688	-0.356224	-0.712448	-0.599956	0.609375	0.937500	-0.199219	80	17_11_17_9064200
-0.055664	-0.515625	0.292969	-0.356224	-0.712448	-0.599956	0.597656	0.902344	-0.199219	81	17_11_17_9225490
-0.052734	-0.515625	0.290039	-0.356224	-0.703074	-0.609331	0.597656	0.867188	-0.175781	82	17_11_17_9386780
-0.052734	-0.521484	0.290039	-0.356224	-0.703074	-0.609331	0.597656	0.843750	-0.175781	83	17_11_17_9548070
-0.052734	-0.533203	0.295898	-0.356224	-0.693700	-0.609331	0.832031	0.902344	-0.093750	84	17_11_17_9709360
-0.055664	-0.527344	0.292969	-0.365598	-0.674951	-0.609331	1.101563	0.914063	-0.011719	85	17_11_17_9870650
-0.061523	-0.524414	0.301758	-0.365598	-0.665577	-0.609331	0.574219	0.984375	-0.164063	86	17_11_18_0031940
-0.052734	-0.524414	0.301758	-0.365598	-0.665577	-0.618705	0.621094	0.937500	-0.175781	87	17_11_18_0193230
-0.067383	-0.521484	0.301758	-0.374973	-0.665577	-0.609331	0.574219	0.937500	-0.164063	88	17_11_18_0354520
-0.070313	-0.521484	0.301758	-0.374973	-0.674951	-0.609331	0.574219	0.937500	-0.164063	89	17_11_18_0515810
-0.061523	-0.515625	0.301758	-0.374973	-0.674951	-0.609331	0.703125	0.937500	0.410156	90	17_11_18_0677100
-0.082031	-0.521484	0.290039	-0.374973	-0.684325	-0.609331	0.761719	0.972656	-0.105469	91	17_11_18_0838390
-0.079102	-0.512695	0.307617	-0.374973	-0.693700	-0.599956	0.750000	0.949219	-0.105469	92	17_11_18_0999680
-0.076172	-0.512695	0.295898	-0.365598	-0.703074	-0.599956	0.597656	0.890625	-0.164063	93	17_11_18_1160970
-0.073242	-0.515625	0.301758	-0.365598	-0.712448	-0.609331	0.597656	0.867188	-0.175781	94	17_11_18_1322260
-0.076172	-0.521484	0.301758	-0.374973	-0.721823	-0.609331	0.621094	0.914063	-0.199219	95	17_11_18_1483550
-0.087891	-0.515625	0.298828	-0.365598	-0.721823	-0.618705	0.597656	1.007813	-0.199219	96	17_11_18_1644840
-0.061523	-0.524414	0.295898	-0.365598	-0.721823	-0.618705	0.621094	0.937500	-0.187500	97	17_11_18_1806130
-0.064453	-0.518555	0.313477	-0.374973	-0.712448	-0.618705	1.183594	0.867188	0.082031	98	17_11_18_1967420
-0.067383	-0.515625	0.322266	-0.374973	-0.703074	-0.609331	0.585938	0.878906	-0.164063	99	17_11_18_2128710
-0.061523	-0.512695	0.319336	-0.365598	-0.693700	-0.609331	0.808594	0.890625	0.222656	100	17_11_18_2290000
-0.058594	-0.521484	0.307617	-0.374973	-0.693700	-0.599956	0.609375	0.937500	-0.187500	101	17_11_18_2451290
-0.073242	-0.515625	0.304688	-0.365598	-0.703074	-0.599956	0.585938	0.914063	-0.164063	102	17_11_18_2612580
-0.070313	-0.515625	0.301758	-0.365598	-0.721823	-0.599956	0.597656	0.890625	-0.117188	103	17_11_18_2773870
-0.070313	-0.521484	0.301758	-0.365598	-0.731197	-0.590582	0.609375	0.925781	-0.175781	104	17_11_18_2935160
-0.076172	-0.521484	0.307617	-0.365598	-0.721823	-0.590582	0.597656	0.949219	-0.164063	105	17_11_18_3096450
-0.055664	-0.533203	0.301758	-0.365598	-0.712448	-0.590582	0.621094	0.925781	-0.164063	106	17_11_18_3257740
-0.064453	-0.515625	0.313477	-0.365598	-0.703074	-0.599956	0.621094	0.855469	-0.199219	107	17_11_18_3419030
-0.073242	-0.512695	0.304688	-0.374973	-0.693700	-0.599956	0.574219	0.902344	-0.175781	108	17_11_18_3580320
-0.067383	-0.498047	0.310547	-0.374973	-0.703074	-0.599956	0.597656	0.925781	-0.164063	109	17_11_18_3741610
-0.058594	-0.509766	0.295898	-0.374973	-0.703074	-0.609331	0.597656	0.820313	-0.164063	110	17_11_18_3902900
-0.064453	-0.515625	0.307617	-0.365598	-0.712448	-0.609331	0.597656	0.902344	-0.164063	111	17_11_18_4064190
-0.079102	-0.512695	0.310547	-0.365598	-0.703074	-0.609331	0.609375	0.902344	-0.175781	112	17_11_18_4225480
-0.082031	-0.521484	0.307617	-0.374973	-0.712448	-0.599956	0.597656	0.914063	-0.175781	113	17_11_18_4386770
-0.084961	-0.503906	0.295898	-0.356224	-0.731197	-0.590582	0.609375	0.843750	-0.152344	114	17_11_18_4548060
-0.049805	-0.500977	0.292969	-0.365598	-0.749946	-0.581208	0.597656	0.890625	-0.175781	115	17_11_18_4709350
-0.032227	-0.489258	0.295898	-0.356224	-0.740571	-0.599956	0.574219	0.890625	-0.164063	116	17_11_18_4870640
-0.038086	-0.533203	0.301758	-0.356224	-0.712448	-0.609331	0.574219	0.878906	-0.164063	117	17_11_18_5031930
-0.041016	-0.533203	0.295898	-0.356224	-0.674951	-0.628079	0.609375	0.960938	-0.187500	118	17_11_18_5193220
-0.055664	-0.524414	0.307617	-0.365598	-0.656202	-0.637454	0.609375	0.937500	-0.164063	119	17_11_18_5354510
-0.079102	-0.536133	0.304688	-0.365598	-0.646828	-0.637454	0.574219	0.867188	-0.152344	120	17_11_18_5515800
-0.087891	-0.515625	0.307617	-0.365598	-0.656202	-0.637454	0.667969	0.855469	-0.117188	121	17_11_18_5677090
-0.076172	-0.506836	0.307617	-0.365598	-0.665577	-0.618705	0.621094	0.890625	-0.175781	122	17_11_18_5838380
-0.067383	-0.521484	0.325195	-0.374973	-0.674951	-0.618705	0.597656	0.878906	0.058594	123	17_11_18_5999670
-0.067383	-0.521484	0.307617	-0.365598	-0.684325	-0.609331	0.785156	0.937500	-0.128906	124	17_11_18_6160960
-0.061523	-0.515625	0.304688	-0.365598	-0.703074	-0.599956	0.820313	0.867188	-0.105469	125	17_11_18_6322250
-0.061523	-0.521484	0.307617	-0.365598	-0.693700	-0.599956	1.019531	0.867188	-0.023438	126	17_11_18_6483540
-0.064453	-0.515625	0.301758	-0.356224	-0.693700	-0.599956	0.621094	0.878906	-0.128906	127	17_11_18_6644830
-0.064453	-0.515625	0.301758	-0.365598	-0.693700	-0.599956	0.574219	0.925781	-0.140625	128	17_11_18_6806120
-0.061523	-0.527344	0.295898	-0.365598	-0.693700	-0.599956	0.585938	0.867188	-0.187500	129	17_11_18_6967410
-0.070313	-0.521484	0.313477	-0.374973	-0.684325	-0.599956	0.609375	0.878906	-0.175781	130	17_11_18_7128700
-0.076172	-0.521484	0.313477	-0.374973	-0.674951	-0.599956	0.597656	0.960938	-0.175781	131	17_11_18_7289990
-0.079102	-0.512695	0.301758	-0.384347	-0.674951	-0.599956	0.703125	0.914063	-0.152344	132	17_11_18_7451280
-0.082031	-0.503906	0.307617	-0.374973	-0.674951	-0.599956	0.597656	0.937500	-0.164063	133	17_11_18_7612570
-0.076172	-0.521484	0.307617	-0.374973	-0.674951	-0.599956	0.656250	0.878906	-0.164063	134	17_11_18_7773860
-0.070313	-0.509766	0.298828	-0.384347	-0.684325	-0.609331	0.597656	0.914063	-0.187500	135	17_11_18_7935150
-0.079102	-0.512695	0.313477	-0.374973	-0.693700	-0.609331	0.597656	0.914063	-0.199219	136	17_11_18_8096440
-0.084961	-0.512695	0.307617	-0.384347	-0.693700	-0.609331	0.585938	0.914063	-0.199219	137	17_11_18_8257730
-0.076172	-0.521484	0.301758	-0.374973	-0.693700	-0.609331	0.621094	0.914063	-0.164063	138	17_11_18_8419020
-0.064453	-0.515625	0.301758	-0.374973	-0.693700	-0.609331	1.125000	0.890625	0.011719	139	17_11_18_8580310
-0.076172	-0.515625	0.292969	-0.384347	-0.693700	-0.609331	0.597656	0.902344	-0.175781	140	17_11_18_8741600
-0.058594	-0.515625	0.295898	-0.374973	-0.703074	-0.609331	0.609375	0.902344	-0.199219	141	17_11_18_8902890
-0.070313	-0.503906	0.307617	-0.384347	-0.703074	-0.609331	0.574219	0.925781	-0.199219	142	17_11_18_9064180
-0.067383	-0.495117	0.313477	-0.374973	-0.684325	-0.609331	0.585938	0.937500	-0.175781	143	17_11_18_9225470
-0.070313	-0.515625	0.304688	-0.374973	-0.693700	-0.609331	0.597656	0.972656	-0.164063	144	17_11_18_9386760
-0.079102	-0.509766	0.307617	-0.374973	-0.693700	-0.609331	0.621094	0.890625	-0.164063	145	17_11_18_9548050
-0.073242	-0.506836	0.301758	-0.374973	-0.693700	-0.599956	0.609375	0.902344	-0.187500	146	17_11_18_9709340
-0.064453	-0.518555	0.304688	-0.365598	-0.712448	-0.599956	0.585938	0.890625	-0.175781	147	17_11_18_9870630
-0.055664	-0.527344	0.313477	-0.365598	-0.721823	-0.590582	0.597656	0.925781	-0.187500	148	17_11_19_0031920
-0.064453	-0.515625	0.310547	-0.365598	-0.721823	-0.599956	0.597656	0.949219	-0.175781	149	17_11_19_0193210
-0.067383	-0.509766	0.313477	-0.365598	-0.712448	-0.599956	0.597656	0.914063	-0.187500	150	17_11_19_0354500
-0.064453	-0.524414	0.319336	-0.374973	-0.712448	-0.590582	0.609375	0.937500	-0.222656	151	17_11_19_0515790
-0.076172	-0.512695	0.310547	-0.365598	-0.703074	-0.590582	0.785156	0.855469	-0.023438	152	17_11_19_0677080
-0.082031	-0.515625	0.313477	-0.374973	-0.693700	-0.599956	0.597656	0.843750	-0.152344	153	17_11_19_0838370
-0.076172	-0.515625	0.316406	-0.365598	-0.693700	-0.599956	0.585938	0.902344	-0.175781	154	17_11_19_0999660
-0.076172	-0.515625	0.307617	-0.374973	-0.693700	-0.599956	0.574219	0.937500	-0.187500	155	17_11_19_1160950
-0.073242	-0.509766	0.313477	-0.365598	-0.684325	-0.599956	0.609375	0.878906	-0.164063	156	17_11_19_1322240
-0.073242	-0.524414	0.331055	-0.365598	-0.693700	-0.599956	0.574219	0.820313	-0.175781	157	17_11_19_1483530
-0.076172	-0.512695	0.313477	-0.365598	-0.693700	-0.599956	0.621094	0.902344	-0.175781	158	17_11_19_1644820
-0.076172	-0.515625	0.313477	-0.365598	-0.693700	-0.599956	0.574219	0.890625	-0.187500	159	17_11_19_1806110
-0.082031	-0.515625	0.310547	-0.365598	-0.712448	-0.599956	0.597656	0.890625	-0.175781	160	17_11_19_1967400
-0.070313	-0.503906	0.316406	-0.365598	-0.712448	-0.599956	0.621094	0.867188	-0.175781	161	17_11_19_2128690
-0.052734	-0.515625	0.316406	-0.365598	-0.703074	-0.599956	0.597656	0.902344	-0.164063	162	17_11_19_2289980
-0.067383	-0.512695	0.298828	-0.365598	-0.703074	-0.599956	0.585938	0.914063	-0.175781	163	17_11_19_2451270
-0.058594	-0.512695	0.301758	-0.365598	-0.693700	-0.599956	0.597656	0.925781	-0.175781	164	17_11_19_2612560
-0.064453	-0.515625	0.304688	-0.365598	-0.693700	-0.590582	0.597656	0.960938	-0.175781	165	17_11_19_2773850
-0.079102	-0.509766	0.301758	-0.365598	-0.693700	-0.599956	0.609375	0.890625	-0.199219	166	17_11_19_2935140
-0.093750	-0.509766	0.307617	-0.365598	-0.693700	-0.609331	0.574219	0.890625	-0.199219	167	17_11_19_3096430
-0.070313	-0.512695	0.313477	-0.356224	-0.693700	-0.609331	0.609375	0.925781	-0.187500	168	17_11_19_3257720
-0.070313	-0.515625	0.304688	-0.365598	-0.684325	-0.609331	0.609375	0.890625	-0.175781	169	17_11_19_3419010
-0.073242	-0.509766	0.313477	-0.356224	-0.693700	-0.609331	0.609375	0.796875	-0.199219	170	17_11_19_3580300
-0.073242	-0.515625	0.313477	-0.356224	-0.684325	-0.599956	0.632813	0.820313	-0.175781	171	17_11_19_3741590
-0.064453	-0.512695	0.316406	-0.356224	-0.684325	-0.609331	0.597656	0.867188	-0.187500	172	17_11_19_3902880
-0.076172	-0.521484	0.307617	-0.356224	-0.693700	-0.609331	0.597656	0.925781	-0.210938	173	17_11_19_4064170
-0.070313	-0.518555	0.319336	-0.365598	-0.693700	-0.609331	0.597656	0.914063	-0.199219	174	17_11_19_4225460
-0.079102	-0.521484	0.307617	-0.365598	-0.703074	-0.599956	0.585938	0.878906	-0.175781	175	17_11_19_4386750
-0.079102	-0.509766	0.307617	-0.365598	-0.721823	-0.590582	0.574219	0.902344	-0.199219	176	17_11_19_4548040
-0.073242	-0.509766	0.310547	-0.365598	-0.731197	-0.590582	0.621094	0.949219	-0.175781	177	17_11_19_4709330
-0.087891	-0.512695	0.316406	-0.365598	-0.731197	-0.599956	0.597656	0.937500	-0.164063	178	17_11_19_4870620
-0.082031	-0.521484	0.316406	-0.365598	-0.731197	-0.609331	0.937500	0.960938	-0.058594	179	17_11_19_5031910
-0.090820	-0.503906	0.316406	-0.365598	-0.731197	-0.609331	0.597656	0.937500	-0.175781	180	17_11_19_5193200
-0.099609	-0.503906	0.313477	-0.365598	-0.749946	-0.609331	0.597656	0.914063	-0.152344	181	17_11_19_5354490
-0.076172	-0.506836	0.307617	-0.365598	-0.749946	-0.609331	0.597656	0.972656	-0.152344	182	17_11_19_5515780
-0.035156	-0.503906	0.304688	-0.356224	-0.731197	-0.618705	0.632813	0.890625	-0.187500	183	17_11_19_5677070
-0.038086	-0.515625	0.325195	-0.365598	-0.693700	-0.628079	0.597656	0.914063	-0.199219	184	17_11_19_5838360
-0.046875	-0.509766	0.322266	-0.365598	-0.665577	-0.618705	0.597656	0.984375	-0.199219	185	17_11_19_5999650
-0.067383	-0.524414	0.313477	-0.365598	-0.665577	-0.618705	0.597656	0.937500	-0.199219	186	17_11_19_6160940
-0.073242	-0.527344	0.313477	-0.365598	-0.693700	-0.609331	0.773438	0.902344	-0.117188	187	17_11_19_6322230
-0.076172	-0.524414	0.316406	-0.374973	-0.703074	-0.599956	0.574219	0.914063	-0.199219	188	17_11_19_6483520
-0.070313	-0.521484	0.313477	-0.365598	-0.712448	-0.609331	0.621094	0.937500	-0.175781	189	17_11_19_6644810
-0.070313	-0.521484	0.313477	-0.346850	-0.721823	-0.599956	0.585938	0.937500	-0.175781	190	17_11_19_6806100
-0.064453	-0.506836	0.319336	-0.365598	-0.712448	-0.599956	0.597656	0.960938	-0.199219	191	17_11_19_6967390
-0.064453	-0.498047	0.304688	-0.365598	-0.712448	-0.590582	0.585938	0.914063	-0.199219	192	17_11_19_7128680
-0.067383	-0.509766	0.301758	-0.356224	-0.703074	-0.599956	0.585938	0.820313	-0.222656	193	17_11_19_7289970
-0.067383	-0.512695	0.307617	-0.356224	-0.712448	-0.599956	0.597656	0.890625	-0.222656	194	17_11_19_7451260
-0.064453	-0.509766	0.316406	-0.356224	-0.703074	-0.609331	0.726563	0.878906	0.199219	195	17_11_19_7612550
-0.067383	-0.506836	0.310547	-0.365598	-0.693700	-0.609331	0.597656	0.867188	-0.175781	196	17_11_19_7773840
-0.070313	-0.521484	0.316406	-0.356224	-0.693700	-0.618705	0.609375	0.914063	-0.175781	197	17_11_19_7935130
-0.067383	-0.515625	0.319336	-0.365598	-0.684325	-0.609331	0.597656	0.984375	-0.164063	198	17_11_19_8096420
-0.076172	-0.506836	0.322266	-0.365598	-0.684325	-0.618705	0.597656	0.972656	-0.164063	199	17_11_19_8257710
-0.076172	-0.515625	0.319336	-0.374973	-0.693700	-0.609331	0.597656	0.878906	-0.175781	200	17_11_19_8419000
-0.073242	-0.518555	0.316406	-0.365598	-0.684325	-0.609331	0.609375	0.925781	-0.187500	201	17_11_19_8580290
-0.070313	-0.524414	0.319336	-0.365598	-0.684325	-0.609331	1.277344	0.914063	0.082031	202	17_11_19_8741580
-0.070313	-0.521484	0.319336	-0.374973	-0.684325	-0.609331	0.585938	0.925781	-0.199219	203	17_11_19_8902870
-0.073242	-0.512695	0.316406	-0.384347	-0.684325	-0.618705	0.632813	0.796875	-0.187500	204	17_11_19_9064160
-0.073242	-0.503906	0.313477	-0.374973	-0.674951	-0.609331	0.597656	0.867188	-0.152344	205	17_11_19_9225450
-0.082031	-0.512695	0.310547	-0.374973	-0.674951	-0.618705	0.609375	0.890625	0.152344	206	17_11_19_9386740
-0.070313	-0.509766	0.307617	-0.374973	-0.665577	-0.628079	0.621094	0.785156	-0.187500	207	17_11_19_9548030
-0.070313	-0.509766	0.316406	-0.374973	-0.637454	-0.628079	0.808594	0.843750	-0.117188	208	17_11_19_9709320
-0.076172	-0.509766	0.307617	-0.374973	-0.637454	-0.637454	0.621094	0.867188	-0.187500	209	17_11_19_9870610
-0.090820	-0.509766	0.328125	-0.374973	-0.646828	-0.637454	0.609375	0.878906	-0.187500	210	17_11_20_0031900
-0.076172	-0.521484	0.319336	-0.374973	-0.656202	-0.637454	0.597656	0.855469	-0.199219	211	17_11_20_0193190
-0.079102	-0.521484	0.316406	-0.374973	-0.665577	-0.637454	0.597656	0.902344	-0.175781	212	17_11_20_0354480
-0.087891	-0.515625	0.313477	-0.384347	-0.684325	-0.628079	0.597656	0.937500	-0.175781	213	17_11_20_0515770
-0.082031	-0.518555	0.316406	-0.374973	-0.684325	-0.609331	0.609375	0.925781	-0.199219	214	17_11_20_0677060
-0.067383	-0.512695	0.298828	-0.384347	-0.703074	-0.609331	0.714844	0.855469	0.210938	215	17_11_20_0838350
-0.070313	-0.524414	0.298828	-0.374973	-0.693700	-0.599956	0.597656	0.960938	-0.152344	216	17_11_20_0999640
-0.067383	-0.503906	0.310547	-0.365598	-0.684325	-0.599956	0.585938	0.996094	-0.140625	217	17_11_20_1160930
-0.070313	-0.503906	0.301758	-0.374973	-0.684325	-0.599956	0.597656	0.914063	-0.140625	218	17_11_20_1322220
-0.076172	-0.509766	0.313477	-0.374973	-0.674951	-0.599956	0.609375	0.867188	-0.152344	219	17_11_20_1483510
-0.079102	-0.509766	0.313477	-0.374973	-0.684325	-0.599956	0.632813	0.867188	-0.164063	220	17_11_20_1644800
-0.090820	-0.492188	0.316406	-0.365598	-0.693700	-0.590582	0.585938	0.890625	-0.152344	221	17_11_20_1806090
-0.099609	-0.500977	0.307617	-0.365598	-0.693700	-0.599956	0.585938	0.960938	-0.164063	222	17_11_20_1967380
-0.090820	-0.509766	0.313477	-0.356224	-0.693700	-0.599956	0.656250	0.890625	-0.152344	223	17_11_20_2128670
-0.076172	-0.515625	0.316406	-0.356224	-0.684325	-0.599956	0.679688	0.832031	-0.175781	224	17_11_20_2289960
-0.076172	-0.509766	0.307617	-0.356224	-0.665577	-0.599956	0.585938	0.878906	-0.210938	225	17_11_20_2451250
-0.093750	-0.509766	0.325195	-0.365598	-0.665577	-0.599956	0.609375	0.925781	-0.199219	226	17_11_20_2612540
-0.096680	-0.509766	0.316406	-0.365598	-0.665577	-0.599956	0.597656	0.937500	-0.187500	227	17_11_20_2773830
-0.102539	-0.506836	0.325195	-0.365598	-0.684325	-0.609331	0.585938	0.914063	-0.175781	228	17_11_20_2935120
-0.096680	-0.509766	0.325195	-0.365598	-0.684325	-0.599956	0.597656	0.937500	-0.199219	229	17_11_20_3096410
-0.096680	-0.515625	0.325195	-0.365598	-0.693700	-0.599956	0.609375	0.902344	-0.210938	230	17_11_20_3257700
-0.087891	-0.503906	0.313477	-0.365598	-0.693700	-0.599956	0.585938	0.914063	-0.175781	231	17_11_20_3418990
-0.087891	-0.506836	0.322266	-0.365598	-0.712448	-0.599956	0.984375	0.902344	-0.046875	232	17_11_20_3580280
-0.093750	-0.521484	0.322266	-0.365598	-0.712448	-0.599956	0.597656	0.867188	-0.187500	233	17_11_20_3741570
-0.073242	-0.515625	0.313477	-0.365598	-0.703074	-0.590582	0.656250	0.937500	-0.175781	234	17_11_20_3902860
-0.082031	-0.503906	0.313477	-0.374973	-0.712448	-0.590582	0.621094	0.937500	-0.152344	235	17_11_20_4064150
-0.082031	-0.512695	0.313477	-0.365598	-0.712448	-0.581208	0.644531	0.914063	-0.152344	236	17_11_20_4225440
-0.067383	-0.500977	0.313477	-0.365598	-0.712448	-0.581208	0.597656	0.914063	-0.187500	237	17_11_20_4386730
-0.070313	-0.509766	0.304688	-0.356224	-0.712448	-0.581208	0.621094	0.914063	-0.175781	238	17_11_20_4548020
-0.079102	-0.524414	0.301758	-0.356224	-0.703074	-0.571833	0.773438	0.937500	-0.093750	239	17_11_20_4709310
-0.064453	-0.512695	0.301758	-0.356224	-0.693700	-0.571833	0.597656	0.890625	-0.164063	240	17_11_20_4870600
-0.076172	-0.506836	0.304688	-0.356224	-0.674951	-0.581208	0.609375	0.902344	-0.187500	241	17_11_20_5031890
-0.076172	-0.506836	0.310547	-0.356224	-0.656202	-0.590582	0.609375	0.902344	-0.164063	242	17_11_20_5193180
-0.084961	-0.503906	0.313477	-0.356224	-0.656202	-0.590582	0.609375	0.914063	-0.152344	243	17_11_20_5354470
-0.093750	-0.515625	0.316406	-0.356224	-0.665577	-0.599956	0.609375	0.960938	-0.105469	244	17_11_20_5515760
-0.087891	-0.503906	0.313477	-0.356224	-0.665577	-0.599956	1.078125	0.902344	0.187500	245	17_11_20_5677050
-0.102539	-0.515625	0.328125	-0.356224	-0.674951	-0.599956	0.609375	0.855469	-0.164063	246	17_11_20_5838340
-0.087891	-0.518555	0.325195	-0.365598	-0.674951	-0.609331	0.574219	0.867188	-0.175781	247	17_11_20_5999630
-0.102539	-0.521484	0.328125	-0.365598	-0.684325	-0.609331	0.597656	0.878906	-0.199219	248	17_11_20_6160920
-0.096680	-0.521484	0.328125	-0.365598	-0.674951	-0.609331	0.597656	0.914063	-0.152344	249	17_11_20_6322210
-0.087891	-0.518555	0.325195	-0.374973	-0.684325	-0.599956	0.597656	0.890625	-0.152344	250	17_11_20_6483500
-0.084961	-0.527344	0.325195	-0.384347	-0.693700	-0.599956	0.609375	0.796875	-0.175781	251	17_11_20_6644790
-0.087891	-0.515625	0.319336	-0.374973	-0.712448	-0.599956	0.621094	0.832031	-0.164063	252	17_11_20_6806080
-0.079102	-0.521484	0.322266	-0.374973	-0.712448	-0.599956	0.585938	0.867188	-0.199219	253	17_11_20_6967370
-0.087891	-0.503906	0.301758	-0.374973	-0.712448	-0.590582	0.632813	0.855469	-0.199219	254	17_11_20_7128660
-0.076172	-0.500977	0.307617	-0.374973	-0.712448	-0.590582	0.597656	0.902344	-0.175781	255	17_11_20_7289950
-0.067383	-0.506836	0.307617	-0.374973	-0.712448	-0.590582	0.597656	0.914063	-0.164063	256	17_11_20_7451240
-0.067383	-0.503906	0.307617	-0.365598	-0.703074	-0.590582	0.585938	0.843750	-0.175781	257	17_11_20_7612530
-0.073242	-0.506836	0.313477	-0.365598	-0.712448	-0.590582	0.714844	0.914063	0.222656	258	17_11_20_7773820
-0.067383	-0.498047	0.292969	-0.356224	-0.703074	-0.590582	0.597656	0.914063	-0.175781	259	17_11_20_7935110
-0.064453	-0.509766	0.307617	-0.356224	-0.693700	-0.590582	0.621094	0.914063	-0.187500	260	17_11_20_8096400
-0.073242	-0.506836	0.310547	-0.356224	-0.684325	-0.599956	0.843750	0.867188	-0.105469	261	17_11_20_8257690
-0.087891	-0.509766	0.313477	-0.356224	-0.674951	-0.599956	0.890625	0.867188	-0.058594	262	17_11_20_8418980
-0.093750	-0.512695	0.310547	-0.356224	-0.674951	-0.599956	0.585938	0.914063	-0.140625	263	17_11_20_8580270
-0.087891	-0.506836	0.322266	-0.356224	-0.684325	-0.599956	1.066406	0.960938	0.000000	264	17_11_20_8741560
-0.082031	-0.512695	0.322266	-0.356224	-0.693700	-0.599956	0.585938	0.960938	-0.175781	265	17_11_20_8902850
-0.070313	-0.515625	0.325195	-0.365598	-0.693700	-0.599956	0.597656	0.925781	-0.187500	266	17_11_20_9064140
-0.076172	-0.503906	0.316406	-0.365598	-0.684325	-0.599956	0.574219	0.925781	-0.199219	267	17_11_20_9225430
-0.076172	-0.518555	0.319336	-0.365598	-0.693700	-0.609331	0.609375	0.902344	0.199219	268	17_11_20_9386720
-0.099609	-0.512695	0.313477	-0.365598	-0.693700	-0.599956	0.632813	0.867188	-0.187500	269	17_11_20_9548010
-0.076172	-0.515625	0.316406	-0.365598	-0.712448	-0.599956	0.574219	0.937500	-0.175781	270	17_11_20_9709300
-0.079102	-0.515625	0.313477	-0.365598	-0.703074	-0.599956	0.597656	0.937500	-0.175781	271	17_11_20_9870590
-0.064453	-0.515625	0.328125	-0.365598	-0.712448	-0.599956	0.597656	0.914063	-0.175781	272	17_11_21_0031880
-0.073242	-0.509766	0.310547	-0.365598	-0.703074	-0.599956	0.585938	0.902344	-0.175781	273	17_11_21_0193170
-0.070313	-0.509766	0.310547	-0.356224	-0.712448	-0.599956	0.609375	0.902344	-0.187500	274	17_11_21_0354460
-0.067383	-0.503906	0.301758	-0.356224	-0.712448	-0.599956	0.656250	0.867188	-0.152344	275	17_11_21_0515750
-0.067383	-0.515625	0.313477	-0.365598	-0.712448	-0.599956	0.960938	0.914063	-0.023438	276	17_11_21_0677040
-0.073242	-0.521484	0.307617	-0.356224	-0.712448	-0.599956	0.574219	0.960938	-0.152344	277	17_11_21_0838330
-0.073242	-0.503906	0.310547	-0.356224	-0.712448	-0.599956	0.597656	0.937500	-0.175781	278	17_11_21_0999620
-0.067383	-0.521484	0.307617	-0.356224	-0.712448	-0.599956	0.574219	0.960938	-0.199219	279	17_11_21_1160910
-0.073242	-0.503906	0.307617	-0.356224	-0.703074	-0.599956	0.761719	0.914063	0.023438	280	17_11_21_1322200
-0.079102	-0.515625	0.301758	-0.356224	-0.703074	-0.609331	0.597656	0.890625	-0.152344	281	17_11_21_1483490
-0.082031	-0.509766	0.310547	-0.356224	-0.693700	-0.609331	0.609375	0.960938	-0.175781	282	17_11_21_1644780
-0.073242	-0.524414	0.313477	-0.356224	-0.693700	-0.609331	0.585938	0.960938	-0.175781	283	17_11_21_1806070
-0.084961	-0.524414	0.313477	-0.356224	-0.693700	-0.618705	0.972656	0.960938	-0.058594	284	17_11_21_1967360
-0.096680	-0.521484	0.313477	-0.365598	-0.693700	-0.618705	0.574219	0.914063	-0.187500	285	17_11_21_2128650
-0.076172	-0.512695	0.313477	-0.365598	-0.703074	-0.618705	0.621094	0.867188	-0.187500	286	17_11_21_2289940
-0.073242	-0.515625	0.313477	-0.374973	-0.703074	-0.628079	0.585938	0.867188	-0.175781	287	17_11_21_2451230
-0.079102	-0.515625	0.313477	-0.365598	-0.703074	-0.628079	0.597656	0.878906	-0.187500	288	17_11_21_2612520
-0.073242	-0.515625	0.322266	-0.365598	-0.703074	-0.628079	0.585938	0.914063	-0.210938	289	17_11_21_2773810
-0.064453	-0.509766	0.316406	-0.374973	-0.703074	-0.628079	0.597656	0.925781	0.023438	290	17_11_21_2935100
-0.070313	-0.524414	0.313477	-0.374973	-0.684325	-0.618705	0.585938	0.960938	-0.175781	291	17_11_21_3096390
-0.067383	-0.512695	0.319336	-0.365598	-0.693700	-0.618705	0.621094	0.937500	-0.175781	292	17_11_21_3257680
-0.073242	-0.515625	0.316406	-0.374973	-0.693700	-0.609331	0.597656	0.914063	-0.175781	293	17_11_21_3418970
-0.067383	-0.512695	0.301758	-0.374973	-0.693700	-0.609331	0.937500	0.914063	-0.058594	294	17_11_21_3580260
-0.073242	-0.515625	0.310547	-0.374973	-0.703074	-0.599956	0.585938	0.867188	-0.187500	295	17_11_21_3741550
-0.064453	-0.506836	0.301758	-0.374973	-0.693700	-0.599956	0.609375	0.867188	-0.187500	296	17_11_21_3902840
-0.064453	-0.515625	0.307617	-0.365598	-0.693700	-0.599956	0.585938	0.937500	-0.175781	297	17_11_21_4064130
-0.076172	-0.515625	0.301758	-0.374973	-0.674951	-0.599956	0.667969	0.996094	-0.164063	298	17_11_21_4225420
-0.076172	-0.503906	0.310547	-0.374973	-0.665577	-0.609331	0.679688	0.949219	0.269531	299	17_11_21_4386710
-0.084961	-0.503906	0.304688	-0.365598	-0.646828	-0.618705	0.597656	0.890625	-0.175781	300	17_11_21_4548000
-0.096680	-0.506836	0.307617	-0.374973	-0.656202	-0.618705	0.796875	0.843750	-0.105469	301	17_11_21_4709290
-0.084961	-0.500977	0.316406	-0.374973	-0.656202	-0.618705	0.644531	0.867188	-0.152344	302	17_11_21_4870580
-0.087891	-0.503906	0.319336	-0.365598	-0.656202	-0.618705	0.632813	0.960938	-0.152344	303	17_11_21_5031870
-0.084961	-0.509766	0.325195	-0.365598	-0.665577	-0.628079	0.621094	0.914063	-0.175781	304	17_11_21_5193160
-0.099609	-0.521484	0.322266	-0.365598	-0.665577	-0.628079	0.585938	0.878906	-0.164063	305	17_11_21_5354450
-0.087891	-0.512695	0.319336	-0.365598	-0.674951	-0.609331	0.585938	0.867188	-0.175781	306	17_11_21_5515740
-0.073242	-0.512695	0.313477	-0.374973	-0.674951	-0.609331	0.609375	0.878906	-0.199219	307	17_11_21_5677030
-0.076172	-0.509766	0.319336	-0.374973	-0.674951	-0.609331	0.585938	0.890625	-0.210938	308	17_11_21_5838320
-0.076172	-0.509766	0.304688	-0.374973	-0.674951	-0.609331	0.609375	0.925781	-0.199219	309	17_11_21_5999610
-0.079102	-0.515625	0.316406	-0.374973	-0.665577	-0.609331	0.714844	0.914063	-0.140625	310	17_11_21_6160900
-0.099609	-0.512695	0.304688	-0.374973	-0.665577	-0.609331	0.609375	0.843750	-0.152344	311	17_11_21_6322190
-0.093750	-0.509766	0.310547	-0.374973	-0.674951	-0.609331	0.902344	0.937500	-0.046875	312	17_11_21_6483480
-0.096680	-0.509766	0.307617	-0.374973	-0.684325	-0.609331	0.855469	0.984375	-0.093750	313	17_11_21_6644770
-0.093750	-0.509766	0.301758	-0.365598	-0.684325	-0.599956	0.597656	0.949219	-0.199219	314	17_11_21_6806060
-0.070313	-0.503906	0.310547	-0.374973	-0.693700	-0.599956	0.597656	0.937500	-0.187500	315	17_11_21_6967350
-0.090820	-0.512695	0.319336	-0.365598	-0.674951	-0.599956	0.597656	0.960938	-0.199219	316	17_11_21_7128640
-0.099609	-0.509766	0.301758	-0.365598	-0.665577	-0.599956	0.585938	0.949219	-0.210938	317	17_11_21_7289930
-0.087891	-0.498047	0.307617	-0.365598	-0.674951	-0.599956	0.621094	0.878906	-0.175781	318	17_11_21_7451220
-0.087891	-0.495117	0.316406	-0.365598	-0.674951	-0.599956	0.667969	0.855469	-0.152344	319	17_11_21_7612510
-0.090820	-0.506836	0.316406	-0.365598	-0.665577	-0.599956	0.585938	0.925781	-0.187500	320	17_11_21_7773800
-0.087891	-0.503906	0.325195	-0.365598	-0.665577	-0.609331	0.609375	0.925781	-0.199219	321	17_11_21_7935090
-0.087891	-0.512695	0.325195	-0.365598	-0.656202	-0.609331	0.785156	0.949219	-0.117188	322	17_11_21_8096380
-0.096680	-0.509766	0.307617	-0.365598	-0.656202	-0.609331	0.832031	0.902344	-0.105469	323	17_11_21_8257670
-0.102539	-0.521484	0.310547	-0.365598	-0.656202	-0.609331	0.585938	0.914063	-0.199219	324	17_11_21_8418960
-0.105469	-0.515625	0.316406	-0.365598	-0.665577	-0.599956	0.597656	0.902344	-0.175781	325	17_11_21_8580250
-0.093750	-0.518555	0.313477	-0.365598	-0.674951	-0.590582	0.585938	0.890625	-0.164063	326	17_11_21_8741540
-0.093750	-0.509766	0.322266	-0.374973	-0.674951	-0.609331	0.597656	0.914063	-0.175781	327	17_11_21_8902830
-0.105469	-0.503906	0.313477	-0.365598	-0.674951	-0.609331	0.621094	0.902344	-0.175781	328	17_11_21_9064120
-0.102539	-0.512695	0.310547	-0.365598	-0.693700	-0.590582	0.585938	0.867188	-0.164063	329	17_11_21_9225410
-0.087891	-0.500977	0.307617	-0.365598	-0.693700	-0.590582	0.609375	0.878906	-0.175781	330	17_11_21_9386700
-0.099609	-0.515625	0.313477	-0.365598	-0.693700	-0.590582	0.632813	0.878906	0.175781	331	17_11_21_9547990
-0.096680	-0.503906	0.310547	-0.374973	-0.684325	-0.590582	0.750000	0.949219	0.058594	332	17_11_21_9709280
-0.096680	-0.500977	0.313477	-0.365598	-0.684325	-0.590582	0.632813	0.949219	-0.175781	333	17_11_21_9870570
-0.099609	-0.509766	0.301758	-0.365598	-0.684325	-0.590582	0.609375	0.960938	-0.187500	334	17_11_22_0031860
-0.111328	-0.498047	0.313477	-0.365598	-0.693700	-0.599956	0.597656	0.925781	-0.175781	335	17_11_22_0193150
-0.099609	-0.515625	0.310547	-0.365598	-0.684325	-0.599956	0.585938	0.914063	-0.187500	336	17_11_22_0354440
-0.099609	-0.512695	0.310547	-0.365598	-0.684325	-0.599956	0.609375	0.960938	-0.175781	337	17_11_22_0515730
-0.105469	-0.503906	0.307617	-0.365598	-0.693700	-0.599956	0.609375	0.925781	-0.187500	338	17_11_22_0677020
-0.111328	-0.503906	0.316406	-0.356224	-0.693700	-0.599956	0.679688	0.949219	-0.164063	339	17_11_22_0838310
-0.096680	-0.506836	0.319336	-0.356224	-0.703074	-0.599956	0.585938	0.914063	-0.175781	340	17_11_22_0999600
-0.099609	-0.506836	0.313477	-0.356224	-0.703074	-0.599956	0.585938	0.937500	-0.187500	341	17_11_22_1160890
-0.093750	-0.509766	0.313477	-0.356224	-0.703074	-0.599956	0.597656	0.925781	-0.175781	342	17_11_22_1322180
-0.093750	-0.515625	0.316406	-0.356224	-0.703074	-0.599956	0.621094	0.867188	-0.187500	343	17_11_22_1483470
-0.093750	-0.509766	0.310547	-0.356224	-0.693700	-0.609331	0.621094	0.914063	-0.199219	344	17_11_22_1644760
-0.093750	-0.503906	0.316406	-0.337475	-0.684325	-0.609331	0.890625	0.914063	-0.117188	345	17_11_22_1806050
-0.084961	-0.509766	0.307617	-0.346850	-0.674951	-0.609331	0.609375	0.984375	-0.175781	346	17_11_22_1967340
-0.084961	-0.498047	0.304688	-0.337475	-0.674951	-0.609331	0.632813	0.984375	-0.164063	347	17_11_22_2128630
-0.087891	-0.521484	0.319336	-0.346850	-0.656202	-0.609331	0.621094	0.914063	-0.140625	348	17_11_22_2289920
-0.093750	-0.521484	0.316406	-0.356224	-0.656202	-0.609331	0.691406	0.984375	-0.105469	349	17_11_22_2451210
-0.099609	-0.515625	0.313477	-0.356224	-0.665577	-0.609331	0.925781	0.937500	0.281250	350	17_11_22_2612500
-0.093750	-0.533203	0.322266	-0.356224	-0.665577	-0.609331	0.609375	0.937500	-0.187500	351	17_11_22_2773790
-0.099609	-0.527344	0.298828	-0.356224	-0.674951	-0.599956	0.585938	0.960938	-0.187500	352	17_11_22_2935080
-0.108398	-0.527344	0.301758	-0.356224	-0.684325	-0.599956	0.621094	0.914063	-0.035156	353	17_11_22_3096370
-0.096680	-0.524414	0.313477	-0.365598	-0.693700	-0.599956	0.832031	0.914063	-0.105469	354	17_11_22_3257660
-0.087891	-0.518555	0.310547	-0.356224	-0.693700	-0.609331	0.597656	0.937500	-0.187500	355	17_11_22_3418950
-0.090820	-0.518555	0.316406	-0.365598	-0.693700	-0.599956	0.621094	1.007813	-0.187500	356	17_11_22_3580240
-0.090820	-0.503906	0.304688	-0.365598	-0.703074	-0.599956	0.984375	0.937500	-0.035156	357	17_11_22_3741530
-0.105469	-0.512695	0.307617	-0.374973	-0.712448	-0.599956	0.597656	0.937500	-0.175781	358	17_11_22_3902820
-0.096680	-0.509766	0.313477	-0.365598	-0.731197	-0.590582	0.585938	0.902344	-0.175781	359	17_11_22_4064110
-0.111328	-0.498047	0.304688	-0.356224	-0.731197	-0.599956	0.597656	0.937500	-0.152344	360	17_11_22_4225400
-0.099609	-0.515625	0.290039	-0.356224	-0.731197	-0.599956	0.597656	0.937500	-0.187500	361	17_11_22_4386690
-0.067383	-0.509766	0.284180	-0.356224	-0.703074	-0.599956	0.597656	0.914063	-0.187500	362	17_11_22_4547980
-0.070313	-0.509766	0.301758	-0.356224	-0.674951	-0.609331	0.597656	0.914063	-0.164063	363	17_11_22_4709270
-0.090820	-0.500977	0.301758	-0.356224	-0.665577	-0.609331	0.585938	0.890625	-0.164063	364	17_11_22_4870560
-0.108398	-0.503906	0.301758	-0.356224	-0.665577	-0.609331	0.585938	0.914063	-0.175781	365	17_11_22_5031850
-0.096680	-0.500977	0.295898	-0.356224	-0.693700	-0.599956	0.585938	0.937500	-0.187500	366	17_11_22_5193140
-0.102539	-0.515625	0.295898	-0.318727	-0.703074	-0.599956	0.597656	0.984375	-0.199219	367	17_11_22_5354430
-0.090820	-0.521484	0.301758	-0.356224	-0.703074	-0.599956	0.621094	0.914063	-0.199219	368	17_11_22_5515720
-0.087891	-0.509766	0.301758	-0.356224	-0.703074	-0.599956	0.597656	0.808594	-0.187500	369	17_11_22_5677010
-0.099609	-0.509766	0.313477	-0.356224	-0.693700	-0.599956	1.148438	0.855469	0.292969	370	17_11_22_5838300
-0.093750	-0.509766	0.301758	-0.356224	-0.674951	-0.599956	0.609375	0.984375	-0.175781	371	17_11_22_5999590
-0.082031	-0.506836	0.313477	-0.356224	-0.665577	-0.599956	0.597656	0.960938	-0.187500	372	17_11_22_6160880
-0.102539	-0.521484	0.310547	-0.356224	-0.665577	-0.599956	0.667969	0.925781	-0.199219	373	17_11_22_6322170
-0.102539	-0.515625	0.307617	-0.356224	-0.656202	-0.599956	0.597656	0.914063	-0.187500	374	17_11_22_6483460
-0.111328	-0.515625	0.313477	-0.356224	-0.665577	-0.590582	0.621094	0.925781	-0.175781	375	17_11_22_6644750
-0.093750	-0.509766	0.310547	-0.356224	-0.674951	-0.599956	0.867188	0.960938	-0.117188	376	17_11_22_6806040
-0.099609	-0.521484	0.307617	-0.356224	-0.674951	-0.599956	0.585938	0.972656	-0.187500	377	17_11_22_6967330
-0.099609	-0.533203	0.304688	-0.365598	-0.693700	-0.599956	0.609375	0.902344	-0.175781	378	17_11_22_7128620
-0.105469	-0.536133	0.307617	-0.356224	-0.693700	-0.590582	0.632813	0.937500	-0.187500	379	17_11_22_7289910
-0.102539	-0.521484	0.301758	-0.356224	-0.703074	-0.599956	0.609375	0.937500	-0.175781	380	17_11_22_7451200
-0.111328	-0.518555	0.298828	-0.356224	-0.712448	-0.590582	0.609375	0.878906	-0.187500	381	17_11_22_7612490
-0.102539	-0.515625	0.295898	-0.365598	-0.712448	-0.599956	0.574219	0.914063	-0.175781	382	17_11_22_7773780
-0.096680	-0.512695	0.298828	-0.374973	-0.712448	-0.599956	0.597656	0.878906	-0.164063	383	17_11_22_7935070
-0.099609	-0.515625	0.292969	-0.374973	-0.721823	-0.590582	0.585938	0.890625	0.046875	384	17_11_22_8096360
-0.108398	-0.503906	0.287109	-0.365598	-0.721823	-0.599956	0.597656	0.937500	-0.164063	385	17_11_22_8257650
-0.090820	-0.518555	0.290039	-0.365598	-0.731197	-0.590582	0.820313	0.984375	-0.070313	386	17_11_22_8418940
-0.087891	-0.509766	0.295898	-0.365598	-0.731197	-0.599956	0.914063	0.960938	-0.058594	387	17_11_22_8580230
-0.099609	-0.521484	0.290039	-0.356224	-0.721823	-0.599956	0.621094	0.949219	-0.164063	388	17_11_22_8741520
-0.105469	-0.515625	0.295898	-0.356224	-0.731197	-0.590582	0.597656	0.914063	-0.164063	389	17_11_22_8902810
-0.099609	-0.509766	0.304688	-0.356224	-0.740571	-0.599956	0.597656	0.937500	-0.164063	390	17_11_22_9064100
-0.090820	-0.503906	0.301758	-0.356224	-0.749946	-0.599956	0.644531	0.960938	-0.164063	391	17_11_22_9225390
-0.099609	-0.515625	0.292969	-0.356224	-0.749946	-0.599956	0.773438	0.996094	0.175781	392	17_11_22_9386680
-0.084961	-0.512695	0.295898	-0.356224	-0.749946	-0.599956	0.585938	0.960938	-0.187500	393	17_11_22_9547970
-0.082031	-0.509766	0.298828	-0.356224	-0.749946	-0.599956	0.609375	0.914063	-0.210938	394	17_11_22_9709260
-0.073242	-0.524414	0.295898	-0.356224	-0.740571	-0.599956	0.597656	0.902344	-0.164063	395	17_11_22_9870550
-0.090820	-0.521484	0.313477	-0.365598	-0.749946	-0.599956	0.574219	0.890625	-0.152344	396	17_11_23_0031840
-0.087891	-0.533203	0.316406	-0.374973	-0.749946	-0.599956	0.609375	0.937500	-0.175781	397	17_11_23_0193130
-0.079102	-0.521484	0.313477	-0.365598	-0.740571	-0.599956	0.585938	0.937500	-0.175781	398	17_11_23_0354420
-0.099609	-0.512695	0.316406	-0.365598	-0.749946	-0.590582	0.621094	0.902344	-0.164063	399	17_11_23_0515710
-0.079102	-0.533203	0.319336	-0.374973	-0.749946	-0.590582	0.574219	0.949219	-0.175781	400	17_11_23_0677000
-0.082031	-0.527344	0.313477	-0.374973	-0.740571	-0.590582	0.574219	0.902344	-0.187500	401	17_11_23_0838290
-0.087891	-0.524414	0.301758	-0.365598	-0.731197	-0.599956	0.914063	0.937500	0.152344	402	17_11_23_0999580
-0.082031	-0.521484	0.301758	-0.374973	-0.740571	-0.599956	0.585938	0.890625	-0.187500	403	17_11_23_1160870
-0.090820	-0.515625	0.301758	-0.374973	-0.749946	-0.599956	0.585938	0.808594	-0.175781	404	17_11_23_1322160
-0.084961	-0.515625	0.290039	-0.365598	-0.749946	-0.599956	0.609375	0.914063	-0.175781	405	17_11_23_1483450
-0.082031	-0.509766	0.290039	-0.365598	-0.759320	-0.599956	0.609375	0.902344	-0.187500	406	17_11_23_1644740
-0.087891	-0.503906	0.290039	-0.356224	-0.778068	-0.599956	0.609375	0.902344	-0.175781	407	17_11_23_1806030
-0.070313	-0.503906	0.284180	-0.356224	-0.778068	-0.599956	0.597656	0.773438	-0.175781	408	17_11_23_1967320
-0.067383	-0.495117	0.281250	-0.337475	-0.768694	-0.599956	0.925781	0.855469	-0.035156	409	17_11_23_2128610
-0.046875	-0.503906	0.281250	-0.337475	-0.731197	-0.609331	0.574219	0.914063	-0.152344	410	17_11_23_2289900
-0.046875	-0.515625	0.287109	-0.337475	-0.703074	-0.618705	0.890625	0.996094	-0.046875	411	17_11_23_2451190
-0.052734	-0.521484	0.290039	-0.346850	-0.693700	-0.628079	0.656250	0.937500	-0.152344	412	17_11_23_2612480
-0.064453	-0.515625	0.292969	-0.346850	-0.665577	-0.628079	0.750000	0.960938	0.222656	413	17_11_23_2773770
-0.076172	-0.533203	0.301758	-0.346850	-0.665577	-0.628079	0.597656	0.937500	-0.175781	414	17_11_23_2935060
-0.067383	-0.530273	0.307617	-0.356224	-0.665577	-0.618705	0.597656	0.925781	-0.175781	415	17_11_23_3096350
-0.073242	-0.524414	0.310547	-0.356224	-0.665577	-0.618705	0.597656	0.902344	-0.164063	416	17_11_23_3257640
-0.064453	-0.530273	0.310547	-0.356224	-0.674951	-0.609331	0.644531	0.890625	-0.152344	417	17_11_23_3418930
-0.079102	-0.527344	0.307617	-0.356224	-0.684325	-0.599956	0.597656	0.949219	-0.164063	418	17_11_23_3580220
-0.058594	-0.527344	0.307617	-0.365598	-0.693700	-0.599956	0.574219	0.890625	-0.187500	419	17_11_23_3741510
-0.064453	-0.512695	0.313477	-0.374973	-0.693700	-0.590582	1.031250	0.914063	-0.070313	420	17_11_23_3902800
-0.067383	-0.533203	0.295898	-0.374973	-0.693700	-0.599956	0.585938	0.902344	-0.187500	421	17_11_23_4064090
-0.070313	-0.524414	0.292969	-0.384347	-0.693700	-0.590582	1.042969	0.890625	0.070313	422	17_11_23_4225380
-0.087891	-0.512695	0.295898	-0.374973	-0.693700	-0.590582	0.562500	0.902344	-0.175781	423	17_11_23_4386670
-0.082031	-0.509766	0.301758	-0.374973	-0.703074	-0.590582	0.609375	0.960938	-0.187500	424	17_11_23_4547960
-0.087891	-0.515625	0.290039	-0.374973	-0.721823	-0.590582	0.597656	0.878906	0.128906	425	17_11_23_4709250
-0.093750	-0.503906	0.290039	-0.374973	-0.731197	-0.590582	0.597656	0.855469	-0.199219	426	17_11_23_4870540
-0.076172	-0.500977	0.290039	-0.365598	-0.731197	-0.590582	0.574219	0.832031	-0.199219	427	17_11_23_5031830
-0.073242	-0.509766	0.292969	-0.356224	-0.731197	-0.581208	0.574219	0.914063	-0.164063	428	17_11_23_5193120
-0.067383	-0.509766	0.281250	-0.346850	-0.731197	-0.590582	0.585938	0.843750	-0.175781	429	17_11_23_5354410
-0.055664	-0.503906	0.278320	-0.356224	-0.703074	-0.599956	0.937500	0.890625	-0.058594	430	17_11_23_5515700
-0.038086	-0.521484	0.292969	-0.346850	-0.693700	-0.599956	1.417969	0.855469	0.128906	431	17_11_23_5676990
-0.055664	-0.530273	0.292969	-0.365598	-0.665577	-0.609331	1.113281	0.843750	0.058594	432	17_11_23_5838280
-0.084961	-0.524414	0.301758	-0.356224	-0.665577	-0.618705	0.667969	0.867188	-0.175781	433	17_11_23_5999570
-0.087891	-0.527344	0.301758	-0.365598	-0.665577	-0.618705	0.597656	0.914063	-0.210938	434	17_11_23_6160860
-0.076172	-0.533203	0.307617	-0.365598	-0.674951	-0.609331	0.773438	0.937500	0.269531	435	17_11_23_6322150
-0.079102	-0.536133	0.313477	-0.365598	-0.684325	-0.609331	0.750000	0.914063	0.175781	436	17_11_23_6483440
-0.076172	-0.524414	0.307617	-0.365598	-0.684325	-0.599956	0.609375	0.902344	-0.164063	437	17_11_23_6644730
-0.082031	-0.533203	0.290039	-0.374973	-0.693700	-0.599956	0.621094	0.890625	-0.175781	438	17_11_23_6806020
-0.076172	-0.518555	0.304688	-0.374973	-0.693700	-0.599956	0.585938	0.832031	-0.199219	439	17_11_23_6967310
-0.073242	-0.518555	0.298828	-0.374973	-0.693700	-0.599956	0.597656	0.902344	-0.175781	440	17_11_23_7128600
-0.070313	-0.521484	0.301758	-0.374973	-0.693700	-0.599956	0.621094	0.867188	-0.175781	441	17_11_23_7289890
-0.076172	-0.512695	0.295898	-0.365598	-0.693700	-0.599956	0.574219	0.890625	-0.187500	442	17_11_23_7451180
-0.084961	-0.518555	0.295898	-0.365598	-0.693700	-0.628079	0.585938	0.867188	-0.175781	443	17_11_23_7612470
-0.076172	-0.509766	0.292969	-0.374973	-0.693700	-0.609331	0.609375	0.925781	-0.164063	444	17_11_23_7773760
-0.076172	-0.509766	0.290039	-0.365598	-0.684325	-0.609331	0.585938	0.914063	-0.164063	445	17_11_23_7935050
-0.070313	-0.521484	0.298828	-0.365598	-0.684325	-0.618705	0.574219	0.855469	-0.175781	446	17_11_23_8096340
-0.067383	-0.524414	0.301758	-0.365598	-0.674951	-0.628079	0.738281	0.843750	-0.140625	447	17_11_23_8257630
-0.093750	-0.515625	0.301758	-0.374973	-0.684325	-0.628079	0.621094	0.890625	-0.187500	448	17_11_23_8418920
-0.096680	-0.521484	0.298828	-0.374973	-0.684325	-0.628079	0.585938	0.960938	-0.152344	449	17_11_23_8580210
-0.076172	-0.524414	0.304688	-0.365598	-0.693700	-0.618705	0.621094	0.902344	-0.175781	450	17_11_23_8741500
-0.073242	-0.515625	0.298828	-0.365598	-0.693700	-0.618705	0.597656	0.855469	-0.187500	451	17_11_23_8902790
-0.070313	-0.521484	0.295898	-0.374973	-0.693700	-0.618705	0.644531	0.867188	-0.164063	452	17_11_23_9064080
-0.082031	-0.515625	0.301758	-0.374973	-0.693700	-0.618705	0.585938	0.890625	-0.187500	453	17_11_23_9225370
-0.076172	-0.527344	0.295898	-0.365598	-0.693700	-0.609331	0.585938	0.914063	-0.187500	454	17_11_23_9386660
-0.076172	-0.524414	0.298828	-0.365598	-0.674951	-0.609331	0.738281	0.925781	0.281250	455	17_11_23_9547950
-0.079102	-0.518555	0.295898	-0.374973	-0.693700	-0.609331	0.597656	0.937500	-0.199219	456	17_11_23_9709240
-0.082031	-0.530273	0.284180	-0.365598	-0.693700	-0.599956	0.597656	0.960938	0.070313	457	17_11_23_9870530
-0.076172	-0.512695	0.287109	-0.374973	-0.684325	-0.609331	0.574219	0.937500	-0.187500	458	17_11_24_0031820
-0.076172	-0.500977	0.298828	-0.365598	-0.674951	-0.599956	0.621094	0.855469	-0.164063	459	17_11_24_0193110
-0.076172	-0.518555	0.290039	-0.365598	-0.674951	-0.609331	0.609375	0.914063	-0.175781	460	17_11_24_0354400
-0.093750	-0.512695	0.287109	-0.365598	-0.674951	-0.609331	0.597656	0.960938	-0.187500	461	17_11_24_0515690
-0.102539	-0.503906	0.287109	-0.356224	-0.656202	-0.609331	0.585938	0.937500	-0.175781	462	17_11_24_0676980
-0.084961	-0.509766	0.298828	-0.356224	-0.665577	-0.618705	0.597656	0.937500	-0.175781	463	17_11_24_0838270
-0.099609	-0.521484	0.295898	-0.356224	-0.665577	-0.618705	0.621094	0.878906	-0.175781	464	17_11_24_0999560
-0.090820	-0.512695	0.313477	-0.365598	-0.656202	-0.628079	0.621094	0.925781	-0.175781	465	17_11_24_1160850
-0.093750	-0.518555	0.316406	-0.365598	-0.665577	-0.628079	0.597656	0.902344	0.210938	466	17_11_24_1322140
-0.111328	-0.509766	0.313477	-0.365598	-0.674951	-0.628079	0.574219	0.855469	-0.140625	467	17_11_24_1483430
-0.099609	-0.533203	0.304688	-0.365598	-0.703074	-0.618705	0.597656	0.914063	-0.093750	468	17_11_24_1644720
-0.084961	-0.527344	0.295898	-0.365598	-0.712448	-0.609331	0.621094	0.914063	-0.140625	469	17_11_24_1806010
-0.079102	-0.518555	0.304688	-0.365598	-0.712448	-0.609331	0.621094	0.937500	-0.175781	470	17_11_24_1967300
-0.084961	-0.527344	0.301758	-0.365598	-0.712448	-0.599956	0.597656	0.914063	-0.164063	471	17_11_24_2128590
-0.082031	-0.530273	0.292969	-0.374973	-0.703074	-0.609331	0.996094	0.902344	0.000000	472	17_11_24_2289880
-0.076172	-0.527344	0.307617	-0.374973	-0.703074	-0.618705	0.843750	0.914063	-0.070313	473	17_11_24_2451170
-0.084961	-0.512695	0.287109	-0.374973	-0.703074	-0.599956	0.609375	0.902344	-0.175781	474	17_11_24_2612460
-0.084961	-0.515625	0.301758	-0.374973	-0.693700	-0.599956	0.597656	0.937500	-0.187500	475	17_11_24_2773750
-0.087891	-0.518555	0.301758	-0.374973	-0.693700	-0.599956	0.585938	0.960938	-0.187500	476	17_11_24_2935040
-0.087891	-0.509766	0.292969	-0.374973	-0.703074	-0.599956	0.585938	0.937500	-0.164063	477	17_11_24_3096330
-0.090820	-0.509766	0.284180	-0.365598	-0.693700	-0.599956	0.609375	0.937500	-0.152344	478	17_11_24_3257620
-0.079102	-0.515625	0.295898	-0.374973	-0.693700	-0.599956	0.585938	0.925781	-0.175781	479	17_11_24_3418910
-0.093750	-0.512695	0.292969	-0.374973	-0.703074	-0.599956	0.609375	0.855469	-0.187500	480	17_11_24_3580200
-0.099609	-0.509766	0.295898	-0.374973	-0.703074	-0.599956	0.609375	0.890625	-0.199219	481	17_11_24_3741490
-0.087891	-0.521484	0.295898	-0.365598	-0.712448	-0.599956	0.609375	0.890625	-0.199219	482	17_11_24_3902780
-0.073242	-0.509766	0.304688	-0.365598	-0.703074	-0.590582	0.667969	0.914063	-0.175781	483	17_11_24_4064070
-0.087891	-0.509766	0.301758	-0.356224	-0.693700	-0.590582	0.597656	0.867188	-0.187500	484	17_11_24_4225360
-0.084961	-0.521484	0.292969	-0.356224	-0.693700	-0.599956	0.621094	0.890625	-0.187500	485	17_11_24_4386650
-0.084961	-0.524414	0.301758	-0.365598	-0.693700	-0.599956	0.585938	0.890625	-0.175781	486	17_11_24_4547940
-0.090820	-0.518555	0.295898	-0.365598	-0.684325	-0.599956	0.621094	0.867188	-0.187500	487	17_11_24_4709230
-0.096680	-0.515625	0.295898	-0.365598	-0.693700	-0.599956	0.621094	0.914063	-0.187500	488	17_11_24_4870520
-0.090820	-0.521484	0.301758	-0.365598	-0.693700	-0.609331	0.597656	0.890625	-0.164063	489	17_11_24_5031810
-0.084961	-0.518555	0.307617	-0.365598	-0.693700	-0.609331	0.585938	0.878906	-0.164063	490	17_11_24_5193100
-0.087891	-0.527344	0.307617	-0.365598	-0.693700	-0.609331	0.644531	0.878906	-0.175781	491	17_11_24_5354390
-0.090820	-0.515625	0.307617	-0.374973	-0.693700	-0.609331	0.621094	0.914063	-0.164063	492	17_11_24_5515680
-0.093750	-0.503906	0.301758	-0.365598	-0.703074	-0.609331	0.574219	0.949219	-0.175781	493	17_11_24_5676970
-0.090820	-0.512695	0.301758	-0.365598	-0.703074	-0.609331	0.597656	0.902344	-0.175781	494	17_11_24_5838260
-0.093750	-0.506836	0.292969	-0.365598	-0.693700	-0.618705	0.621094	0.925781	-0.164063	495	17_11_24_5999550
-0.105469	-0.515625	0.292969	-0.365598	-0.693700	-0.618705	0.855469	0.902344	0.000000	496	17_11_24_6160840
-0.096680	-0.506836	0.290039	-0.356224	-0.674951	-0.618705	0.585938	0.914063	-0.199219	497	17_11_24_6322130
-0.102539	-0.509766	0.278320	-0.356224	-0.674951	-0.628079	0.703125	0.914063	-0.128906	498	17_11_24_6483420
-0.096680	-0.503906	0.301758	-0.356224	-0.684325	-0.628079	0.597656	0.914063	-0.140625	499	17_11_24_6644710
-0.096680	-0.503906	0.295898	-0.356224	-0.684325	-0.637454	0.597656	0.960938	-0.152344	500	17_11_24_6806000
-0.087891	-0.521484	0.295898	-0.356224	-0.684325	-0.628079	0.585938	0.960938	-0.175781	501	17_11_24_6967290
-0.105469	-0.512695	0.295898	-0.346850	-0.693700	-0.628079	0.609375	0.949219	-0.175781	502	17_11_24_7128580
-0.087891	-0.521484	0.290039	-0.356224	-0.693700	-0.628079	0.644531	0.937500	-0.164063	503	17_11_24_7289870
-0.087891	-0.524414	0.304688	-0.346850	-0.703074	-0.618705	0.585938	0.867188	-0.199219	504	17_11_24_7451160
-0.079102	-0.527344	0.307617	-0.356224	-0.703074	-0.618705	0.667969	0.914063	-0.175781	505	17_11_24_7612450
-0.090820	-0.527344	0.295898	-0.356224	-0.703074	-0.609331	0.597656	0.902344	-0.164063	506	17_11_24_7773740
-0.084961	-0.533203	0.290039	-0.356224	-0.712448	-0.599956	0.621094	0.937500	-0.164063	507	17_11_24_7935030
-0.099609	-0.527344	0.284180	-0.356224	-0.712448	-0.599956	0.609375	0.949219	-0.164063	508	17_11_24_8096320
-0.084961	-0.521484	0.304688	-0.365598	-0.693700	-0.599956	0.714844	0.960938	-0.140625	509	17_11_24_8257610
-0.099609	-0.527344	0.304688	-0.356224	-0.693700	-0.599956	0.878906	0.914063	-0.058594	510	17_11_24_8418900
-0.108398	-0.527344	0.292969	-0.365598	-0.684325	-0.599956	0.609375	0.855469	-0.199219	511	17_11_24_8580190
-0.108398	-0.509766	0.301758	-0.365598	-0.684325	-0.599956	0.609375	0.832031	-0.187500	512	17_11_24_8741480
-0.111328	-0.524414	0.295898	-0.365598	-0.693700	-0.599956	0.644531	0.867188	-0.164063	513	17_11_24_8902770
-0.099609	-0.521484	0.301758	-0.374973	-0.703074	-0.599956	0.609375	0.914063	-0.175781	514	17_11_24_9064060
-0.093750	-0.512695	0.290039	-0.365598	-0.703074	-0.599956	0.585938	0.914063	-0.187500	515	17_11_24_9225350
-0.093750	-0.521484	0.301758	-0.365598	-0.693700	-0.599956	0.585938	0.949219	-0.164063	516	17_11_24_9386640
-0.093750	-0.515625	0.298828	-0.365598	-0.684325	-0.599956	0.867188	0.937500	0.000000	517	17_11_24_9547930
-0.099609	-0.503906	0.295898	-0.365598	-0.674951	-0.590582	0.585938	0.914063	-0.140625	518	17_11_24_9709220
-0.090820	-0.509766	0.292969	-0.365598	-0.693700	-0.590582	0.597656	0.960938	-0.140625	519	17_11_24_9870510
-0.102539	-0.512695	0.295898	-0.356224	-0.712448	-0.590582	0.585938	0.960938	-0.187500	520	17_11_25_0031800
-0.102539	-0.521484	0.290039	-0.356224	-0.721823	-0.590582	0.585938	0.890625	-0.164063	521	17_11_25_0193090
-0.087891	-0.521484	0.278320	-0.365598	-0.712448	-0.599956	0.609375	0.843750	-0.140625	522	17_11_25_0354380
-0.099609	-0.521484	0.281250	-0.356224	-0.703074	-0.599956	0.644531	0.820313	-0.152344	523	17_11_25_0515670
-0.082031	-0.509766	0.275391	-0.356224	-0.693700	-0.609331	0.597656	0.867188	-0.152344	524	17_11_25_0676960
-0.087891	-0.521484	0.287109	-0.356224	-0.674951	-0.609331	0.609375	0.867188	-0.175781	525	17_11_25_0838250
-0.084961	-0.515625	0.284180	-0.365598	-0.674951	-0.609331	0.609375	0.902344	-0.175781	526	17_11_25_0999540
-0.102539	-0.509766	0.290039	-0.365598	-0.684325	-0.609331	0.585938	0.949219	-0.175781	527	17_11_25_1160830
-0.105469	-0.518555	0.295898	-0.365598	-0.693700	-0.599956	0.656250	0.960938	0.257813	528	17_11_25_1322120
-0.093750	-0.515625	0.298828	-0.356224	-0.703074	-0.599956	0.597656	0.902344	-0.152344	529	17_11_25_1483410
-0.079102	-0.527344	0.292969	-0.356224	-0.731197	-0.590582	0.585938	0.914063	-0.187500	530	17_11_25_1644700
-0.076172	-0.512695	0.290039	-0.356224	-0.749946	-0.571833	0.609375	0.960938	-0.175781	531	17_11_25_1805990
-0.076172	-0.527344	0.287109	-0.346850	-0.740571	-0.571833	0.597656	0.937500	-0.152344	532	17_11_25_1967280
-0.061523	-0.530273	0.292969	-0.356224	-0.731197	-0.571833	0.597656	0.855469	-0.175781	533	17_11_25_2128570
-0.076172	-0.527344	0.281250	-0.356224	-0.703074	-0.571833	0.597656	0.925781	-0.164063	534	17_11_25_2289860
-0.076172	-0.527344	0.284180	-0.365598	-0.684325	-0.581208	0.609375	0.972656	-0.187500	535	17_11_25_2451150
-0.093750	-0.527344	0.287109	-0.356224	-0.674951	-0.581208	0.574219	0.960938	-0.199219	536	17_11_25_2612440
-0.111328	-0.530273	0.290039	-0.365598	-0.674951	-0.581208	0.585938	0.972656	-0.187500	537	17_11_25_2773730
-0.105469	-0.518555	0.290039	-0.365598	-0.674951	-0.590582	0.773438	0.949219	0.152344	538	17_11_25_2935020
-0.096680	-0.521484	0.298828	-0.365598	-0.684325	-0.590582	0.585938	0.843750	-0.164063	539	17_11_25_3096310
-0.087891	-0.521484	0.292969	-0.356224	-0.684325	-0.590582	0.597656	0.820313	-0.175781	540	17_11_25_3257600
-0.090820	-0.524414	0.304688	-0.365598	-0.674951	-0.599956	0.585938	0.902344	-0.175781	541	17_11_25_3418890
-0.076172	-0.521484	0.313477	-0.374973	-0.684325	-0.599956	0.937500	0.960938	-0.058594	542	17_11_25_3580180
-0.093750	-0.530273	0.298828	-0.374973	-0.693700	-0.599956	0.621094	0.937500	-0.199219	543	17_11_25_3741470
-0.079102	-0.533203	0.301758	-0.384347	-0.693700	-0.581208	0.585938	0.937500	-0.222656	544	17_11_25_3902760
-0.087891	-0.521484	0.292969	-0.374973	-0.703074	-0.571833	0.609375	0.914063	-0.199219	545	17_11_25_4064050
-0.099609	-0.521484	0.292969	-0.384347	-0.721823	-0.581208	0.585938	0.914063	-0.175781	546	17_11_25_4225340
-0.090820	-0.521484	0.295898	-0.384347	-0.731197	-0.571833	0.585938	0.937500	-0.210938	547	17_11_25_4386630
-0.087891	-0.524414	0.290039	-0.384347	-0.731197	-0.581208	0.574219	0.914063	-0.210938	548	17_11_25_4547920
-0.084961	-0.518555	0.290039	-0.384347	-0.731197	-0.581208	0.597656	0.949219	-0.199219	549	17_11_25_4709210
-0.093750	-0.515625	0.278320	-0.384347	-0.731197	-0.590582	0.574219	0.914063	-0.187500	550	17_11_25_4870500
-0.087891	-0.515625	0.284180	-0.374973	-0.721823	-0.609331	0.585938	0.902344	-0.187500	551	17_11_25_5031790
-0.087891	-0.509766	0.284180	-0.365598	-0.712448	-0.599956	0.574219	0.984375	-0.152344	552	17_11_25_5193080
-0.070313	-0.521484	0.284180	-0.356224	-0.693700	-0.609331	0.820313	0.914063	-0.093750	553	17_11_25_5354370
-0.067383	-0.512695	0.301758	-0.365598	-0.693700	-0.618705	0.585938	0.890625	-0.175781	554	17_11_25_5515660
-0.076172	-0.515625	0.292969	-0.365598	-0.674951	-0.618705	0.597656	0.914063	-0.175781	555	17_11_25_5676950
-0.082031	-0.518555	0.301758	-0.365598	-0.665577	-0.618705	0.597656	0.878906	-0.187500	556	17_11_25_5838240
-0.079102	-0.521484	0.301758	-0.356224	-0.665577	-0.628079	1.160156	0.855469	0.046875	557	17_11_25_5999530
-0.102539	-0.527344	0.301758	-0.356224	-0.665577	-0.628079	0.585938	0.949219	-0.152344	558	17_11_25_6160820
-0.090820	-0.527344	0.301758	-0.365598	-0.674951	-0.628079	0.609375	0.949219	-0.140625	559	17_11_25_6322110
-0.099609	-0.533203	0.295898	-0.365598	-0.684325	-0.628079	0.703125	0.867188	-0.128906	560	17_11_25_6483400
-0.082031	-0.524414	0.301758	-0.374973	-0.684325	-0.628079	0.796875	0.878906	0.199219	561	17_11_25_6644690
-0.105469	-0.530273	0.301758	-0.374973	-0.684325	-0.628079	0.585938	0.914063	-0.164063	562	17_11_25_6805980
-0.087891	-0.524414	0.301758	-0.374973	-0.693700	-0.628079	0.585938	0.914063	-0.152344	563	17_11_25_6967270
-0.084961	-0.515625	0.292969	-0.365598	-0.703074	-0.628079	0.609375	0.902344	-0.164063	564	17_11_25_7128560
-0.082031	-0.521484	0.292969	-0.365598	-0.703074	-0.628079	0.609375	0.937500	-0.187500	565	17_11_25_7289850
-0.096680	-0.541992	0.304688	-0.365598	-0.712448	-0.628079	0.574219	0.925781	-0.175781	566	17_11_25_7451140
-0.087891	-0.536133	0.313477	-0.374973	-0.712448	-0.618705	0.597656	0.925781	-0.175781	567	17_11_25_7612430
-0.108398	-0.530273	0.301758	-0.365598	-0.712448	-0.618705	0.644531	0.914063	-0.199219	568	17_11_25_7773720
-0.093750	-0.512695	0.295898	-0.374973	-0.721823	-0.609331	0.609375	0.902344	-0.199219	569	17_11_25_7935010
-0.079102	-0.521484	0.301758	-0.374973	-0.721823	-0.609331	0.585938	0.843750	-0.199219	570	17_11_25_8096300
-0.079102	-0.521484	0.292969	-0.374973	-0.712448	-0.609331	0.738281	0.855469	-0.152344	571	17_11_25_8257590
-0.079102	-0.515625	0.292969	-0.393721	-0.703074	-0.628079	0.597656	0.914063	-0.175781	572	17_11_25_8418880
-0.084961	-0.515625	0.290039	-0.393721	-0.703074	-0.618705	0.597656	0.914063	-0.175781	573	17_11_25_8580170
-0.090820	-0.509766	0.290039	-0.393721	-0.712448	-0.618705	0.609375	0.925781	-0.175781	574	17_11_25_8741460
-0.093750	-0.498047	0.290039	-0.384347	-0.712448	-0.609331	1.007813	0.949219	-0.035156	575	17_11_25_8902750
-0.084961	-0.503906	0.287109	-0.374973	-0.712448	-0.618705	0.621094	0.890625	-0.175781	576	17_11_25_9064040
-0.087891	-0.506836	0.281250	-0.374973	-0.712448	-0.618705	0.597656	0.902344	-0.187500	577	17_11_25_9225330
-0.079102	-0.500977	0.292969	-0.374973	-0.703074	-0.618705	1.230469	0.843750	0.093750	578	17_11_25_9386620
-0.082031	-0.515625	0.290039	-0.365598	-0.703074	-0.609331	0.667969	0.878906	-0.152344	579	17_11_25_9547910
-0.079102	-0.503906	0.284180	-0.365598	-0.703074	-0.609331	0.703125	0.925781	0.234375	580	17_11_25_9709200
-0.076172	-0.521484	0.284180	-0.356224	-0.693700	-0.609331	0.585938	0.925781	-0.199219	581	17_11_25_9870490
-0.084961	-0.527344	0.295898	-0.356224	-0.693700	-0.599956	0.632813	0.914063	-0.175781	582	17_11_26_0031780
-0.087891	-0.521484	0.292969	-0.365598	-0.693700	-0.590582	0.691406	0.914063	-0.105469	583	17_11_26_0193070
-0.090820	-0.515625	0.304688	-0.356224	-0.693700	-0.599956	0.644531	0.914063	-0.164063	584	17_11_26_0354360
-0.087891	-0.515625	0.301758	-0.356224	-0.693700	-0.599956	0.609375	0.855469	-0.164063	585	17_11_26_0515650
-0.090820	-0.521484	0.295898	-0.356224	-0.693700	-0.590582	0.621094	0.867188	-0.164063	586	17_11_26_0676940
-0.102539	-0.518555	0.287109	-0.356224	-0.693700	-0.599956	0.632813	0.949219	-0.152344	587	17_11_26_0838230
-0.093750	-0.521484	0.304688	-0.356224	-0.693700	-0.599956	0.585938	0.937500	-0.164063	588	17_11_26_0999520
-0.099609	-0.524414	0.307617	-0.356224	-0.684325	-0.609331	0.574219	0.972656	-0.175781	589	17_11_26_1160810
-0.099609	-0.533203	0.304688	-0.365598	-0.684325	-0.609331	0.867188	0.937500	0.152344	590	17_11_26_1322100
-0.120117	-0.521484	0.313477	-0.374973	-0.693700	-0.599956	0.621094	0.960938	0.070313	591	17_11_26_1483390
-0.111328	-0.521484	0.301758	-0.356224	-0.703074	-0.599956	0.585938	0.867188	-0.175781	592	17_11_26_1644680
-0.105469	-0.512695	0.307617	-0.365598	-0.693700	-0.599956	0.785156	0.972656	0.058594	593	17_11_26_1805970
-0.090820	-0.521484	0.310547	-0.365598	-0.684325	-0.609331	0.597656	1.007813	-0.164063	594	17_11_26_1967260
-0.111328	-0.521484	0.301758	-0.365598	-0.693700	-0.609331	0.621094	0.972656	-0.175781	595	17_11_26_2128550
-0.105469	-0.527344	0.301758	-0.365598	-0.693700	-0.618705	0.597656	0.843750	-0.175781	596	17_11_26_2289840
-0.099609	-0.506836	0.292969	-0.365598	-0.703074	-0.609331	0.609375	0.832031	-0.187500	597	17_11_26_2451130
-0.087891	-0.521484	0.295898	-0.356224	-0.703074	-0.609331	0.585938	0.878906	-0.164063	598	17_11_26_2612420
-0.102539	-0.509766	0.301758	-0.356224	-0.693700	-0.609331	0.597656	0.914063	-0.187500	599	17_11_26_2773710
-0.087891	-0.512695	0.284180	-0.356224	-0.684325	-0.609331	0.585938	0.878906	-0.210938	600	17_11_26_2935000
-0.087891	-0.506836	0.295898	-0.356224	-0.684325	-0.609331	0.750000	0.914063	0.257813	601	17_11_26_3096290
-0.093750	-0.503906	0.298828	-0.356224	-0.665577	-0.609331	0.621094	0.890625	-0.175781	602	17_11_26_3257580
-0.102539	-0.515625	0.295898	-0.356224	-0.674951	-0.609331	0.667969	0.832031	-0.164063	603	17_11_26_3418870
-0.090820	-0.521484	0.290039	-0.346850	-0.684325	-0.618705	0.644531	0.925781	-0.187500	604	17_11_26_3580160
-0.096680	-0.515625	0.298828	-0.346850	-0.693700	-0.609331	0.585938	0.914063	-0.175781	605	17_11_26_3741450
-0.079102	-0.530273	0.284180	-0.346850	-0.693700	-0.599956	0.597656	0.925781	-0.199219	606	17_11_26_3902740
-0.087891	-0.527344	0.292969	-0.356224	-0.703074	-0.590582	0.609375	0.937500	-0.187500	607	17_11_26_4064030
-0.117188	-0.524414	0.284180	-0.356224	-0.721823	-0.590582	1.054688	0.925781	0.000000	608	17_11_26_4225320
-0.108398	-0.512695	0.281250	-0.346850	-0.740571	-0.571833	0.585938	0.855469	-0.175781	609	17_11_26_4386610
-0.079102	-0.509766	0.292969	-0.346850	-0.731197	-0.571833	0.644531	0.878906	-0.152344	610	17_11_26_4547900
-0.067383	-0.512695	0.287109	-0.346850	-0.703074	-0.590582	0.585938	0.902344	-0.199219	611	17_11_26_4709190
-0.076172	-0.527344	0.292969	-0.356224	-0.674951	-0.599956	0.597656	0.914063	-0.164063	612	17_11_26_4870480
-0.096680	-0.527344	0.284180	-0.356224	-0.674951	-0.609331	0.714844	0.890625	0.152344	613	17_11_26_5031770
-0.114258	-0.533203	0.284180	-0.356224	-0.674951	-0.609331	0.750000	0.878906	-0.140625	614	17_11_26_5193060
-0.114258	-0.524414	0.295898	-0.356224	-0.693700	-0.609331	0.820313	0.914063	-0.093750	615	17_11_26_5354350
-0.114258	-0.527344	0.292969	-0.356224	-0.703074	-0.599956	0.597656	0.855469	-0.164063	616	17_11_26_5515640
-0.087891	-0.533203	0.295898	-0.356224	-0.712448	-0.599956	0.609375	0.867188	-0.164063	617	17_11_26_5676930
-0.093750	-0.533203	0.301758	-0.365598	-0.712448	-0.599956	0.609375	0.925781	-0.175781	618	17_11_26_5838220
-0.087891	-0.524414	0.301758	-0.365598	-0.721823	-0.590582	0.609375	0.960938	-0.187500	619	17_11_26_5999510
-0.090820	-0.521484	0.292969	-0.374973	-0.721823	-0.599956	0.585938	0.984375	-0.199219	620	17_11_26_6160800
-0.082031	-0.521484	0.295898	-0.374973	-0.721823	-0.599956	0.609375	0.902344	-0.164063	621	17_11_26_6322090
-0.076172	-0.506836	0.290039	-0.374973	-0.712448	-0.590582	0.726563	0.808594	0.398438	622	17_11_26_6483380
-0.084961	-0.527344	0.284180	-0.374973	-0.721823	-0.590582	0.574219	0.843750	-0.175781	623	17_11_26_6644670
-0.087891	-0.515625	0.290039	-0.365598	-0.712448	-0.571833	0.714844	0.914063	0.058594	624	17_11_26_6805960
-0.087891	-0.515625	0.290039	-0.365598	-0.712448	-0.590582	0.574219	0.890625	-0.175781	625	17_11_26_6967250
-0.079102	-0.515625	0.278320	-0.365598	-0.703074	-0.599956	0.597656	0.843750	-0.175781	626	17_11_26_7128540
-0.087891	-0.521484	0.295898	-0.365598	-0.703074	-0.599956	0.585938	0.855469	-0.175781	627	17_11_26_7289830
-0.096680	-0.515625	0.292969	-0.365598	-0.693700	-0.599956	0.597656	0.878906	-0.187500	628	17_11_26_7451120
-0.093750	-0.521484	0.290039	-0.365598	-0.693700	-0.599956	0.621094	0.937500	-0.187500	629	17_11_26_7612410
-0.093750	-0.509766	0.290039	-0.365598	-0.693700	-0.599956	0.585938	0.949219	-0.175781	630	17_11_26_7773700
-0.087891	-0.521484	0.292969	-0.365598	-0.693700	-0.609331	1.042969	0.960938	0.140625	631	17_11_26_7934990
-0.082031	-0.515625	0.292969	-0.365598	-0.693700	-0.609331	0.785156	0.902344	0.199219	632	17_11_26_8096280
-0.082031	-0.518555	0.295898	-0.365598	-0.703074	-0.599956	0.726563	0.937500	-0.140625	633	17_11_26_8257570
-0.087891	-0.515625	0.290039	-0.365598	-0.703074	-0.599956	0.832031	0.949219	0.187500	634	17_11_26_8418860
-0.070313	-0.515625	0.301758	-0.365598	-0.712448	-0.590582	0.597656	0.960938	-0.175781	635	17_11_26_8580150
-0.079102	-0.518555	0.295898	-0.365598	-0.703074	-0.590582	0.621094	0.925781	-0.187500	636	17_11_26_8741440
-0.087891	-0.524414	0.287109	-0.374973	-0.693700	-0.590582	0.597656	0.925781	-0.187500	637	17_11_26_8902730
-0.087891	-0.527344	0.281250	-0.374973	-0.703074	-0.590582	0.621094	0.914063	-0.175781	638	17_11_26_9064020
-0.076172	-0.527344	0.284180	-0.365598	-0.703074	-0.590582	0.597656	0.878906	-0.164063	639	17_11_26_9225310
-0.067383	-0.521484	0.290039	-0.365598	-0.693700	-0.590582	0.609375	0.890625	-0.164063	640	17_11_26_9386600
-0.076172	-0.521484	0.295898	-0.365598	-0.684325	-0.590582	0.632813	0.960938	-0.175781	641	17_11_26_9547890
-0.084961	-0.521484	0.295898	-0.374973	-0.693700	-0.590582	0.609375	0.960938	-0.187500	642	17_11_26_9709180
-0.090820	-0.518555	0.292969	-0.365598	-0.693700	-0.590582	0.585938	0.902344	-0.152344	643	17_11_26_9870470
-0.084961	-0.521484	0.304688	-0.365598	-0.693700	-0.581208	0.585938	0.960938	-0.152344	644	17_11_27_0031760
-0.087891	-0.509766	0.292969	-0.365598	-0.703074	-0.590582	0.621094	0.949219	-0.152344	645	17_11_27_0193050
-0.090820	-0.524414	0.290039	-0.374973	-0.693700	-0.590582	0.621094	1.019531	-0.164063	646	17_11_27_0354340
-0.076172	-0.518555	0.290039	-0.365598	-0.703074	-0.590582	0.574219	0.949219	-0.199219	647	17_11_27_0515630
-0.087891	-0.515625	0.292969	-0.365598	-0.693700	-0.599956	0.574219	0.949219	-0.187500	648	17_11_27_0676920
-0.087891	-0.521484	0.290039	-0.365598	-0.693700	-0.599956	0.609375	0.972656	-0.164063	649	17_11_27_0838210
-0.087891	-0.509766	0.292969	-0.365598	-0.693700	-0.609331	0.609375	0.949219	-0.175781	650	17_11_27_0999500
-0.096680	-0.521484	0.290039	-0.365598	-0.693700	-0.609331	0.597656	0.937500	-0.175781	651	17_11_27_1160790
-0.090820	-0.527344	0.301758	-0.365598	-0.693700	-0.599956	0.644531	0.925781	-0.175781	652	17_11_27_1322080
-0.096680	-0.515625	0.301758	-0.374973	-0.703074	-0.599956	0.574219	0.937500	-0.175781	653	17_11_27_1483370
-0.084961	-0.515625	0.301758	-0.365598	-0.703074	-0.599956	0.750000	0.867188	-0.105469	654	17_11_27_1644660
-0.079102	-0.512695	0.295898	-0.365598	-0.712448	-0.599956	0.609375	0.867188	-0.152344	655	17_11_27_1805950
-0.067383	-0.509766	0.295898	-0.365598	-0.712448	-0.599956	0.609375	0.867188	-0.175781	656	17_11_27_1967240
-0.070313	-0.515625	0.295898	-0.365598	-0.712448	-0.599956	0.574219	0.925781	-0.175781	657	17_11_27_2128530
-0.061523	-0.515625	0.287109	-0.365598	-0.703074	-0.599956	0.609375	0.914063	-0.140625	658	17_11_27_2289820
-0.070313	-0.518555	0.292969	-0.365598	-0.693700	-0.599956	0.972656	0.878906	-0.035156	659	17_11_27_2451110
-0.079102	-0.515625	0.281250	-0.365598	-0.684325	-0.609331	0.574219	0.890625	-0.210938	660	17_11_27_2612400
-0.076172	-0.521484	0.284180	-0.365598	-0.674951	-0.609331	0.597656	0.914063	-0.210938	661	17_11_27_2773690
-0.067383	-0.536133	0.284180	-0.356224	-0.674951	-0.599956	1.136719	0.914063	0.105469	662	17_11_27_2934980
-0.073242	-0.521484	0.287109	-0.356224	-0.674951	-0.599956	0.597656	0.890625	-0.187500	663	17_11_27_3096270
-0.067383	-0.521484	0.284180	-0.356224	-0.665577	-0.599956	0.644531	0.914063	0.246094	664	17_11_27_3257560
-0.067383	-0.521484	0.290039	-0.365598	-0.665577	-0.599956	0.597656	0.914063	-0.199219	665	17_11_27_3418850
-0.076172	-0.527344	0.292969	-0.356224	-0.674951	-0.599956	0.750000	0.867188	0.023438	666	17_11_27_3580140
-0.084961	-0.533203	0.290039	-0.365598	-0.674951	-0.599956	0.597656	0.832031	-0.175781	667	17_11_27_3741430
-0.102539	-0.530273	0.295898	-0.365598	-0.693700	-0.590582	0.597656	0.914063	-0.175781	668	17_11_27_3902720
-0.099609	-0.524414	0.290039	-0.365598	-0.693700	-0.590582	0.609375	0.937500	-0.175781	669	17_11_27_4064010
-0.082031	-0.518555	0.304688	-0.374973	-0.703074	-0.590582	0.937500	0.949219	-0.058594	670	17_11_27_4225300
-0.087891	-0.515625	0.298828	-0.374973	-0.731197	-0.599956	0.609375	0.949219	-0.199219	671	17_11_27_4386590
-0.079102	-0.521484	0.292969	-0.374973	-0.693700	-0.599956	0.597656	0.937500	-0.187500	672	17_11_27_4547880
-0.082031	-0.521484	0.301758	-0.374973	-0.674951	-0.609331	0.585938	0.984375	-0.187500	673	17_11_27_4709170
-0.087891	-0.518555	0.310547	-0.374973	-0.674951	-0.609331	0.691406	0.902344	-0.152344	674	17_11_27_4870460
-0.090820	-0.515625	0.292969	-0.374973	-0.684325	-0.609331	0.609375	0.867188	-0.175781	675	17_11_27_5031750
-0.090820	-0.521484	0.301758	-0.384347	-0.693700	-0.609331	0.597656	0.867188	0.035156	676	17_11_27_5193040
-0.084961	-0.521484	0.298828	-0.374973	-0.693700	-0.609331	0.773438	0.937500	-0.117188	677	17_11_27_5354330
-0.076172	-0.521484	0.298828	-0.374973	-0.693700	-0.609331	0.597656	0.937500	-0.175781	678	17_11_27_5515620
-0.073242	-0.524414	0.287109	-0.374973	-0.693700	-0.599956	0.597656	0.890625	-0.140625	679	17_11_27_5676910
-0.073242	-0.521484	0.292969	-0.384347	-0.693700	-0.599956	0.632813	0.855469	-0.128906	680	17_11_27_5838200
-0.067383	-0.518555	0.295898	-0.374973	-0.693700	-0.599956	0.574219	0.867188	-0.175781	681	17_11_27_5999490
-0.076172	-0.509766	0.287109	-0.374973	-0.684325	-0.599956	0.574219	0.890625	-0.164063	682	17_11_27_6160780
-0.070313	-0.524414	0.290039	-0.374973	-0.693700	-0.599956	0.574219	0.914063	-0.187500	683	17_11_27_6322070
-0.084961	-0.512695	0.287109	-0.374973	-0.684325	-0.599956	0.574219	0.925781	-0.187500	684	17_11_27_6483360
-0.076172	-0.512695	0.290039	-0.365598	-0.693700	-0.590582	0.597656	0.902344	-0.175781	685	17_11_27_6644650
-0.079102	-0.515625	0.290039	-0.365598	-0.693700	-0.599956	0.726563	0.878906	-0.128906	686	17_11_27_6805940
-0.058594	-0.512695	0.287109	-0.365598	-0.693700	-0.599956	0.574219	0.914063	-0.164063	687	17_11_27_6967230
-0.046875	-0.509766	0.301758	-0.365598	-0.703074	-0.581208	0.597656	0.972656	-0.152344	688	17_11_27_7128520
-0.035156	-0.509766	0.295898	-0.374973	-0.703074	-0.562459	0.609375	0.925781	-0.152344	689	17_11_27_7289810
-0.038086	-0.518555	0.292969	-0.365598	-0.693700	-0.553085	0.902344	0.902344	-0.058594	690	17_11_27_7451100
-0.061523	-0.533203	0.298828	-0.365598	-0.693700	-0.553085	0.597656	0.914063	-0.164063	691	17_11_27_7612390
-0.061523	-0.533203	0.295898	-0.356224	-0.674951	-0.543711	0.609375	0.925781	-0.164063	692	17_11_27_7773680
-0.070313	-0.536133	0.290039	-0.365598	-0.656202	-0.553085	0.609375	0.878906	-0.187500	693	17_11_27_7934970
-0.064453	-0.527344	0.287109	-0.365598	-0.646828	-0.553085	0.585938	0.890625	-0.187500	694	17_11_27_8096260
-0.087891	-0.498047	0.284180	-0.365598	-0.637454	-0.553085	0.585938	0.925781	0.292969	695	17_11_27_8257550
-0.079102	-0.492188	0.287109	-0.365598	-0.637454	-0.553085	0.585938	0.902344	-0.187500	696	17_11_27_8418840
-0.055664	-0.489258	0.284180	-0.374973	-0.637454	-0.553085	0.585938	0.890625	-0.199219	697	17_11_27_8580130
-0.064453	-0.492188	0.263672	-0.393721	-0.628079	-0.553085	0.562500	0.902344	-0.164063	698	17_11_27_8741420
-0.067383	-0.500977	0.269531	-0.393721	-0.637454	-0.553085	0.597656	0.890625	-0.175781	699	17_11_27_8902710
-0.087891	-0.492188	0.272461	-0.384347	-0.609331	-0.562459	0.562500	0.808594	-0.164063	700	17_11_27_9064000
-0.052734	-0.503906	0.298828	-0.384347	-0.581208	-0.571833	0.773438	0.867188	-0.093750	701	17_11_27_9225290
-0.029297	-0.515625	0.319336	-0.356224	-0.515588	-0.581208	0.621094	0.925781	-0.187500	702	17_11_27_9386580
-0.029297	-0.503906	0.310547	-0.346850	-0.440593	-0.599956	0.597656	0.914063	-0.164063	703	17_11_27_9547870
-0.055664	-0.524414	0.290039	-0.346850	-0.431219	-0.590582	1.031250	0.843750	0.152344	704	17_11_27_9709160
-0.087891	-0.518555	0.263672	-0.356224	-0.431219	-0.590582	0.609375	0.867188	-0.175781	705	17_11_27_9870450
-0.117188	-0.509766	0.246094	-0.374973	-0.449967	-0.581208	0.585938	0.914063	-0.152344	706	17_11_28_0031740
-0.093750	-0.515625	0.260742	-0.374973	-0.506213	-0.571833	0.585938	0.902344	-0.152344	707	17_11_28_0193030
-0.070313	-0.512695	0.307617	-0.365598	-0.478090	-0.581208	0.738281	0.949219	-0.105469	708	17_11_28_0354320
-0.023438	-0.521484	0.336914	-0.365598	-0.393721	-0.599956	0.574219	0.914063	-0.164063	709	17_11_28_0515610
-0.014648	-0.524414	0.319336	-0.365598	-0.356224	-0.581208	0.585938	0.867188	-0.164063	710	17_11_28_0676900
-0.073242	-0.539063	0.266602	-0.365598	-0.393721	-0.581208	0.597656	0.949219	-0.175781	711	17_11_28_0838190
-0.123047	-0.539063	0.246094	-0.384347	-0.431219	-0.553085	0.562500	0.960938	-0.187500	712	17_11_28_0999480
-0.123047	-0.521484	0.251953	-0.403096	-0.487465	-0.543711	0.562500	0.914063	-0.175781	713	17_11_28_1160770
-0.087891	-0.533203	0.298828	-0.393721	-0.534336	-0.515588	0.574219	0.949219	-0.187500	714	17_11_28_1322060
-0.055664	-0.515625	0.304688	-0.393721	-0.478090	-0.506213	0.562500	0.960938	-0.187500	715	17_11_28_1483350
-0.026367	-0.515625	0.284180	-0.356224	-0.468716	-0.496839	0.609375	0.937500	-0.175781	716	17_11_28_1644640
-0.052734	-0.527344	0.254883	-0.365598	-0.478090	-0.496839	0.562500	0.925781	-0.164063	717	17_11_28_1805930
-0.064453	-0.530273	0.275391	-0.356224	-0.459342	-0.487465	0.738281	0.914063	-0.093750	718	17_11_28_1967220
-0.067383	-0.541992	0.260742	-0.356224	-0.468716	-0.478090	0.761719	0.878906	-0.117188	719	17_11_28_2128510
-0.090820	-0.553711	0.263672	-0.365598	-0.496839	-0.478090	0.585938	0.937500	-0.187500	720	17_11_28_2289800
-0.096680	-0.536133	0.278320	-0.365598	-0.506213	-0.468716	0.562500	0.984375	-0.175781	721	17_11_28_2451090
-0.090820	-0.521484	0.269531	-0.365598	-0.487465	-0.459342	0.562500	0.914063	-0.152344	722	17_11_28_2612380
-0.093750	-0.500977	0.249023	-0.337475	-0.506213	-0.440593	1.054688	0.914063	0.035156	723	17_11_28_2773670
-0.090820	-0.521484	0.240234	-0.318727	-0.534336	-0.440593	0.574219	0.890625	-0.175781	724	17_11_28_2934960
-0.079102	-0.536133	0.243164	-0.328101	-0.524962	-0.449967	0.562500	0.820313	-0.187500	725	17_11_28_3096250
-0.067383	-0.521484	0.254883	-0.318727	-0.496839	-0.449967	0.550781	0.855469	-0.187500	726	17_11_28_3257540
-0.067383	-0.527344	0.260742	-0.318727	-0.468716	-0.468716	0.562500	0.914063	-0.199219	727	17_11_28_3418830
-0.090820	-0.530273	0.251953	-0.299978	-0.459342	-0.478090	0.656250	0.937500	0.093750	728	17_11_28_3580120
-0.093750	-0.527344	0.257813	-0.290604	-0.440593	-0.487465	0.539063	0.867188	-0.187500	729	17_11_28_3741410
-0.111328	-0.521484	0.243164	-0.281230	-0.449967	-0.487465	0.539063	0.914063	-0.152344	730	17_11_28_3902700
-0.131836	-0.527344	0.222656	-0.281230	-0.468716	-0.496839	0.562500	0.890625	-0.152344	731	17_11_28_4063990
-0.149414	-0.515625	0.225586	-0.262481	-0.506213	-0.515588	1.054688	0.867188	0.035156	732	17_11_28_4225280
-0.158203	-0.503906	0.213867	-0.253107	-0.543711	-0.524962	0.539063	0.890625	-0.152344	733	17_11_28_4386570
-0.146484	-0.512695	0.213867	-0.243732	-0.581208	-0.524962	0.550781	0.937500	-0.164063	734	17_11_28_4547860
-0.146484	-0.500977	0.228516	-0.243732	-0.609331	-0.543711	0.527344	0.878906	-0.152344	735	17_11_28_4709150
-0.125977	-0.512695	0.210938	-0.224984	-0.618705	-0.553085	0.843750	0.902344	0.246094	736	17_11_28_4870440
-0.125977	-0.509766	0.205078	-0.206235	-0.618705	-0.562459	0.503906	0.914063	-0.140625	737	17_11_28_5031730
-0.117188	-0.524414	0.208008	-0.206235	-0.637454	-0.571833	0.527344	0.937500	-0.152344	738	17_11_28_5193020
-0.123047	-0.521484	0.202148	-0.196861	-0.637454	-0.581208	0.539063	0.972656	-0.164063	739	17_11_28_5354310
-0.137695	-0.509766	0.175781	-0.187486	-0.656202	-0.599956	0.562500	0.914063	-0.164063	740	17_11_28_5515600
-0.149414	-0.503906	0.134766	-0.140615	-0.665577	-0.618705	0.761719	0.820313	-0.070313	741	17_11_28_5676890
-0.093750	-0.533203	0.114258	-0.103118	-0.665577	-0.637454	0.515625	0.937500	-0.117188	742	17_11_28_5838180
-0.052734	-0.597656	0.134766	-0.103118	-0.618705	-0.665577	0.562500	0.960938	-0.093750	743	17_11_28_5999470
-0.020508	-0.629883	0.166992	-0.131240	-0.543711	-0.721823	0.515625	0.937500	-0.105469	744	17_11_28_6160760
-0.052734	-0.629883	0.184570	-0.140615	-0.431219	-0.759320	0.539063	0.902344	-0.117188	745	17_11_28_6322050
-0.099609	-0.585938	0.190430	-0.159363	-0.356224	-0.787443	0.527344	0.890625	-0.128906	746	17_11_28_6483340
-0.125977	-0.556641	0.172852	-0.149989	-0.318727	-0.768694	0.527344	0.832031	-0.140625	747	17_11_28_6644630
-0.137695	-0.544922	0.155273	-0.140615	-0.318727	-0.749946	0.539063	0.890625	-0.140625	748	17_11_28_6805920
-0.131836	-0.544922	0.131836	-0.121866	-0.365598	-0.731197	0.527344	0.937500	-0.128906	749	17_11_28_6967210
-0.134766	-0.585938	0.149414	-0.140615	-0.412470	-0.703074	0.550781	0.972656	-0.105469	750	17_11_28_7128500
-0.111328	-0.603516	0.140625	-0.168738	-0.468716	-0.693700	0.703125	0.902344	-0.035156	751	17_11_28_7289790
-0.143555	-0.615234	0.190430	-0.206235	-0.534336	-0.665577	0.550781	0.902344	-0.105469	752	17_11_28_7451080
-0.128906	-0.621094	0.190430	-0.224984	-0.543711	-0.656202	0.539063	0.914063	-0.082031	753	17_11_28_7612370
-0.134766	-0.624023	0.181641	-0.253107	-0.571833	-0.628079	0.574219	0.925781	-0.105469	754	17_11_28_7773660
-0.134766	-0.621094	0.175781	-0.281230	-0.599956	-0.618705	0.562500	0.867188	-0.128906	755	17_11_28_7934950
-0.143555	-0.621094	0.161133	-0.309353	-0.628079	-0.599956	0.996094	0.867188	0.210938	756	17_11_28_8096240
-0.146484	-0.621094	0.152344	-0.356224	-0.656202	-0.590582	0.539063	0.914063	-0.117188	757	17_11_28_8257530
-0.152344	-0.594727	0.149414	-0.374973	-0.684325	-0.571833	0.632813	0.914063	-0.105469	758	17_11_28_8418820
-0.169922	-0.585938	0.128906	-0.393721	-0.721823	-0.571833	0.527344	0.925781	-0.128906	759	17_11_28_8580110
-0.169922	-0.568359	0.117188	-0.403096	-0.740571	-0.562459	0.527344	0.925781	0.035156	760	17_11_28_8741400
-0.152344	-0.556641	0.102539	-0.403096	-0.768694	-0.562459	0.691406	0.890625	-0.070313	761	17_11_28_8902690
-0.140625	-0.553711	0.096680	-0.403096	-0.768694	-0.581208	0.585938	0.949219	-0.140625	762	17_11_28_9063980
-0.123047	-0.550781	0.087891	-0.393721	-0.768694	-0.562459	0.539063	0.914063	-0.093750	763	17_11_28_9225270
-0.128906	-0.553711	0.064453	-0.393721	-0.768694	-0.571833	0.515625	0.925781	-0.082031	764	17_11_28_9386560
-0.114258	-0.565430	0.067383	-0.384347	-0.759320	-0.581208	0.492188	0.890625	-0.105469	765	17_11_28_9547850
-0.120117	-0.568359	0.076172	-0.374973	-0.749946	-0.590582	0.585938	0.902344	-0.105469	766	17_11_28_9709140
-0.111328	-0.556641	0.079102	-0.356224	-0.731197	-0.590582	0.515625	0.925781	-0.105469	767	17_11_28_9870430
-0.108398	-0.544922	0.076172	-0.356224	-0.712448	-0.599956	0.515625	0.914063	-0.105469	768	17_11_29_0031720
-0.114258	-0.559570	0.079102	-0.346850	-0.693700	-0.609331	0.550781	0.937500	-0.128906	769	17_11_29_0193010
-0.114258	-0.553711	0.076172	-0.337475	-0.693700	-0.609331	0.527344	0.960938	-0.117188	770	17_11_29_0354300
-0.111328	-0.544922	0.079102	-0.337475	-0.674951	-0.609331	0.574219	1.007813	-0.140625	771	17_11_29_0515590
-0.105469	-0.568359	0.087891	-0.337475	-0.665577	-0.618705	0.515625	0.960938	-0.152344	772	17_11_29_0676880
-0.105469	-0.562500	0.084961	-0.337475	-0.665577	-0.618705	0.515625	0.867188	-0.128906	773	17_11_29_0838170
-0.117188	-0.568359	0.087891	-0.337475	-0.646828	-0.618705	0.550781	0.890625	-0.093750	774	17_11_29_0999460
-0.123047	-0.568359	0.087891	-0.337475	-0.656202	-0.609331	0.539063	0.890625	-0.082031	775	17_11_29_1160750
-0.120117	-0.577148	0.090820	-0.346850	-0.656202	-0.609331	0.562500	0.902344	-0.093750	776	17_11_29_1322040
-0.128906	-0.580078	0.090820	-0.346850	-0.656202	-0.609331	0.539063	0.890625	-0.082031	777	17_11_29_1483330
-0.128906	-0.580078	0.087891	-0.356224	-0.665577	-0.609331	0.714844	0.890625	0.105469	778	17_11_29_1644620
-0.131836	-0.577148	0.108398	-0.356224	-0.665577	-0.609331	0.515625	0.890625	-0.070313	779	17_11_29_1805910
-0.134766	-0.574219	0.090820	-0.356224	-0.674951	-0.609331	0.632813	0.914063	0.281250	780	17_11_29_1967200
-0.125977	-0.565430	0.099609	-0.365598	-0.674951	-0.599956	0.539063	0.937500	-0.058594	781	17_11_29_2128490
-0.125977	-0.583008	0.096680	-0.356224	-0.693700	-0.609331	0.714844	0.878906	0.035156	782	17_11_29_2289780
-0.131836	-0.568359	0.084961	-0.365598	-0.693700	-0.599956	0.796875	0.937500	0.023438	783	17_11_29_2451070
-0.128906	-0.574219	0.084961	-0.365598	-0.693700	-0.599956	0.527344	0.937500	-0.082031	784	17_11_29_2612360
-0.120117	-0.580078	0.087891	-0.365598	-0.693700	-0.599956	0.503906	0.890625	-0.070313	785	17_11_29_2773650
-0.125977	-0.559570	0.082031	-0.365598	-0.693700	-0.599956	0.574219	0.843750	-0.058594	786	17_11_29_2934940
-0.125977	-0.571289	0.082031	-0.356224	-0.693700	-0.609331	1.136719	0.914063	0.257813	787	17_11_29_3096230
-0.131836	-0.571289	0.079102	-0.365598	-0.693700	-0.599956	0.515625	0.902344	-0.023438	788	17_11_29_3257520
-0.111328	-0.565430	0.079102	-0.365598	-0.693700	-0.599956	0.539063	0.902344	-0.058594	789	17_11_29_3418810
-0.120117	-0.568359	0.079102	-0.365598	-0.693700	-0.599956	0.492188	0.855469	-0.128906	790	17_11_29_3580100
-0.128906	-0.562500	0.079102	-0.365598	-0.684325	-0.609331	0.515625	0.820313	0.082031	791	17_11_29_3741390
-0.128906	-0.559570	0.079102	-0.365598	-0.693700	-0.609331	0.515625	0.937500	-0.082031	792	17_11_29_3902680
-0.125977	-0.550781	0.084961	-0.365598	-0.693700	-0.599956	0.539063	0.960938	-0.093750	793	17_11_29_4063970
-0.131836	-0.565430	0.082031	-0.365598	-0.693700	-0.599956	0.527344	0.925781	-0.093750	794	17_11_29_4225260
-0.131836	-0.577148	0.087891	-0.365598	-0.684325	-0.599956	0.503906	0.914063	-0.082031	795	17_11_29_4386550
-0.131836	-0.568359	0.079102	-0.356224	-0.693700	-0.609331	0.539063	0.949219	-0.082031	796	17_11_29_4547840
-0.128906	-0.574219	0.079102	-0.365598	-0.693700	-0.609331	0.550781	0.960938	-0.058594	797	17_11_29_4709130
-0.128906	-0.568359	0.070313	-0.365598	-0.684325	-0.609331	0.539063	0.867188	-0.035156	798	17_11_29_4870420
-0.134766	-0.562500	0.090820	-0.365598	-0.684325	-0.609331	0.750000	0.867188	0.503906	799	17_11_29_5031710
-0.125977	-0.577148	0.079102	-0.365598	-0.684325	-0.609331	0.539063	0.914063	-0.093750	800	17_11_29_5193000
-0.125977	-0.568359	0.073242	-0.356224	-0.684325	-0.609331	0.539063	0.949219	0.175781	801	17_11_29_5354290
-0.128906	-0.568359	0.073242	-0.356224	-0.684325	-0.609331	0.515625	0.949219	-0.082031	802	17_11_29_5515580
-0.131836	-0.571289	0.073242	-0.356224	-0.693700	-0.599956	0.539063	0.937500	-0.082031	803	17_11_29_5676870
-0.123047	-0.568359	0.082031	-0.356224	-0.684325	-0.609331	0.562500	0.960938	-0.058594	804	17_11_29_5838160
-0.134766	-0.568359	0.079102	-0.356224	-0.684325	-0.609331	0.878906	0.996094	0.035156	805	17_11_29_5999450
-0.123047	-0.571289	0.090820	-0.365598	-0.693700	-0.599956	0.515625	0.937500	-0.140625	806	17_11_29_6160740
-0.125977	-0.568359	0.082031	-0.365598	-0.693700	-0.609331	0.562500	0.914063	-0.152344	807	17_11_29_6322030
-0.131836	-0.565430	0.079102	-0.365598	-0.693700	-0.599956	0.503906	0.902344	-0.140625	808	17_11_29_6483320
-0.146484	-0.571289	0.084961	-0.365598	-0.693700	-0.599956	0.574219	0.949219	-0.093750	809	17_11_29_6644610
-0.143555	-0.559570	0.082031	-0.365598	-0.693700	-0.599956	0.527344	0.878906	-0.070313	810	17_11_29_6805900
-0.134766	-0.574219	0.079102	-0.365598	-0.693700	-0.599956	0.515625	0.914063	-0.082031	811	17_11_29_6967190
-0.134766	-0.571289	0.079102	-0.374973	-0.693700	-0.599956	0.550781	0.914063	-0.093750	812	17_11_29_7128480
-0.134766	-0.559570	0.076172	-0.365598	-0.693700	-0.599956	0.515625	0.925781	-0.105469	813	17_11_29_7289770
-0.123047	-0.574219	0.070313	-0.365598	-0.693700	-0.599956	0.750000	0.937500	-0.058594	814	17_11_29_7451060
-0.137695	-0.568359	0.082031	-0.365598	-0.693700	-0.599956	0.550781	0.867188	-0.128906	815	17_11_29_7612350
-0.123047	-0.571289	0.073242	-0.356224	-0.693700	-0.599956	0.902344	0.855469	0.035156	816	17_11_29_7773640
-0.125977	-0.568359	0.079102	-0.365598	-0.665577	-0.599956	0.515625	0.890625	-0.093750	817	17_11_29_7934930
-0.125977	-0.565430	0.076172	-0.365598	-0.693700	-0.599956	0.539063	0.937500	-0.117188	818	17_11_29_8096220
-0.134766	-0.568359	0.082031	-0.356224	-0.693700	-0.599956	0.597656	0.867188	-0.058594	819	17_11_29_8257510
-0.125977	-0.571289	0.079102	-0.365598	-0.693700	-0.599956	0.667969	0.820313	0.269531	820	17_11_29_8418800
-0.123047	-0.571289	0.079102	-0.365598	-0.693700	-0.599956	0.632813	0.843750	0.316406	821	17_11_29_8580090
-0.123047	-0.568359	0.073242	-0.365598	-0.693700	-0.599956	0.515625	0.890625	-0.082031	822	17_11_29_8741380
-0.125977	-0.568359	0.082031	-0.365598	-0.693700	-0.599956	0.527344	0.867188	-0.105469	823	17_11_29_8902670
-0.125977	-0.562500	0.079102	-0.365598	-0.693700	-0.599956	0.539063	0.878906	-0.093750	824	17_11_29_9063960
-0.137695	-0.562500	0.082031	-0.365598	-0.693700	-0.599956	0.550781	0.937500	-0.023438	825	17_11_29_9225250
-0.125977	-0.571289	0.070313	-0.365598	-0.693700	-0.599956	0.539063	0.890625	-0.035156	826	17_11_29_9386540
-0.128906	-0.568359	0.073242	-0.374973	-0.693700	-0.599956	0.515625	0.890625	-0.070313	827	17_11_29_9547830
-0.123047	-0.571289	0.073242	-0.365598	-0.693700	-0.609331	1.160156	0.960938	0.152344	828	17_11_29_9709120
-0.114258	-0.559570	0.082031	-0.365598	-0.684325	-0.599956	0.503906	0.949219	-0.105469	829	17_11_29_9870410
-0.125977	-0.568359	0.076172	-0.365598	-0.693700	-0.599956	0.855469	0.902344	0.328125	830	17_11_30_0031700
-0.128906	-0.568359	0.073242	-0.365598	-0.693700	-0.599956	0.562500	0.925781	-0.082031	831	17_11_30_0192990
-0.123047	-0.577148	0.082031	-0.365598	-0.693700	-0.599956	0.644531	0.937500	-0.023438	832	17_11_30_0354280
-0.131836	-0.583008	0.084961	-0.356224	-0.693700	-0.599956	0.562500	0.890625	-0.058594	833	17_11_30_0515570
-0.131836	-0.559570	0.073242	-0.365598	-0.693700	-0.599956	0.527344	0.914063	-0.058594	834	17_11_30_0676860
-0.134766	-0.562500	0.079102	-0.374973	-0.693700	-0.599956	0.562500	0.890625	-0.082031	835	17_11_30_0838150
-0.123047	-0.565430	0.087891	-0.365598	-0.684325	-0.609331	0.515625	0.914063	-0.082031	836	17_11_30_0999440
-0.123047	-0.568359	0.084961	-0.365598	-0.693700	-0.599956	0.515625	0.878906	-0.070313	837	17_11_30_1160730
-0.131836	-0.562500	0.079102	-0.365598	-0.693700	-0.599956	0.527344	0.914063	-0.058594	838	17_11_30_1322020
-0.140625	-0.562500	0.082031	-0.365598	-0.693700	-0.599956	0.515625	0.972656	-0.035156	839	17_11_30_1483310
-0.134766	-0.568359	0.073242	-0.365598	-0.693700	-0.609331	0.550781	0.937500	-0.058594	840	17_11_30_1644600
-0.134766	-0.574219	0.079102	-0.365598	-0.693700	-0.599956	0.539063	0.878906	-0.082031	841	17_11_30_1805890
-0.123047	-0.568359	0.082031	-0.365598	-0.693700	-0.609331	0.691406	0.937500	-0.046875	842	17_11_30_1967180
-0.131836	-0.568359	0.084961	-0.365598	-0.693700	-0.609331	0.515625	0.878906	-0.082031	843	17_11_30_2128470
-0.134766	-0.577148	0.090820	-0.365598	-0.693700	-0.599956	0.492188	0.902344	-0.035156	844	17_11_30_2289760
-0.137695	-0.568359	0.079102	-0.365598	-0.693700	-0.599956	0.503906	0.914063	-0.058594	845	17_11_30_2451050
-0.128906	-0.571289	0.082031	-0.365598	-0.693700	-0.599956	0.527344	0.902344	-0.082031	846	17_11_30_2612340
-0.134766	-0.568359	0.079102	-0.365598	-0.693700	-0.599956	0.527344	0.914063	-0.105469	847	17_11_30_2773630
-0.134766	-0.574219	0.073242	-0.365598	-0.693700	-0.599956	0.960938	0.949219	0.070313	848	17_11_30_2934920
-0.125977	-0.574219	0.079102	-0.365598	-0.693700	-0.609331	1.195313	0.960938	0.199219	849	17_11_30_3096210
-0.134766	-0.565430	0.087891	-0.374973	-0.693700	-0.609331	0.492188	0.937500	-0.082031	850	17_11_30_3257500
-0.137695	-0.580078	0.079102	-0.365598	-0.693700	-0.609331	0.843750	0.925781	0.609375	851	17_11_30_3418790
-0.134766	-0.568359	0.084961	-0.365598	-0.693700	-0.599956	0.515625	0.937500	-0.082031	852	17_11_30_3580080
-0.134766	-0.574219	0.073242	-0.374973	-0.693700	-0.599956	0.562500	0.937500	-0.105469	853	17_11_30_3741370
-0.123047	-0.568359	0.084961	-0.365598	-0.693700	-0.599956	0.527344	0.949219	-0.082031	854	17_11_30_3902660
-0.134766	-0.580078	0.082031	-0.374973	-0.693700	-0.609331	0.609375	0.914063	-0.058594	855	17_11_30_4063950
-0.134766	-0.574219	0.073242	-0.365598	-0.693700	-0.609331	0.925781	0.914063	0.023438	856	17_11_30_4225240
-0.128906	-0.562500	0.090820	-0.356224	-0.693700	-0.609331	0.515625	0.890625	-0.117188	857	17_11_30_4386530
-0.125977	-0.568359	0.073242	-0.365598	-0.684325	-0.609331	0.492188	0.878906	-0.128906	858	17_11_30_4547820
-0.137695	-0.562500	0.082031	-0.365598	-0.693700	-0.609331	0.984375	0.890625	0.093750	859	17_11_30_4709110
-0.137695	-0.568359	0.084961	-0.365598	-0.693700	-0.599956	1.054688	0.949219	0.187500	860	17_11_30_4870400
-0.128906	-0.565430	0.079102	-0.365598	-0.693700	-0.609331	0.527344	0.878906	-0.082031	861	17_11_30_5031690
-0.131836	-0.568359	0.090820	-0.365598	-0.693700	-0.599956	0.503906	0.937500	-0.070313	862	17_11_30_5192980
-0.131836	-0.580078	0.079102	-0.365598	-0.693700	-0.599956	0.539063	1.007813	-0.082031	863	17_11_30_5354270
-0.125977	-0.574219	0.073242	-0.356224	-0.693700	-0.599956	0.515625	0.960938	0.117188	864	17_11_30_5515560
-0.125977	-0.565430	0.084961	-0.365598	-0.693700	-0.599956	0.492188	0.890625	-0.082031	865	17_11_30_5676850
-0.128906	-0.568359	0.084961	-0.365598	-0.693700	-0.599956	0.796875	0.902344	0.023438	866	17_11_30_5838140
-0.134766	-0.568359	0.076172	-0.365598	-0.693700	-0.599956	0.597656	0.878906	-0.082031	867	17_11_30_5999430
-0.134766	-0.562500	0.076172	-0.365598	-0.693700	-0.599956	0.550781	0.867188	-0.105469	868	17_11_30_6160720
-0.131836	-0.556641	0.082031	-0.365598	-0.684325	-0.599956	0.515625	0.855469	-0.117188	869	17_11_30_6322010
-0.128906	-0.568359	0.079102	-0.365598	-0.693700	-0.599956	0.515625	0.937500	-0.105469	870	17_11_30_6483300
-0.134766	-0.574219	0.082031	-0.365598	-0.693700	-0.599956	0.515625	0.902344	-0.093750	871	17_11_30_6644590
-0.123047	-0.562500	0.073242	-0.365598	-0.693700	-0.599956	0.539063	0.937500	-0.093750	872	17_11_30_6805880
-0.125977	-0.559570	0.070313	-0.365598	-0.693700	-0.599956	0.562500	0.914063	0.175781	873	17_11_30_6967170
-0.131836	-0.562500	0.070313	-0.365598	-0.693700	-0.599956	0.539063	0.914063	-0.105469	874	17_11_30_7128460
-0.134766	-0.568359	0.084961	-0.365598	-0.693700	-0.599956	0.515625	0.937500	-0.117188	875	17_11_30_7289750
-0.140625	-0.562500	0.084961	-0.365598	-0.693700	-0.599956	0.492188	0.902344	-0.093750	876	17_11_30_7451040
-0.123047	-0.568359	0.082031	-0.365598	-0.693700	-0.599956	0.539063	0.914063	-0.058594	877	17_11_30_7612330
-0.128906	-0.565430	0.076172	-0.365598	-0.693700	-0.599956	0.503906	0.996094	-0.035156	878	17_11_30_7773620
-0.131836	-0.562500	0.082031	-0.365598	-0.693700	-0.599956	0.585938	0.972656	-0.070313	879	17_11_30_7934910
-0.140625	-0.568359	0.082031	-0.365598	-0.693700	-0.599956	0.539063	0.937500	-0.117188	880	17_11_30_8096200
-0.128906	-0.568359	0.079102	-0.365598	-0.693700	-0.599956	0.515625	0.914063	-0.105469	881	17_11_30_8257490
-0.125977	-0.562500	0.070313	-0.365598	-0.693700	-0.599956	0.550781	0.890625	-0.058594	882	17_11_30_8418780
-0.123047	-0.565430	0.073242	-0.365598	-0.693700	-0.609331	0.527344	0.855469	0.457031	883	17_11_30_8580070
-0.140625	-0.559570	0.079102	-0.365598	-0.693700	-0.599956	0.515625	0.867188	-0.093750	884	17_11_30_8741360
-0.128906	-0.574219	0.076172	-0.356224	-0.693700	-0.609331	0.691406	0.925781	0.128906	885	17_11_30_8902650
-0.134766	-0.568359	0.076172	-0.365598	-0.693700	-0.599956	0.515625	0.914063	-0.117188	886	17_11_30_9063940
-0.128906	-0.591797	0.070313	-0.365598	-0.693700	-0.599956	0.515625	0.914063	-0.128906	887	17_11_30_9225230
-0.120117	-0.568359	0.070313	-0.365598	-0.693700	-0.609331	0.562500	0.937500	-0.105469	888	17_11_30_9386520
-0.125977	-0.562500	0.082031	-0.365598	-0.693700	-0.599956	0.515625	0.949219	-0.082031	889	17_11_30_9547810
-0.134766	-0.556641	0.090820	-0.365598	-0.684325	-0.609331	1.042969	0.890625	0.117188	890	17_11_30_9709100
-0.131836	-0.571289	0.087891	-0.365598	-0.693700	-0.599956	1.113281	0.867188	0.128906	891	17_11_30_9870390
-0.128906	-0.559570	0.076172	-0.374973	-0.693700	-0.599956	0.527344	0.867188	-0.070313	892	17_11_31_0031680
-0.131836	-0.568359	0.079102	-0.365598	-0.693700	-0.609331	0.632813	0.855469	0.375000	893	17_11_31_0192970
-0.128906	-0.574219	0.079102	-0.365598	-0.693700	-0.599956	0.550781	0.937500	-0.082031	894	17_11_31_0354260
-0.131836	-0.565430	0.082031	-0.374973	-0.693700	-0.599956	0.503906	0.960938	-0.058594	895	17_11_31_0515550
-0.134766	-0.568359	0.073242	-0.365598	-0.684325	-0.609331	0.550781	0.937500	-0.093750	896	17_11_31_0676840
-0.137695	-0.562500	0.082031	-0.365598	-0.693700	-0.599956	0.750000	0.937500	-0.035156	897	17_11_31_0838130
-0.125977	-0.571289	0.070313	-0.365598	-0.693700	-0.599956	0.527344	0.914063	-0.058594	898	17_11_31_0999420
-0.128906	-0.559570	0.082031	-0.365598	-0.693700	-0.599956	0.515625	0.867188	-0.093750	899	17_11_31_1160710
-0.125977	-0.571289	0.079102	-0.365598	-0.693700	-0.599956	0.585938	0.914063	-0.128906	900	17_11_31_1322000
-0.131836	-0.568359	0.076172	-0.365598	-0.693700	-0.609331	0.539063	0.925781	-0.105469	901	17_11_31_1483290
-0.137695	-0.562500	0.079102	-0.365598	-0.693700	-0.609331	0.515625	0.902344	-0.105469	902	17_11_31_1644580
-0.143555	-0.559570	0.079102	-0.365598	-0.693700	-0.609331	0.750000	0.890625	0.246094	903	17_11_31_1805870
-0.134766	-0.562500	0.079102	-0.374973	-0.693700	-0.609331	0.539063	0.914063	-0.082031	904	17_11_31_1967160
-0.143555	-0.571289	0.079102	-0.365598	-0.703074	-0.609331	0.515625	0.914063	0.281250	905	17_11_31_2128450
-0.131836	-0.571289	0.084961	-0.374973	-0.703074	-0.599956	0.574219	0.878906	-0.070313	906	17_11_31_2289740
-0.131836	-0.574219	0.076172	-0.365598	-0.703074	-0.609331	0.539063	0.867188	-0.023438	907	17_11_31_2451030
-0.125977	-0.568359	0.084961	-0.365598	-0.703074	-0.599956	0.761719	0.949219	0.023438	908	17_11_31_2612320
-0.123047	-0.568359	0.087891	-0.374973	-0.712448	-0.599956	0.515625	0.937500	-0.128906	909	17_11_31_2773610
-0.123047	-0.580078	0.073242	-0.365598	-0.703074	-0.599956	0.515625	0.960938	-0.105469	910	17_11_31_2934900
-0.134766	-0.568359	0.084961	-0.365598	-0.693700	-0.609331	0.539063	0.984375	-0.070313	911	17_11_31_3096190
-0.128906	-0.580078	0.096680	-0.365598	-0.703074	-0.599956	1.089844	1.019531	0.164063	912	17_11_31_3257480
-0.117188	-0.583008	0.117188	-0.384347	-0.693700	-0.599956	0.515625	0.937500	-0.152344	913	17_11_31_3418770
-0.108398	-0.612305	0.172852	-0.412470	-0.646828	-0.609331	0.562500	0.925781	-0.093750	914	17_11_31_3580060
-0.105469	-0.618164	0.169922	-0.468716	-0.581208	-0.599956	0.515625	0.914063	-0.070313	915	17_11_31_3741350
-0.131836	-0.624023	0.161133	-0.468716	-0.590582	-0.590582	0.515625	0.867188	-0.105469	916	17_11_31_3902640
-0.172852	-0.626953	0.143555	-0.487465	-0.618705	-0.581208	0.515625	0.867188	-0.105469	917	17_11_31_4063930
-0.169922	-0.600586	0.178711	-0.534336	-0.637454	-0.571833	0.539063	0.925781	-0.093750	918	17_11_31_4225220
-0.140625	-0.594727	0.219727	-0.553085	-0.637454	-0.553085	0.562500	0.972656	-0.117188	919	17_11_31_4386510
-0.134766	-0.615234	0.243164	-0.543711	-0.656202	-0.534336	0.550781	0.914063	-0.140625	920	17_11_31_4547800
-0.152344	-0.656250	0.260742	-0.562459	-0.693700	-0.515588	0.515625	0.796875	-0.117188	921	17_11_31_4709090
-0.269531	-0.638672	0.237305	-0.590582	-0.759320	-0.515588	0.562500	0.914063	-0.082031	922	17_11_31_4870380
-0.322266	-0.603516	0.202148	-0.599956	-0.843689	-0.496839	0.515625	0.984375	-0.105469	923	17_11_31_5031670
-0.322266	-0.594727	0.199219	-0.618705	-0.956181	-0.496839	0.550781	0.984375	-0.152344	924	17_11_31_5192960
-0.266602	-0.565430	0.213867	-0.628079	-1.021801	-0.515588	0.527344	0.902344	-0.152344	925	17_11_31_5354250
-0.210938	-0.591797	0.266602	-0.665577	-1.031175	-0.534336	0.644531	0.855469	-0.105469	926	17_11_31_5515540
-0.190430	-0.583008	0.272461	-0.703074	-0.974929	-0.581208	0.503906	0.867188	-0.046875	927	17_11_31_5676830
-0.178711	-0.574219	0.278320	-0.731197	-0.909309	-0.609331	0.714844	0.867188	-0.082031	928	17_11_31_5838120
-0.175781	-0.565430	0.284180	-0.749946	-0.862437	-0.646828	0.550781	0.925781	-0.140625	929	17_11_31_5999410
-0.187500	-0.556641	0.266602	-0.768694	-0.853063	-0.665577	0.550781	0.914063	-0.140625	930	17_11_31_6160700
-0.216797	-0.533203	0.254883	-0.787443	-0.862437	-0.693700	0.527344	0.984375	-0.164063	931	17_11_31_6321990
-0.222656	-0.530273	0.237305	-0.787443	-0.871812	-0.721823	0.597656	0.949219	-0.175781	932	17_11_31_6483280
-0.196289	-0.524414	0.243164	-0.787443	-0.899935	-0.721823	1.136719	0.914063	0.140625	933	17_11_31_6644570
-0.172852	-0.518555	0.254883	-0.787443	-0.918683	-0.740571	0.562500	0.890625	-0.175781	934	17_11_31_6805860
-0.172852	-0.521484	0.272461	-0.778068	-0.909309	-0.749946	0.527344	0.855469	-0.175781	935	17_11_31_6967150
-0.166992	-0.480469	0.290039	-0.768694	-0.928058	-0.759320	0.550781	0.914063	-0.199219	936	17_11_31_7128440
-0.149414	-0.442383	0.301758	-0.740571	-0.946806	-0.759320	0.562500	0.914063	-0.199219	937	17_11_31_7289730
-0.137695	-0.404297	0.313477	-0.703074	-0.946806	-0.759320	0.562500	0.890625	-0.187500	938	17_11_31_7451020
-0.140625	-0.380859	0.319336	-0.656202	-0.918683	-0.749946	0.574219	0.949219	-0.210938	939	17_11_31_7612310
-0.111328	-0.357422	0.322266	-0.618705	-0.909309	-0.731197	0.597656	0.937500	-0.210938	940	17_11_31_7773600
-0.082031	-0.375000	0.325195	-0.581208	-0.899935	-0.721823	0.562500	0.925781	-0.210938	941	17_11_31_7934890
-0.087891	-0.366211	0.331055	-0.553085	-0.881186	-0.712448	0.539063	0.937500	-0.222656	942	17_11_31_8096180
-0.084961	-0.354492	0.351563	-0.506213	-0.862437	-0.693700	0.550781	0.867188	-0.210938	943	17_11_31_8257470
-0.082031	-0.342773	0.354492	-0.468716	-0.843689	-0.684325	0.585938	0.855469	-0.175781	944	17_11_31_8418760
-0.093750	-0.333984	0.354492	-0.431219	-0.843689	-0.665577	0.574219	0.820313	-0.210938	945	17_11_31_8580050
-0.111328	-0.316406	0.377930	-0.403096	-0.824940	-0.646828	0.609375	0.902344	-0.246094	946	17_11_31_8741340
-0.099609	-0.322266	0.401367	-0.365598	-0.796817	-0.628079	0.714844	0.972656	-0.164063	947	17_11_31_8902630
-0.102539	-0.322266	0.395508	-0.346850	-0.778068	-0.609331	0.550781	0.914063	-0.222656	948	17_11_31_9063920
-0.120117	-0.357422	0.395508	-0.318727	-0.768694	-0.609331	0.597656	0.820313	-0.222656	949	17_11_31_9225210
-0.131836	-0.363281	0.404297	-0.309353	-0.787443	-0.609331	0.597656	0.925781	-0.199219	950	17_11_31_9386500
-0.146484	-0.366211	0.410156	-0.318727	-0.787443	-0.590582	0.574219	0.878906	-0.175781	951	17_11_31_9547790
-0.134766	-0.348633	0.395508	-0.290604	-0.815566	-0.562459	0.597656	0.914063	-0.187500	952	17_11_31_9709080
-0.128906	-0.360352	0.404297	-0.271855	-0.853063	-0.553085	1.160156	0.878906	-0.023438	953	17_11_31_9870370
-0.111328	-0.360352	0.413086	-0.262481	-0.890560	-0.534336	1.019531	0.914063	0.023438	954	17_11_32_0031660
-0.114258	-0.380859	0.421875	-0.262481	-0.918683	-0.524962	0.562500	0.972656	-0.187500	955	17_11_32_0192950
-0.105469	-0.386719	0.418945	-0.262481	-0.937432	-0.515588	0.550781	0.949219	-0.175781	956	17_11_32_0354240
-0.111328	-0.401367	0.421875	-0.271855	-0.956181	-0.506213	0.691406	0.890625	0.164063	957	17_11_32_0515530
-0.114258	-0.433594	0.395508	-0.262481	-0.993678	-0.496839	0.562500	0.902344	-0.210938	958	17_11_32_0676820
-0.105469	-0.480469	0.401367	-0.234358	-1.031175	-0.496839	0.562500	0.925781	-0.222656	959	17_11_32_0838110
-0.084961	-0.521484	0.395508	-0.224984	-1.040549	-0.487465	0.550781	0.902344	-0.234375	960	17_11_32_0999400
-0.052734	-0.541992	0.401367	-0.224984	-1.049924	-0.487465	0.691406	0.867188	-0.187500	961	17_11_32_1160690
-0.014648	-0.574219	0.401367	-0.206235	-1.021801	-0.496839	0.550781	0.878906	-0.222656	962	17_11_32_1321980
-0.005859	-0.536133	0.366211	-0.196861	-0.993678	-0.496839	0.550781	0.960938	-0.175781	963	17_11_32_1483270
-0.032227	-0.527344	0.307617	-0.196861	-1.003052	-0.496839	0.562500	0.914063	-0.140625	964	17_11_32_1644560
-0.020508	-0.515625	0.243164	-0.168738	-1.040549	-0.506213	0.550781	0.925781	-0.175781	965	17_11_32_1805850
0.008789	-0.544922	0.175781	-0.140615	-1.096795	-0.496839	0.539063	0.937500	-0.175781	966	17_11_32_1967140
0.055664	-0.591797	0.137695	-0.131240	-1.171790	-0.496839	0.527344	0.878906	0.234375	967	17_11_32_2128430
0.117188	-0.603516	0.125977	-0.140615	-1.181164	-0.496839	0.503906	0.808594	-0.222656	968	17_11_32_2289720
0.175781	-0.577148	0.137695	-0.140615	-1.153041	-0.506213	0.515625	0.843750	-0.187500	969	17_11_32_2451010
0.231445	-0.553711	0.120117	-0.112492	-1.068672	-0.524962	0.539063	0.890625	-0.187500	970	17_11_32_2612300
0.275391	-0.603516	0.093750	-0.093743	-0.974929	-0.543711	0.468750	0.867188	-0.210938	971	17_11_32_2773590
0.298828	-0.629883	0.079102	-0.093743	-0.909309	-0.571833	0.515625	0.855469	-0.199219	972	17_11_32_2934880
0.272461	-0.662109	0.096680	-0.112492	-0.834314	-0.581208	0.492188	0.914063	-0.175781	973	17_11_32_3096170
0.257813	-0.667969	0.084961	-0.084369	-0.759320	-0.590582	1.183594	0.960938	0.058594	974	17_11_32_3257460
0.237305	-0.667969	0.073242	-0.065620	-0.721823	-0.571833	0.503906	0.902344	-0.175781	975	17_11_32_3418750
0.231445	-0.685547	0.067383	-0.037497	-0.693700	-0.553085	0.515625	0.914063	-0.152344	976	17_11_32_3580040
0.249023	-0.685547	0.079102	-0.018749	-0.637454	-0.534336	0.515625	0.867188	0.292969	977	17_11_32_3741330
0.249023	-0.676758	0.096680	0.000000	-0.599956	-0.506213	0.597656	0.867188	-0.175781	978	17_11_32_3902620
0.213867	-0.706055	0.102539	0.000000	-0.562459	-0.487465	0.527344	0.914063	-0.187500	979	17_11_32_4063910
0.196289	-0.697266	0.096680	0.000000	-0.534336	-0.478090	0.480469	0.937500	-0.164063	980	17_11_32_4225200
0.190430	-0.676758	0.090820	0.018749	-0.524962	-0.478090	0.503906	0.867188	-0.152344	981	17_11_32_4386490
0.181641	-0.717773	0.076172	0.018749	-0.496839	-0.468716	0.468750	0.960938	-0.140625	982	17_11_32_4547780
0.169922	-0.741211	0.079102	0.009374	-0.487465	-0.478090	0.515625	0.937500	-0.140625	983	17_11_32_4709070
0.175781	-0.732422	0.055664	0.018749	-0.459342	-0.478090	1.007813	0.914063	0.058594	984	17_11_32_4870360
0.190430	-0.720703	0.038086	0.018749	-0.421844	-0.478090	0.457031	0.914063	-0.152344	985	17_11_32_5031650
0.205078	-0.723633	0.020508	0.028123	-0.374973	-0.478090	0.457031	0.925781	-0.175781	986	17_11_32_5192940
0.216797	-0.735352	0.000000	0.037497	-0.337475	-0.487465	0.515625	0.890625	-0.117188	987	17_11_32_5354230
0.228516	-0.735352	-0.011719	0.037497	-0.318727	-0.487465	0.445313	0.925781	-0.140625	988	17_11_32_5515520
0.254883	-0.732422	-0.014648	0.037497	-0.299978	-0.496839	0.468750	0.937500	-0.152344	989	17_11_32_5676810
0.254883	-0.741211	-0.011719	0.028123	-0.281230	-0.496839	0.492188	0.937500	-0.140625	990	17_11_32_5838100
0.260742	-0.714844	-0.029297	0.046872	-0.253107	-0.478090	0.503906	0.914063	-0.140625	991	17_11_32_5999390
0.263672	-0.729492	-0.038086	0.065620	-0.243732	-0.459342	0.492188	0.949219	-0.117188	992	17_11_32_6160680
0.251953	-0.732422	-0.058594	0.093743	-0.234358	-0.449967	0.492188	0.925781	-0.105469	993	17_11_32_6321970
0.249023	-0.732422	-0.038086	0.103118	-0.215609	-0.449967	0.492188	0.960938	-0.082031	994	17_11_32_6483260
0.246094	-0.744141	-0.032227	0.093743	-0.206235	-0.440593	0.421875	0.902344	-0.093750	995	17_11_32_6644550
0.240234	-0.679688	-0.058594	0.093743	-0.206235	-0.431219	0.445313	0.820313	-0.117188	996	17_11_32_6805840
0.228516	-0.638672	-0.087891	0.112492	-0.215609	-0.421844	0.457031	0.820313	-0.082031	997	17_11_32_6967130
0.228516	-0.597656	-0.134766	0.149989	-0.206235	-0.431219	0.562500	0.832031	0.363281	998	17_11_32_7128420
0.251953	-0.597656	-0.149414	0.168738	-0.187486	-0.440593	0.445313	0.937500	-0.070313	999	17_11_32_7289710
0.263672	-0.618164	-0.140625	0.178112	-0.140615	-0.459342	0.421875	0.949219	-0.070313	1000	17_11_32_7451000
0.263672	-0.588867	-0.128906	0.178112	-0.065620	-0.487465	0.445313	0.925781	-0.070313	1001	17_11_32_7612290
0.254883	-0.562500	-0.114258	0.178112	0.000000	-0.496839	0.644531	0.914063	0.011719	1002	17_11_32_7773580
0.216797	-0.527344	-0.131836	0.168738	0.056246	-0.515588	0.421875	0.867188	-0.082031	1003	17_11_32_7934870
0.190430	-0.515625	-0.155273	0.178112	0.065620	-0.534336	1.054688	0.855469	0.199219	1004	17_11_32_8096160
0.161133	-0.489258	-0.166992	0.168738	0.037497	-0.543711	0.433594	0.855469	0.000000	1005	17_11_32_8257450
0.146484	-0.457031	-0.184570	0.168738	-0.018749	-0.534336	0.410156	0.890625	-0.023438	1006	17_11_32_8418740
0.146484	-0.457031	-0.199219	0.149989	-0.074995	-0.534336	0.421875	0.867188	0.011719	1007	17_11_32_8580030
0.155273	-0.421875	-0.175781	0.149989	-0.140615	-0.534336	0.351563	0.890625	0.046875	1008	17_11_32_8741320
0.166992	-0.404297	-0.181641	0.140615	-0.178112	-0.534336	0.386719	0.890625	0.058594	1009	17_11_32_8902610
0.169922	-0.418945	-0.178711	0.112492	-0.206235	-0.553085	0.468750	0.867188	-0.011719	1010	17_11_32_9063900
0.140625	-0.386719	-0.178711	0.112492	-0.243732	-0.562459	0.433594	0.867188	-0.023438	1011	17_11_32_9225190
0.134766	-0.372070	-0.178711	0.084369	-0.262481	-0.571833	0.375000	0.890625	-0.023438	1012	17_11_32_9386480
0.123047	-0.357422	-0.193359	0.046872	-0.290604	-0.581208	0.363281	0.843750	-0.011719	1013	17_11_32_9547770
0.114258	-0.339844	-0.184570	0.028123	-0.309353	-0.590582	0.386719	0.867188	0.046875	1014	17_11_32_9709060
0.117188	-0.369141	-0.208008	0.009374	-0.309353	-0.609331	0.328125	0.878906	0.046875	1015	17_11_32_9870350
0.102539	-0.380859	-0.205078	-0.037497	-0.299978	-0.628079	0.351563	0.855469	0.011719	1016	17_11_33_0031640
0.099609	-0.404297	-0.190430	-0.065620	-0.299978	-0.656202	0.375000	0.843750	-0.023438	1017	17_11_33_0192930
0.070313	-0.416016	-0.196289	-0.112492	-0.318727	-0.684325	0.421875	0.773438	0.011719	1018	17_11_33_0354220
0.052734	-0.442383	-0.202148	-0.159363	-0.337475	-0.712448	0.386719	0.796875	0.035156	1019	17_11_33_0515510
0.049805	-0.451172	-0.216797	-0.196861	-0.356224	-0.740571	0.363281	0.832031	0.000000	1020	17_11_33_0676800
0.061523	-0.442383	-0.205078	-0.234358	-0.384347	-0.749946	0.492188	0.820313	0.093750	1021	17_11_33_0838090
0.067383	-0.448242	-0.208008	-0.281230	-0.431219	-0.778068	0.644531	0.832031	0.070313	1022	17_11_33_0999380
0.076172	-0.489258	-0.196289	-0.299978	-0.468716	-0.796817	0.328125	0.843750	0.000000	1023	17_11_33_1160670
0.099609	-0.518555	-0.184570	-0.337475	-0.506213	-0.824940	0.351563	0.820313	0.011719	1024	17_11_33_1321960
0.105469	-0.556641	-0.172852	-0.365598	-0.524962	-0.853063	0.410156	0.843750	-0.011719	1025	17_11_33_1483250
0.120117	-0.588867	-0.190430	-0.393721	-0.543711	-0.881186	0.386719	0.796875	-0.046875	1026	17_11_33_1644540
0.134766	-0.591797	-0.190430	-0.431219	-0.590582	-0.899935	0.316406	0.785156	-0.023438	1027	17_11_33_1805830
0.158203	-0.580078	-0.205078	-0.449967	-0.618705	-0.909309	0.328125	0.832031	0.000000	1028	17_11_33_1967120
0.190430	-0.580078	-0.187500	-0.478090	-0.646828	-0.909309	0.398438	0.855469	0.011719	1029	17_11_33_2128410
0.205078	-0.556641	-0.169922	-0.496839	-0.656202	-0.918683	0.421875	0.867188	-0.011719	1030	17_11_33_2289700
0.216797	-0.571289	-0.143555	-0.515588	-0.628079	-0.918683	0.410156	0.890625	-0.058594	1031	17_11_33_2450990
0.196289	-0.556641	-0.125977	-0.534336	-0.618705	-0.918683	0.386719	0.937500	-0.023438	1032	17_11_33_2612280
0.172852	-0.544922	-0.134766	-0.543711	-0.618705	-0.918683	0.656250	0.890625	0.105469	1033	17_11_33_2773570
0.146484	-0.524414	-0.137695	-0.571833	-0.637454	-0.918683	0.386719	0.843750	-0.011719	1034	17_11_33_2934860
0.131836	-0.506836	-0.114258	-0.581208	-0.656202	-0.899935	0.410156	0.855469	-0.070313	1035	17_11_33_3096150
0.128906	-0.503906	-0.111328	-0.581208	-0.656202	-0.890560	0.410156	0.878906	-0.082031	1036	17_11_33_3257440
0.123047	-0.506836	-0.108398	-0.599956	-0.674951	-0.871812	0.421875	0.937500	-0.082031	1037	17_11_33_3418730
0.114258	-0.500977	-0.087891	-0.609331	-0.693700	-0.862437	0.386719	0.914063	-0.082031	1038	17_11_33_3580020
0.099609	-0.498047	-0.082031	-0.628079	-0.712448	-0.853063	0.398438	0.878906	-0.082031	1039	17_11_33_3741310
0.087891	-0.492188	-0.070313	-0.628079	-0.712448	-0.843689	0.445313	0.937500	-0.093750	1040	17_11_33_3902600
0.082031	-0.489258	-0.070313	-0.628079	-0.721823	-0.824940	0.457031	0.867188	-0.070313	1041	17_11_33_4063890
0.079102	-0.506836	-0.093750	-0.618705	-0.712448	-0.815566	0.421875	0.890625	-0.058594	1042	17_11_33_4225180
0.076172	-0.536133	-0.084961	-0.618705	-0.721823	-0.796817	0.433594	0.937500	-0.070313	1043	17_11_33_4386470
0.070313	-0.559570	-0.084961	-0.628079	-0.731197	-0.787443	0.421875	0.855469	-0.105469	1044	17_11_33_4547760
0.093750	-0.562500	-0.070313	-0.637454	-0.731197	-0.778068	0.457031	0.820313	-0.140625	1045	17_11_33_4709050
0.096680	-0.556641	-0.073242	-0.628079	-0.703074	-0.768694	0.445313	0.890625	-0.128906	1046	17_11_33_4870340
0.090820	-0.556641	-0.070313	-0.618705	-0.665577	-0.759320	0.457031	0.960938	-0.093750	1047	17_11_33_5031630
0.084961	-0.544922	-0.055664	-0.599956	-0.637454	-0.740571	0.410156	0.890625	-0.105469	1048	17_11_33_5192920
0.079102	-0.539063	-0.061523	-0.581208	-0.609331	-0.721823	0.550781	0.832031	-0.082031	1049	17_11_33_5354210
0.079102	-0.544922	-0.061523	-0.562459	-0.581208	-0.703074	0.433594	0.890625	-0.164063	1050	17_11_33_5515500
0.082031	-0.550781	-0.058594	-0.524962	-0.553085	-0.665577	0.621094	0.890625	-0.105469	1051	17_11_33_5676790
0.076172	-0.556641	-0.026367	-0.506213	-0.515588	-0.646828	0.445313	0.914063	-0.105469	1052	17_11_33_5838080
0.076172	-0.559570	-0.032227	-0.478090	-0.459342	-0.618705	0.445313	0.867188	-0.105469	1053	17_11_33_5999370
0.067383	-0.571289	-0.035156	-0.449967	-0.412470	-0.599956	0.445313	0.937500	-0.140625	1054	17_11_33_6160660
0.061523	-0.594727	-0.043945	-0.431219	-0.365598	-0.571833	0.480469	0.937500	-0.152344	1055	17_11_33_6321950
0.046875	-0.583008	-0.061523	-0.393721	-0.337475	-0.543711	0.421875	0.890625	-0.152344	1056	17_11_33_6483240
0.064453	-0.647461	-0.043945	-0.365598	-0.299978	-0.515588	0.445313	0.855469	-0.152344	1057	17_11_33_6644530
0.076172	-0.685547	-0.067383	-0.318727	-0.262481	-0.515588	0.468750	0.878906	-0.128906	1058	17_11_33_6805820
0.108398	-0.667969	-0.061523	-0.299978	-0.234358	-0.534336	0.410156	0.878906	-0.117188	1059	17_11_33_6967110
0.140625	-0.621094	-0.058594	-0.281230	-0.196861	-0.534336	0.433594	0.867188	-0.128906	1060	17_11_33_7128400
0.181641	-0.506836	-0.079102	-0.281230	-0.168738	-0.543711	0.386719	0.902344	-0.128906	1061	17_11_33_7289690
0.213867	-0.383789	-0.096680	-0.299978	-0.168738	-0.524962	0.410156	0.855469	-0.140625	1062	17_11_33_7450980
0.249023	-0.298828	-0.102539	-0.299978	-0.206235	-0.506213	0.597656	0.867188	-0.082031	1063	17_11_33_7612270
0.272461	-0.266602	-0.096680	-0.290604	-0.224984	-0.496839	0.433594	0.855469	-0.105469	1064	17_11_33_7773560
0.257813	-0.360352	-0.096680	-0.262481	-0.234358	-0.515588	0.468750	0.867188	-0.128906	1065	17_11_33_7934850
0.205078	-0.524414	-0.084961	-0.243732	-0.196861	-0.543711	0.386719	0.890625	-0.128906	1066	17_11_33_8096140
0.164063	-0.644531	-0.117188	-0.234358	-0.159363	-0.581208	0.410156	0.960938	-0.140625	1067	17_11_33_8257430
0.123047	-0.667969	-0.090820	-0.215609	-0.131240	-0.609331	0.457031	0.937500	-0.140625	1068	17_11_33_8418720
0.146484	-0.632813	-0.082031	-0.187486	-0.103118	-0.609331	0.421875	0.867188	-0.128906	1069	17_11_33_8580010
0.181641	-0.580078	-0.055664	-0.168738	-0.056246	-0.609331	0.738281	0.855469	0.246094	1070	17_11_33_8741300
0.178711	-0.550781	-0.038086	-0.149989	-0.028123	-0.609331	0.457031	0.867188	-0.140625	1071	17_11_33_8902590
0.149414	-0.512695	-0.032227	-0.149989	-0.018749	-0.599956	0.457031	0.820313	-0.152344	1072	17_11_33_9063880
0.158203	-0.480469	-0.041016	-0.159363	-0.037497	-0.581208	0.386719	0.855469	-0.175781	1073	17_11_33_9225170
0.140625	-0.457031	-0.026367	-0.168738	-0.046872	-0.571833	0.457031	0.878906	-0.164063	1074	17_11_33_9386460
0.120117	-0.439453	-0.011719	-0.159363	-0.056246	-0.553085	0.386719	0.867188	-0.140625	1075	17_11_33_9547750
0.111328	-0.442383	0.005859	-0.149989	-0.046872	-0.543711	0.375000	0.855469	-0.152344	1076	17_11_33_9709040
0.108398	-0.465820	0.020508	-0.140615	-0.018749	-0.543711	0.445313	0.867188	-0.152344	1077	17_11_33_9870330
0.096680	-0.465820	0.017578	-0.131240	-0.009374	-0.543711	1.148438	0.820313	0.093750	1078	17_11_34_0031620
0.067383	-0.498047	0.008789	-0.131240	-0.018749	-0.553085	0.410156	0.902344	-0.210938	1079	17_11_34_0192910
0.014648	-0.509766	-0.005859	-0.121866	-0.056246	-0.553085	0.398438	0.949219	-0.210938	1080	17_11_34_0354200
0.000000	-0.533203	-0.011719	-0.121866	-0.131240	-0.571833	0.574219	0.878906	0.351563	1081	17_11_34_0515490
0.038086	-0.509766	0.020508	-0.131240	-0.215609	-0.562459	0.421875	0.902344	-0.140625	1082	17_11_34_0676780
0.070313	-0.515625	0.058594	-0.121866	-0.215609	-0.571833	0.410156	0.890625	-0.140625	1083	17_11_34_0838070
0.093750	-0.527344	0.082031	-0.112492	-0.215609	-0.599956	0.375000	0.914063	-0.140625	1084	17_11_34_0999360
0.093750	-0.541992	0.096680	-0.112492	-0.178112	-0.618705	0.421875	0.937500	-0.152344	1085	17_11_34_1160650
0.061523	-0.580078	0.082031	-0.112492	-0.159363	-0.618705	0.750000	0.937500	-0.070313	1086	17_11_34_1321940
0.046875	-0.621094	0.084961	-0.131240	-0.149989	-0.618705	0.457031	0.878906	-0.164063	1087	17_11_34_1483230
-0.023438	-0.650391	0.049805	-0.131240	-0.168738	-0.628079	0.410156	0.855469	-0.164063	1088	17_11_34_1644520
-0.043945	-0.650391	0.011719	-0.131240	-0.281230	-0.628079	0.410156	0.855469	-0.175781	1089	17_11_34_1805810
-0.008789	-0.647461	0.026367	-0.149989	-0.412470	-0.618705	0.820313	0.937500	-0.011719	1090	17_11_34_1967100
0.046875	-0.665039	0.064453	-0.149989	-0.478090	-0.609331	0.410156	0.820313	-0.164063	1091	17_11_34_2128390
0.041016	-0.785156	-0.011719	-0.149989	-0.506213	-0.609331	0.445313	0.796875	-0.199219	1092	17_11_34_2289680
-0.046875	-0.878906	-0.155273	-0.187486	-0.599956	-0.628079	0.597656	0.902344	-0.128906	1093	17_11_34_2450970
0.014648	-0.896484	-0.202148	-0.281230	-0.768694	-0.665577	0.398438	0.878906	-0.175781	1094	17_11_34_2612260
0.155273	-0.826172	-0.178711	-0.337475	-0.853063	-0.693700	0.410156	0.902344	-0.187500	1095	17_11_34_2773550
0.301758	-0.708984	-0.090820	-0.374973	-0.881186	-0.693700	0.398438	0.925781	-0.175781	1096	17_11_34_2934840
0.433594	-0.568359	-0.008789	-0.374973	-0.778068	-0.693700	0.468750	0.949219	-0.152344	1097	17_11_34_3096130
0.392578	-0.498047	-0.017578	-0.393721	-0.665577	-0.684325	0.386719	0.937500	-0.140625	1098	17_11_34_3257420
0.251953	-0.439453	-0.052734	-0.421844	-0.656202	-0.665577	0.527344	0.914063	-0.140625	1099	17_11_34_3418710
0.108398	-0.462891	-0.096680	-0.440593	-0.712448	-0.646828	0.480469	0.902344	-0.164063	1100	17_11_34_3580000
0.005859	-0.533203	-0.140625	-0.478090	-0.824940	-0.646828	0.421875	0.878906	-0.175781	1101	17_11_34_3741290
-0.011719	-0.571289	-0.166992	-0.515588	-0.965555	-0.646828	0.468750	0.890625	-0.164063	1102	17_11_34_3902580
0.005859	-0.594727	-0.172852	-0.590582	-1.049924	-0.628079	0.445313	0.890625	-0.140625	1103	17_11_34_4063870
0.064453	-0.562500	-0.190430	-0.590582	-1.106170	-0.637454	0.421875	0.855469	-0.140625	1104	17_11_34_4225160
0.120117	-0.562500	-0.172852	-0.609331	-1.115544	-0.656202	0.457031	0.890625	-0.128906	1105	17_11_34_4386450
0.187500	-0.527344	-0.114258	-0.628079	-1.059298	-0.684325	0.421875	0.867188	-0.140625	1106	17_11_34_4547740
0.219727	-0.512695	-0.090820	-0.628079	-0.937432	-0.712448	0.457031	0.867188	-0.164063	1107	17_11_34_4709030
0.213867	-0.498047	-0.082031	-0.628079	-0.806191	-0.749946	0.503906	0.820313	-0.152344	1108	17_11_34_4870320
0.190430	-0.506836	-0.090820	-0.618705	-0.674951	-0.778068	0.457031	0.832031	-0.152344	1109	17_11_34_5031610
0.123047	-0.495117	-0.105469	-0.618705	-0.609331	-0.806191	0.421875	0.925781	-0.152344	1110	17_11_34_5192900
0.105469	-0.506836	-0.125977	-0.618705	-0.599956	-0.796817	0.445313	0.914063	-0.175781	1111	17_11_34_5354190
