sensor_ID	000666015715
Accel_X	Accel_Y	Accel_Z	Roll	Pitch	Yaw	Mag_X	Mag_Y	Mag_Z	Count	SysTime
-0.002930	-0.720703	-0.014648	-0.196861	0.243732	-0.178112	0.597656	1.066406	0.539063	0	17_11_16_5381000
0.011719	-0.711914	-0.020508	-0.196861	0.243732	-0.178112	0.609375	0.820313	0.457031	1	17_11_16_5542290
0.008789	-0.726563	-0.023438	-0.187486	0.243732	-0.178112	0.667969	0.867188	0.457031	2	17_11_16_5703580
0.000000	-0.726563	-0.017578	-0.187486	0.253107	-0.187486	0.644531	0.808594	0.445313	3	17_11_16_5864870
0.005859	-0.714844	-0.017578	-0.187486	0.253107	-0.187486	0.632813	0.703125	0.480469	4	17_11_16_6026160
-0.002930	-0.723633	-0.017578	-0.196861	0.243732	-0.187486	0.656250	0.878906	0.492188	5	17_11_16_6187450
-0.005859	-0.720703	-0.020508	-0.196861	0.243732	-0.187486	0.632813	0.890625	0.468750	6	17_11_16_6348740
0.000000	-0.708984	-0.026367	-0.196861	0.243732	-0.178112	0.644531	0.914063	0.457031	7	17_11_16_6510030
0.002930	-0.711914	-0.023438	-0.196861	0.243732	-0.178112	0.609375	0.867188	0.445313	8	17_11_16_6671320
-0.005859	-0.720703	-0.014648	-0.206235	0.243732	-0.187486	0.609375	0.820313	0.433594	9	17_11_16_6832610
0.008789	-0.723633	-0.020508	-0.196861	0.243732	-0.178112	0.632813	0.855469	0.445313	10	17_11_16_6993900
0.011719	-0.723633	-0.014648	-0.187486	0.243732	-0.178112	0.609375	0.843750	0.468750	11	17_11_16_7155190
0.002930	-0.720703	-0.026367	-0.187486	0.243732	-0.178112	0.855469	1.171875	0.515625	12	17_11_16_7316480
-0.005859	-0.720703	-0.011719	-0.196861	0.243732	-0.178112	0.644531	0.832031	0.480469	13	17_11_16_7477770
0.008789	-0.720703	-0.014648	-0.187486	0.243732	-0.178112	0.632813	0.878906	0.468750	14	17_11_16_7639060
-0.002930	-0.720703	-0.011719	-0.187486	0.243732	-0.178112	0.726563	1.253906	0.539063	15	17_11_16_7800350
0.005859	-0.714844	-0.014648	-0.187486	0.243732	-0.187486	0.632813	0.960938	0.457031	16	17_11_16_7961640
0.011719	-0.714844	-0.011719	-0.196861	0.243732	-0.178112	0.632813	0.949219	0.468750	17	17_11_16_8122930
-0.011719	-0.711914	-0.020508	-0.187486	0.243732	-0.187486	0.609375	0.890625	0.457031	18	17_11_16_8284220
0.011719	-0.732422	-0.020508	-0.187486	0.243732	-0.178112	0.644531	0.914063	0.468750	19	17_11_16_8445510
0.008789	-0.729492	-0.020508	-0.187486	0.243732	-0.178112	0.644531	0.855469	0.468750	20	17_11_16_8606800
0.000000	-0.732422	-0.008789	-0.187486	0.243732	-0.187486	0.621094	0.832031	0.445313	21	17_11_16_8768090
0.011719	-0.726563	-0.020508	-0.196861	0.243732	-0.187486	0.632813	0.855469	0.421875	22	17_11_16_8929380
-0.002930	-0.717773	-0.011719	-0.187486	0.243732	-0.187486	0.644531	0.832031	0.468750	23	17_11_16_9090670
-0.005859	-0.711914	-0.014648	-0.206235	0.243732	-0.178112	0.621094	0.832031	0.515625	24	17_11_16_9251960
0.000000	-0.723633	-0.011719	-0.196861	0.224984	-0.178112	0.609375	0.855469	0.457031	25	17_11_16_9413250
0.020508	-0.711914	-0.008789	-0.196861	0.234358	-0.168738	0.644531	0.808594	0.445313	26	17_11_16_9574540
0.008789	-0.706055	-0.008789	-0.196861	0.243732	-0.178112	0.632813	0.843750	0.457031	27	17_11_16_9735830
0.005859	-0.711914	-0.014648	-0.178112	0.243732	-0.178112	0.609375	0.890625	0.468750	28	17_11_16_9897120
-0.020508	-0.726563	-0.020508	-0.178112	0.253107	-0.178112	0.644531	0.843750	0.480469	29	17_11_17_0058410
-0.035156	-0.720703	-0.023438	-0.196861	0.234358	-0.178112	0.632813	0.855469	0.480469	30	17_11_17_0219700
-0.008789	-0.720703	-0.011719	-0.187486	0.224984	-0.178112	0.632813	0.855469	0.480469	31	17_11_17_0380990
0.005859	-0.720703	-0.029297	-0.196861	0.224984	-0.178112	0.632813	0.937500	0.468750	32	17_11_17_0542280
0.014648	-0.726563	-0.017578	-0.196861	0.224984	-0.178112	0.644531	0.902344	0.457031	33	17_11_17_0703570
0.008789	-0.720703	-0.020508	-0.196861	0.234358	-0.178112	0.644531	0.867188	0.421875	34	17_11_17_0864860
0.026367	-0.714844	-0.014648	-0.187486	0.243732	-0.178112	0.632813	0.960938	0.410156	35	17_11_17_1026150
-0.005859	-0.714844	-0.026367	-0.196861	0.243732	-0.178112	0.621094	0.867188	0.457031	36	17_11_17_1187440
0.008789	-0.717773	-0.014648	-0.196861	0.243732	-0.178112	0.644531	0.785156	0.480469	37	17_11_17_1348730
0.014648	-0.720703	-0.020508	-0.196861	0.243732	-0.178112	0.609375	0.914063	0.457031	38	17_11_17_1510020
0.005859	-0.726563	-0.023438	-0.178112	0.243732	-0.178112	0.738281	1.054688	0.433594	39	17_11_17_1671310
0.011719	-0.720703	-0.020508	-0.187486	0.253107	-0.178112	0.632813	0.820313	0.457031	40	17_11_17_1832600
0.000000	-0.726563	-0.020508	-0.196861	0.243732	-0.178112	0.585938	0.773438	0.468750	41	17_11_17_1993890
0.002930	-0.720703	-0.017578	-0.187486	0.243732	-0.178112	0.644531	0.796875	0.421875	42	17_11_17_2155180
0.014648	-0.714844	-0.023438	-0.196861	0.243732	-0.178112	0.609375	0.855469	0.433594	43	17_11_17_2316470
0.002930	-0.729492	-0.017578	-0.196861	0.243732	-0.187486	0.644531	0.890625	0.468750	44	17_11_17_2477760
-0.005859	-0.720703	-0.008789	-0.187486	0.243732	-0.178112	0.609375	0.855469	0.492188	45	17_11_17_2639050
-0.002930	-0.720703	-0.023438	-0.187486	0.253107	-0.187486	0.609375	0.773438	0.503906	46	17_11_17_2800340
0.000000	-0.720703	-0.014648	-0.187486	0.243732	-0.178112	0.621094	0.808594	0.480469	47	17_11_17_2961630
-0.005859	-0.720703	-0.023438	-0.187486	0.243732	-0.178112	0.667969	0.914063	0.480469	48	17_11_17_3122920
-0.002930	-0.708984	-0.014648	-0.196861	0.243732	-0.187486	0.609375	0.820313	0.457031	49	17_11_17_3284210
-0.005859	-0.706055	-0.020508	-0.187486	0.243732	-0.178112	0.632813	0.843750	0.445313	50	17_11_17_3445500
0.008789	-0.706055	-0.020508	-0.196861	0.243732	-0.187486	0.632813	0.855469	0.457031	51	17_11_17_3606790
0.005859	-0.711914	-0.020508	-0.196861	0.243732	-0.187486	0.621094	0.878906	0.480469	52	17_11_17_3768080
-0.002930	-0.708984	-0.023438	-0.196861	0.243732	-0.187486	0.609375	0.914063	0.457031	53	17_11_17_3929370
0.005859	-0.723633	-0.014648	-0.187486	0.243732	-0.187486	0.796875	1.136719	0.515625	54	17_11_17_4090660
0.000000	-0.717773	-0.023438	-0.187486	0.243732	-0.187486	0.609375	0.937500	0.492188	55	17_11_17_4251950
-0.002930	-0.720703	-0.020508	-0.196861	0.243732	-0.178112	0.644531	0.925781	0.480469	56	17_11_17_4413240
0.005859	-0.732422	-0.020508	-0.196861	0.253107	-0.187486	0.656250	0.937500	0.457031	57	17_11_17_4574530
0.005859	-0.720703	-0.020508	-0.196861	0.253107	-0.187486	0.609375	0.843750	0.457031	58	17_11_17_4735820
0.000000	-0.697266	-0.020508	-0.206235	0.243732	-0.178112	0.632813	0.855469	0.468750	59	17_11_17_4897110
0.008789	-0.711914	-0.014648	-0.187486	0.243732	-0.187486	0.644531	0.878906	0.480469	60	17_11_17_5058400
-0.005859	-0.720703	-0.017578	-0.196861	0.243732	-0.187486	0.632813	0.796875	0.480469	61	17_11_17_5219690
0.000000	-0.720703	-0.017578	-0.187486	0.243732	-0.178112	0.644531	0.820313	0.457031	62	17_11_17_5380980
0.008789	-0.708984	-0.020508	-0.187486	0.243732	-0.178112	0.609375	0.773438	0.468750	63	17_11_17_5542270
0.000000	-0.714844	-0.005859	-0.187486	0.243732	-0.187486	0.597656	0.843750	0.480469	64	17_11_17_5703560
-0.005859	-0.720703	-0.026367	-0.196861	0.243732	-0.178112	0.621094	0.890625	0.480469	65	17_11_17_5864850
-0.011719	-0.720703	-0.026367	-0.196861	0.243732	-0.178112	0.632813	0.902344	0.468750	66	17_11_17_6026140
-0.008789	-0.717773	-0.026367	-0.187486	0.243732	-0.178112	0.585938	0.832031	0.457031	67	17_11_17_6187430
0.005859	-0.717773	-0.014648	-0.196861	0.234358	-0.178112	0.609375	0.902344	0.457031	68	17_11_17_6348720
0.005859	-0.720703	-0.011719	-0.187486	0.234358	-0.178112	0.609375	0.914063	0.433594	69	17_11_17_6510010
0.002930	-0.723633	-0.017578	-0.187486	0.234358	-0.178112	0.632813	0.855469	0.457031	70	17_11_17_6671300
0.005859	-0.708984	-0.017578	-0.187486	0.234358	-0.178112	0.632813	0.808594	0.480469	71	17_11_17_6832590
0.002930	-0.711914	-0.026367	-0.187486	0.234358	-0.178112	0.644531	0.796875	0.457031	72	17_11_17_6993880
0.008789	-0.726563	-0.020508	-0.196861	0.234358	-0.178112	0.656250	0.855469	0.457031	73	17_11_17_7155170
0.014648	-0.723633	-0.023438	-0.196861	0.243732	-0.187486	0.632813	0.820313	0.468750	74	17_11_17_7316460
0.011719	-0.717773	-0.014648	-0.196861	0.243732	-0.187486	0.656250	0.902344	0.433594	75	17_11_17_7477750
0.005859	-0.714844	-0.020508	-0.196861	0.243732	-0.187486	0.878906	1.359375	0.457031	76	17_11_17_7639040
0.005859	-0.720703	-0.014648	-0.196861	0.243732	-0.187486	0.609375	0.761719	0.457031	77	17_11_17_7800330
0.005859	-0.726563	-0.020508	-0.187486	0.243732	-0.187486	0.691406	1.242188	0.527344	78	17_11_17_7961620
0.002930	-0.717773	-0.020508	-0.206235	0.243732	-0.178112	0.632813	0.808594	0.468750	79	17_11_17_8122910
0.000000	-0.723633	-0.026367	-0.196861	0.243732	-0.178112	0.621094	0.867188	0.457031	80	17_11_17_8284200
0.000000	-0.720703	-0.020508	-0.196861	0.243732	-0.178112	0.667969	0.914063	0.457031	81	17_11_17_8445490
0.000000	-0.708984	-0.014648	-0.196861	0.234358	-0.178112	0.644531	0.890625	0.445313	82	17_11_17_8606780
-0.002930	-0.714844	-0.014648	-0.187486	0.234358	-0.178112	0.761719	1.078125	0.457031	83	17_11_17_8768070
0.000000	-0.717773	-0.011719	-0.187486	0.234358	-0.178112	0.621094	0.796875	0.468750	84	17_11_17_8929360
0.008789	-0.717773	-0.014648	-0.178112	0.234358	-0.178112	0.902344	1.195313	0.492188	85	17_11_17_9090650
0.017578	-0.723633	-0.011719	-0.187486	0.234358	-0.178112	0.644531	0.867188	0.457031	86	17_11_17_9251940
0.005859	-0.723633	-0.014648	-0.187486	0.234358	-0.178112	0.574219	0.855469	0.457031	87	17_11_17_9413230
0.000000	-0.726563	-0.017578	-0.187486	0.243732	-0.178112	0.609375	0.867188	0.457031	88	17_11_17_9574520
-0.005859	-0.726563	-0.011719	-0.187486	0.243732	-0.178112	0.667969	1.113281	0.480469	89	17_11_17_9735810
-0.002930	-0.720703	-0.014648	-0.196861	0.243732	-0.178112	0.609375	0.902344	0.445313	90	17_11_17_9897100
-0.005859	-0.723633	-0.011719	-0.196861	0.243732	-0.187486	0.632813	0.914063	0.457031	91	17_11_18_0058390
0.011719	-0.720703	-0.017578	-0.196861	0.253107	-0.187486	0.597656	0.843750	0.468750	92	17_11_18_0219680
0.000000	-0.708984	-0.017578	-0.206235	0.253107	-0.187486	0.632813	0.937500	0.457031	93	17_11_18_0380970
-0.008789	-0.720703	-0.017578	-0.196861	0.243732	-0.178112	0.621094	0.972656	0.445313	94	17_11_18_0542260
-0.005859	-0.720703	-0.014648	-0.196861	0.253107	-0.187486	0.632813	0.890625	0.492188	95	17_11_18_0703550
0.005859	-0.711914	-0.020508	-0.187486	0.243732	-0.178112	0.632813	0.808594	0.492188	96	17_11_18_0864840
0.002930	-0.723633	-0.020508	-0.196861	0.243732	-0.187486	0.644531	0.843750	0.433594	97	17_11_18_1026130
-0.005859	-0.717773	-0.017578	-0.196861	0.253107	-0.187486	0.726563	1.347656	0.527344	98	17_11_18_1187420
0.002930	-0.729492	-0.017578	-0.187486	0.243732	-0.187486	0.667969	0.984375	0.457031	99	17_11_18_1348710
-0.002930	-0.726563	-0.014648	-0.187486	0.234358	-0.178112	0.597656	0.867188	0.480469	100	17_11_18_1510000
0.017578	-0.720703	-0.020508	-0.196861	0.234358	-0.178112	0.597656	0.867188	0.492188	101	17_11_18_1671290
-0.002930	-0.717773	-0.020508	-0.196861	0.243732	-0.178112	0.632813	0.796875	0.468750	102	17_11_18_1832580
0.005859	-0.729492	-0.020508	-0.196861	0.243732	-0.178112	0.632813	0.796875	0.457031	103	17_11_18_1993870
0.005859	-0.717773	-0.014648	-0.206235	0.243732	-0.187486	0.632813	0.843750	0.457031	104	17_11_18_2155160
-0.002930	-0.711914	-0.014648	-0.206235	0.243732	-0.187486	0.597656	0.890625	0.492188	105	17_11_18_2316450
0.000000	-0.720703	-0.014648	-0.196861	0.243732	-0.187486	0.644531	0.832031	0.503906	106	17_11_18_2477740
0.014648	-0.703125	-0.014648	-0.196861	0.243732	-0.187486	0.621094	0.855469	0.492188	107	17_11_18_2639030
0.000000	-0.703125	-0.002930	-0.196861	0.243732	-0.187486	0.632813	0.878906	0.480469	108	17_11_18_2800320
0.011719	-0.723633	-0.020508	-0.187486	0.253107	-0.187486	0.621094	0.796875	0.457031	109	17_11_18_2961610
0.005859	-0.717773	-0.020508	-0.196861	0.243732	-0.187486	0.621094	0.750000	0.457031	110	17_11_18_3122900
-0.008789	-0.714844	-0.017578	-0.187486	0.243732	-0.159363	0.656250	0.890625	0.468750	111	17_11_18_3284190
-0.002930	-0.703125	-0.020508	-0.196861	0.243732	-0.178112	0.644531	0.773438	0.445313	112	17_11_18_3445480
-0.005859	-0.714844	-0.020508	-0.178112	0.243732	-0.178112	0.726563	0.960938	0.480469	113	17_11_18_3606770
0.008789	-0.720703	-0.014648	-0.196861	0.243732	-0.178112	0.609375	0.902344	0.480469	114	17_11_18_3768060
0.002930	-0.720703	-0.026367	-0.187486	0.243732	-0.187486	0.632813	0.867188	0.480469	115	17_11_18_3929350
-0.005859	-0.720703	-0.014648	-0.187486	0.243732	-0.187486	0.597656	0.878906	0.480469	116	17_11_18_4090640
-0.008789	-0.711914	-0.017578	-0.187486	0.234358	-0.178112	0.621094	0.867188	0.457031	117	17_11_18_4251930
-0.005859	-0.723633	-0.029297	-0.196861	0.234358	-0.178112	0.656250	0.855469	0.445313	118	17_11_18_4413220
0.000000	-0.711914	-0.017578	-0.196861	0.243732	-0.178112	0.632813	0.890625	0.468750	119	17_11_18_4574510
-0.002930	-0.720703	-0.011719	-0.187486	0.243732	-0.178112	0.703125	0.960938	0.480469	120	17_11_18_4735800
0.000000	-0.714844	-0.011719	-0.187486	0.234358	-0.178112	0.644531	0.820313	0.468750	121	17_11_18_4897090
0.008789	-0.720703	-0.020508	-0.187486	0.224984	-0.178112	0.632813	0.843750	0.468750	122	17_11_18_5058380
0.017578	-0.717773	-0.020508	-0.196861	0.224984	-0.187486	0.644531	0.937500	0.468750	123	17_11_18_5219670
0.011719	-0.720703	-0.008789	-0.187486	0.243732	-0.178112	0.621094	0.914063	0.468750	124	17_11_18_5380960
0.014648	-0.708984	-0.017578	-0.206235	0.243732	-0.178112	0.632813	0.867188	0.480469	125	17_11_18_5542250
0.002930	-0.732422	-0.011719	-0.196861	0.243732	-0.178112	0.632813	0.785156	0.468750	126	17_11_18_5703540
0.008789	-0.717773	-0.020508	-0.196861	0.243732	-0.178112	0.632813	0.820313	0.433594	127	17_11_18_5864830
0.002930	-0.720703	-0.008789	-0.196861	0.243732	-0.178112	0.621094	0.867188	0.457031	128	17_11_18_6026120
-0.002930	-0.714844	-0.011719	-0.206235	0.243732	-0.187486	0.632813	0.867188	0.468750	129	17_11_18_6187410
-0.005859	-0.708984	-0.023438	-0.187486	0.243732	-0.178112	0.632813	0.867188	0.480469	130	17_11_18_6348700
-0.011719	-0.723633	-0.020508	-0.187486	0.234358	-0.187486	0.656250	0.773438	0.457031	131	17_11_18_6509990
-0.005859	-0.723633	-0.023438	-0.187486	0.234358	-0.178112	0.632813	0.820313	0.457031	132	17_11_18_6671280
0.005859	-0.723633	-0.023438	-0.196861	0.234358	-0.178112	0.609375	0.925781	0.492188	133	17_11_18_6832570
0.005859	-0.729492	-0.011719	-0.187486	0.234358	-0.187486	0.644531	0.867188	0.480469	134	17_11_18_6993860
-0.005859	-0.729492	-0.017578	-0.196861	0.234358	-0.178112	0.644531	0.808594	0.457031	135	17_11_18_7155150
0.014648	-0.711914	-0.017578	-0.196861	0.234358	-0.178112	0.656250	0.867188	0.457031	136	17_11_18_7316440
-0.002930	-0.708984	-0.014648	-0.187486	0.234358	-0.178112	0.644531	0.832031	0.468750	137	17_11_18_7477730
0.014648	-0.708984	-0.008789	-0.187486	0.234358	-0.178112	0.644531	0.890625	0.457031	138	17_11_18_7639020
0.005859	-0.711914	-0.008789	-0.187486	0.243732	-0.178112	0.644531	0.960938	0.457031	139	17_11_18_7800310
-0.002930	-0.723633	-0.008789	-0.187486	0.243732	-0.178112	0.679688	1.324219	0.503906	140	17_11_18_7961600
0.005859	-0.717773	-0.023438	-0.196861	0.243732	-0.178112	0.632813	0.937500	0.503906	141	17_11_18_8122890
-0.005859	-0.723633	-0.005859	-0.196861	0.243732	-0.187486	0.621094	0.808594	0.468750	142	17_11_18_8284180
-0.005859	-0.723633	-0.020508	-0.187486	0.243732	-0.178112	0.644531	0.820313	0.468750	143	17_11_18_8445470
0.000000	-0.720703	-0.020508	-0.196861	0.243732	-0.178112	0.621094	0.890625	0.480469	144	17_11_18_8606760
0.002930	-0.708984	-0.011719	-0.196861	0.243732	-0.178112	0.632813	0.832031	0.457031	145	17_11_18_8768050
0.002930	-0.723633	-0.002930	-0.187486	0.243732	-0.187486	0.644531	0.832031	0.457031	146	17_11_18_8929340
0.005859	-0.708984	-0.011719	-0.187486	0.243732	-0.187486	0.832031	1.183594	0.503906	147	17_11_18_9090630
0.005859	-0.714844	-0.017578	-0.196861	0.243732	-0.187486	0.632813	0.890625	0.503906	148	17_11_18_9251920
-0.005859	-0.726563	-0.026367	-0.187486	0.243732	-0.187486	0.656250	0.949219	0.480469	149	17_11_18_9413210
0.011719	-0.714844	-0.014648	-0.187486	0.253107	-0.178112	0.621094	0.867188	0.457031	150	17_11_18_9574500
0.000000	-0.714844	-0.017578	-0.196861	0.243732	-0.187486	0.644531	0.843750	0.468750	151	17_11_18_9735790
-0.008789	-0.720703	-0.008789	-0.187486	0.253107	-0.187486	0.644531	0.855469	0.550781	152	17_11_18_9897080
-0.011719	-0.717773	-0.014648	-0.196861	0.253107	-0.187486	0.621094	0.820313	0.480469	153	17_11_19_0058370
-0.005859	-0.714844	-0.017578	-0.196861	0.243732	-0.187486	0.621094	0.855469	0.468750	154	17_11_19_0219660
0.002930	-0.717773	-0.017578	-0.196861	0.234358	-0.187486	0.621094	0.878906	0.468750	155	17_11_19_0380950
0.000000	-0.708984	-0.017578	-0.196861	0.243732	-0.178112	0.644531	0.843750	0.457031	156	17_11_19_0542240
0.008789	-0.714844	-0.014648	-0.187486	0.243732	-0.187486	0.597656	0.867188	0.457031	157	17_11_19_0703530
0.011719	-0.714844	-0.017578	-0.196861	0.243732	-0.187486	0.609375	0.867188	0.445313	158	17_11_19_0864820
0.002930	-0.720703	-0.023438	-0.187486	0.243732	-0.187486	0.632813	0.820313	0.457031	159	17_11_19_1026110
0.000000	-0.720703	-0.014648	-0.187486	0.243732	-0.178112	0.621094	0.761719	0.457031	160	17_11_19_1187400
0.002930	-0.720703	-0.014648	-0.196861	0.243732	-0.178112	0.644531	0.820313	0.445313	161	17_11_19_1348690
-0.005859	-0.714844	-0.020508	-0.196861	0.243732	-0.178112	0.632813	0.785156	0.433594	162	17_11_19_1509980
0.005859	-0.720703	-0.011719	-0.187486	0.243732	-0.178112	0.656250	0.796875	0.457031	163	17_11_19_1671270
-0.011719	-0.711914	-0.008789	-0.196861	0.243732	-0.178112	0.644531	0.820313	0.457031	164	17_11_19_1832560
-0.008789	-0.708984	-0.011719	-0.187486	0.243732	-0.178112	0.609375	0.855469	0.468750	165	17_11_19_1993850
0.005859	-0.717773	-0.020508	-0.187486	0.243732	-0.178112	0.609375	0.925781	0.468750	166	17_11_19_2155140
0.002930	-0.720703	-0.014648	-0.187486	0.243732	-0.178112	0.761719	1.007813	0.480469	167	17_11_19_2316430
0.005859	-0.726563	-0.014648	-0.187486	0.243732	-0.187486	0.609375	0.808594	0.457031	168	17_11_19_2477720
0.002930	-0.711914	-0.020508	-0.187486	0.243732	-0.178112	0.632813	0.925781	0.445313	169	17_11_19_2639010
0.011719	-0.720703	-0.014648	-0.187486	0.243732	-0.178112	0.609375	0.914063	0.445313	170	17_11_19_2800300
0.005859	-0.720703	-0.008789	-0.187486	0.253107	-0.178112	0.738281	1.394531	0.457031	171	17_11_19_2961590
0.002930	-0.708984	-0.011719	-0.187486	0.243732	-0.187486	0.621094	0.867188	0.433594	172	17_11_19_3122880
0.005859	-0.717773	-0.014648	-0.187486	0.243732	-0.178112	0.679688	0.843750	0.457031	173	17_11_19_3284170
0.005859	-0.720703	-0.023438	-0.187486	0.253107	-0.178112	0.609375	0.808594	0.445313	174	17_11_19_3445460
0.005859	-0.720703	-0.026367	-0.196861	0.253107	-0.178112	0.621094	0.820313	0.457031	175	17_11_19_3606750
-0.017578	-0.711914	-0.014648	-0.187486	0.243732	-0.187486	0.632813	0.914063	0.480469	176	17_11_19_3768040
-0.011719	-0.720703	-0.014648	-0.187486	0.243732	-0.178112	0.609375	0.878906	0.503906	177	17_11_19_3929330
0.002930	-0.720703	-0.020508	-0.187486	0.243732	-0.178112	0.738281	0.984375	0.503906	178	17_11_19_4090620
0.000000	-0.723633	-0.014648	-0.187486	0.243732	-0.178112	0.609375	0.902344	0.457031	179	17_11_19_4251910
0.002930	-0.708984	-0.014648	-0.187486	0.243732	-0.187486	0.609375	0.914063	0.433594	180	17_11_19_4413200
-0.011719	-0.714844	-0.005859	-0.196861	0.253107	-0.178112	0.632813	0.937500	0.433594	181	17_11_19_4574490
0.002930	-0.717773	-0.014648	-0.196861	0.243732	-0.187486	0.632813	0.914063	0.468750	182	17_11_19_4735780
-0.011719	-0.714844	-0.011719	-0.187486	0.243732	-0.178112	0.644531	0.855469	0.503906	183	17_11_19_4897070
-0.008789	-0.717773	-0.020508	-0.187486	0.253107	-0.178112	0.597656	0.832031	0.503906	184	17_11_19_5058360
0.005859	-0.714844	-0.020508	-0.187486	0.243732	-0.178112	0.609375	0.878906	0.480469	185	17_11_19_5219650
0.000000	-0.717773	-0.026367	-0.187486	0.253107	-0.178112	0.621094	0.914063	0.468750	186	17_11_19_5380940
-0.011719	-0.714844	-0.026367	-0.196861	0.243732	-0.178112	0.632813	0.832031	0.468750	187	17_11_19_5542230
-0.002930	-0.708984	-0.014648	-0.187486	0.243732	-0.178112	0.667969	0.937500	0.503906	188	17_11_19_5703520
0.000000	-0.714844	-0.008789	-0.196861	0.234358	-0.178112	0.621094	0.914063	0.457031	189	17_11_19_5864810
0.011719	-0.723633	-0.002930	-0.187486	0.234358	-0.178112	0.621094	0.937500	0.445313	190	17_11_19_6026100
0.005859	-0.714844	-0.011719	-0.187486	0.234358	-0.178112	0.621094	0.878906	0.457031	191	17_11_19_6187390
0.008789	-0.726563	-0.020508	-0.187486	0.243732	-0.178112	0.632813	0.820313	0.445313	192	17_11_19_6348680
0.026367	-0.729492	-0.002930	-0.187486	0.243732	-0.187486	0.656250	0.867188	0.480469	193	17_11_19_6509970
-0.005859	-0.723633	-0.014648	-0.187486	0.262481	-0.187486	0.609375	0.878906	0.468750	194	17_11_19_6671260
0.014648	-0.723633	-0.020508	-0.196861	0.262481	-0.178112	0.632813	0.785156	0.457031	195	17_11_19_6832550
0.005859	-0.708984	-0.026367	-0.187486	0.262481	-0.187486	0.714844	0.925781	0.468750	196	17_11_19_6993840
0.000000	-0.708984	-0.014648	-0.196861	0.253107	-0.178112	0.632813	0.855469	0.457031	197	17_11_19_7155130
-0.014648	-0.714844	-0.023438	-0.187486	0.243732	-0.178112	0.656250	0.750000	0.468750	198	17_11_19_7316420
0.000000	-0.729492	-0.023438	-0.187486	0.243732	-0.178112	0.644531	0.773438	0.457031	199	17_11_19_7477710
0.008789	-0.714844	-0.020508	-0.187486	0.243732	-0.178112	0.632813	0.867188	0.468750	200	17_11_19_7639000
0.002930	-0.720703	-0.023438	-0.187486	0.243732	-0.178112	0.597656	0.867188	0.468750	201	17_11_19_7800290
0.000000	-0.723633	-0.020508	-0.187486	0.234358	-0.178112	0.632813	0.890625	0.457031	202	17_11_19_7961580
-0.002930	-0.717773	-0.017578	-0.196861	0.234358	-0.178112	0.609375	0.867188	0.445313	203	17_11_19_8122870
0.017578	-0.711914	-0.014648	-0.187486	0.234358	-0.178112	0.667969	0.867188	0.421875	204	17_11_19_8284160
0.014648	-0.720703	-0.014648	-0.196861	0.234358	-0.178112	0.644531	0.796875	0.421875	205	17_11_19_8445450
0.017578	-0.720703	-0.011719	-0.187486	0.243732	-0.178112	0.585938	0.785156	0.421875	206	17_11_19_8606740
0.002930	-0.720703	-0.008789	-0.187486	0.243732	-0.187486	0.644531	0.902344	0.445313	207	17_11_19_8768030
0.002930	-0.714844	-0.026367	-0.196861	0.243732	-0.178112	0.644531	0.925781	0.468750	208	17_11_19_8929320
0.000000	-0.720703	-0.014648	-0.196861	0.243732	-0.178112	0.621094	0.808594	0.480469	209	17_11_19_9090610
0.005859	-0.720703	-0.017578	-0.196861	0.243732	-0.187486	0.644531	0.855469	0.457031	210	17_11_19_9251900
0.008789	-0.714844	-0.026367	-0.196861	0.243732	-0.178112	0.632813	0.914063	0.421875	211	17_11_19_9413190
-0.002930	-0.711914	-0.011719	-0.196861	0.243732	-0.178112	0.644531	0.878906	0.445313	212	17_11_19_9574480
0.000000	-0.720703	-0.017578	-0.196861	0.243732	-0.178112	0.644531	0.902344	0.457031	213	17_11_19_9735770
0.008789	-0.720703	-0.017578	-0.196861	0.243732	-0.178112	0.656250	0.914063	0.503906	214	17_11_19_9897060
-0.008789	-0.720703	-0.011719	-0.187486	0.234358	-0.178112	0.644531	0.796875	0.480469	215	17_11_20_0058350
-0.002930	-0.714844	-0.011719	-0.187486	0.234358	-0.178112	0.703125	0.808594	0.468750	216	17_11_20_0219640
-0.008789	-0.720703	-0.008789	-0.187486	0.243732	-0.178112	0.585938	0.773438	0.457031	217	17_11_20_0380930
0.002930	-0.720703	-0.014648	-0.196861	0.243732	-0.178112	0.632813	0.843750	0.457031	218	17_11_20_0542220
0.000000	-0.723633	-0.011719	-0.196861	0.243732	-0.178112	0.644531	0.820313	0.457031	219	17_11_20_0703510
0.000000	-0.723633	-0.020508	-0.196861	0.243732	-0.178112	0.609375	0.832031	0.445313	220	17_11_20_0864800
0.002930	-0.720703	-0.026367	-0.196861	0.243732	-0.178112	0.609375	0.890625	0.433594	221	17_11_20_1026090
0.011719	-0.711914	-0.014648	-0.187486	0.234358	-0.178112	0.820313	1.546875	0.503906	222	17_11_20_1187380
0.008789	-0.714844	-0.017578	-0.187486	0.234358	-0.178112	0.667969	1.042969	0.527344	223	17_11_20_1348670
0.005859	-0.711914	-0.008789	-0.196861	0.243732	-0.178112	0.609375	0.796875	0.445313	224	17_11_20_1509960
0.005859	-0.720703	-0.011719	-0.196861	0.243732	-0.178112	0.644531	0.820313	0.457031	225	17_11_20_1671250
0.002930	-0.723633	-0.023438	-0.196861	0.243732	-0.178112	0.597656	0.808594	0.468750	226	17_11_20_1832540
0.005859	-0.720703	-0.026367	-0.196861	0.243732	-0.178112	0.609375	0.820313	0.468750	227	17_11_20_1993830
-0.005859	-0.723633	-0.023438	-0.187486	0.243732	-0.187486	0.714844	0.937500	0.480469	228	17_11_20_2155120
-0.002930	-0.706055	-0.020508	-0.196861	0.243732	-0.178112	0.609375	0.820313	0.457031	229	17_11_20_2316410
0.000000	-0.729492	-0.023438	-0.196861	0.234358	-0.178112	0.632813	0.832031	0.421875	230	17_11_20_2477700
0.000000	-0.729492	-0.011719	-0.187486	0.234358	-0.178112	0.597656	0.855469	0.433594	231	17_11_20_2638990
0.005859	-0.723633	-0.014648	-0.196861	0.234358	-0.178112	0.644531	0.867188	0.457031	232	17_11_20_2800280
0.002930	-0.726563	-0.014648	-0.178112	0.243732	-0.178112	0.738281	1.183594	0.480469	233	17_11_20_2961570
0.005859	-0.717773	-0.005859	-0.196861	0.243732	-0.178112	0.632813	0.890625	0.503906	234	17_11_20_3122860
0.000000	-0.723633	-0.017578	-0.187486	0.243732	-0.178112	0.632813	0.820313	0.457031	235	17_11_20_3284150
0.002930	-0.717773	-0.017578	-0.187486	0.243732	-0.178112	0.644531	0.820313	0.433594	236	17_11_20_3445440
0.002930	-0.723633	-0.008789	-0.196861	0.243732	-0.178112	0.621094	0.843750	0.457031	237	17_11_20_3606730
0.008789	-0.717773	-0.020508	-0.187486	0.253107	-0.178112	0.621094	0.902344	0.492188	238	17_11_20_3768020
-0.005859	-0.720703	-0.017578	-0.187486	0.253107	-0.187486	0.621094	0.796875	0.480469	239	17_11_20_3929310
0.002930	-0.714844	-0.014648	-0.187486	0.243732	-0.178112	0.621094	0.808594	0.492188	240	17_11_20_4090600
-0.005859	-0.729492	-0.020508	-0.187486	0.243732	-0.178112	0.667969	0.914063	0.457031	241	17_11_20_4251890
-0.005859	-0.720703	-0.023438	-0.196861	0.243732	-0.178112	0.621094	0.855469	0.433594	242	17_11_20_4413180
0.002930	-0.720703	-0.017578	-0.196861	0.243732	-0.178112	0.597656	0.820313	0.457031	243	17_11_20_4574470
0.005859	-0.732422	-0.020508	-0.196861	0.234358	-0.178112	0.609375	0.820313	0.468750	244	17_11_20_4735760
0.008789	-0.717773	-0.005859	-0.187486	0.243732	-0.178112	0.609375	0.937500	0.468750	245	17_11_20_4897050
0.000000	-0.708984	-0.011719	-0.187486	0.243732	-0.187486	0.656250	0.914063	0.480469	246	17_11_20_5058340
0.005859	-0.723633	-0.014648	-0.196861	0.243732	-0.178112	0.609375	0.785156	0.480469	247	17_11_20_5219630
0.005859	-0.729492	-0.026367	-0.187486	0.243732	-0.187486	0.632813	0.867188	0.480469	248	17_11_20_5380920
0.008789	-0.714844	-0.020508	-0.196861	0.253107	-0.187486	0.644531	0.960938	0.457031	249	17_11_20_5542210
-0.002930	-0.717773	-0.020508	-0.196861	0.253107	-0.187486	0.621094	0.902344	0.468750	250	17_11_20_5703500
0.005859	-0.714844	-0.014648	-0.196861	0.243732	-0.187486	0.632813	0.867188	0.457031	251	17_11_20_5864790
0.002930	-0.723633	-0.023438	-0.196861	0.243732	-0.187486	0.609375	0.902344	0.457031	252	17_11_20_6026080
0.002930	-0.717773	-0.011719	-0.196861	0.243732	-0.178112	0.761719	1.160156	0.503906	253	17_11_20_6187370
0.002930	-0.720703	-0.014648	-0.196861	0.243732	-0.178112	0.621094	0.820313	0.457031	254	17_11_20_6348660
0.002930	-0.717773	-0.023438	-0.187486	0.253107	-0.178112	0.632813	0.820313	0.457031	255	17_11_20_6509950
0.005859	-0.711914	-0.026367	-0.196861	0.243732	-0.178112	0.621094	0.808594	0.468750	256	17_11_20_6671240
0.002930	-0.708984	-0.014648	-0.187486	0.243732	-0.178112	0.632813	0.820313	0.480469	257	17_11_20_6832530
-0.002930	-0.720703	-0.011719	-0.187486	0.243732	-0.178112	0.656250	0.902344	0.457031	258	17_11_20_6993820
0.002930	-0.723633	-0.008789	-0.187486	0.234358	-0.178112	0.621094	0.890625	0.445313	259	17_11_20_7155110
-0.002930	-0.714844	-0.017578	-0.187486	0.243732	-0.178112	0.597656	0.937500	0.468750	260	17_11_20_7316400
0.005859	-0.732422	-0.014648	-0.187486	0.243732	-0.178112	0.632813	0.843750	0.468750	261	17_11_20_7477690
0.005859	-0.723633	-0.011719	-0.187486	0.243732	-0.187486	0.820313	1.078125	0.468750	262	17_11_20_7638980
-0.002930	-0.723633	-0.017578	-0.187486	0.243732	-0.187486	0.785156	1.207031	0.480469	263	17_11_20_7800270
0.000000	-0.732422	-0.020508	-0.196861	0.243732	-0.187486	0.644531	0.914063	0.457031	264	17_11_20_7961560
0.011719	-0.714844	-0.026367	-0.196861	0.243732	-0.178112	0.632813	0.890625	0.445313	265	17_11_20_8122850
0.011719	-0.735352	-0.017578	-0.196861	0.243732	-0.187486	0.644531	0.937500	0.468750	266	17_11_20_8284140
-0.002930	-0.720703	-0.020508	-0.196861	0.243732	-0.187486	0.609375	0.914063	0.468750	267	17_11_20_8445430
0.002930	-0.714844	-0.026367	-0.196861	0.243732	-0.187486	0.609375	0.867188	0.492188	268	17_11_20_8606720
0.000000	-0.717773	-0.020508	-0.196861	0.243732	-0.187486	0.621094	0.902344	0.480469	269	17_11_20_8768010
0.002930	-0.717773	-0.023438	-0.187486	0.243732	-0.178112	0.632813	0.914063	0.457031	270	17_11_20_8929300
-0.002930	-0.714844	-0.020508	-0.196861	0.243732	-0.178112	0.609375	0.796875	0.480469	271	17_11_20_9090590
-0.002930	-0.714844	-0.020508	-0.196861	0.243732	-0.178112	0.621094	0.843750	0.457031	272	17_11_20_9251880
0.002930	-0.717773	-0.026367	-0.187486	0.243732	-0.178112	0.644531	0.832031	0.457031	273	17_11_20_9413170
0.005859	-0.723633	-0.011719	-0.196861	0.234358	-0.178112	0.609375	0.855469	0.468750	274	17_11_20_9574460
0.005859	-0.714844	-0.017578	-0.187486	0.243732	-0.178112	0.656250	1.066406	0.539063	275	17_11_20_9735750
0.000000	-0.720703	-0.011719	-0.187486	0.243732	-0.178112	0.632813	0.796875	0.480469	276	17_11_20_9897040
0.008789	-0.720703	-0.014648	-0.196861	0.243732	-0.178112	0.632813	0.808594	0.468750	277	17_11_21_0058330
0.005859	-0.732422	-0.008789	-0.187486	0.243732	-0.178112	0.632813	0.738281	0.457031	278	17_11_21_0219620
0.014648	-0.706055	-0.023438	-0.187486	0.243732	-0.178112	0.621094	0.808594	0.480469	279	17_11_21_0380910
0.002930	-0.711914	-0.023438	-0.178112	0.243732	-0.178112	0.621094	0.914063	0.503906	280	17_11_21_0542200
-0.005859	-0.720703	-0.020508	-0.196861	0.243732	-0.187486	0.644531	0.820313	0.480469	281	17_11_21_0703490
-0.002930	-0.726563	-0.020508	-0.187486	0.253107	-0.178112	0.632813	0.878906	0.457031	282	17_11_21_0864780
-0.005859	-0.723633	-0.023438	-0.196861	0.243732	-0.187486	0.632813	0.867188	0.457031	283	17_11_21_1026070
-0.005859	-0.711914	-0.014648	-0.196861	0.243732	-0.187486	0.597656	0.820313	0.457031	284	17_11_21_1187360
0.005859	-0.726563	-0.020508	-0.196861	0.243732	-0.178112	0.656250	0.808594	0.480469	285	17_11_21_1348650
0.005859	-0.711914	-0.026367	-0.196861	0.243732	-0.178112	0.632813	0.902344	0.480469	286	17_11_21_1509940
0.002930	-0.708984	-0.017578	-0.187486	0.243732	-0.187486	0.644531	0.890625	0.457031	287	17_11_21_1671230
0.014648	-0.720703	-0.026367	-0.196861	0.243732	-0.187486	0.609375	0.820313	0.468750	288	17_11_21_1832520
-0.005859	-0.723633	-0.017578	-0.187486	0.243732	-0.187486	0.632813	0.867188	0.468750	289	17_11_21_1993810
0.005859	-0.714844	-0.011719	-0.196861	0.243732	-0.187486	0.621094	0.914063	0.468750	290	17_11_21_2155100
-0.005859	-0.723633	-0.026367	-0.187486	0.243732	-0.178112	0.714844	1.007813	0.480469	291	17_11_21_2316390
-0.005859	-0.726563	-0.017578	-0.196861	0.243732	-0.178112	0.632813	0.796875	0.468750	292	17_11_21_2477680
-0.002930	-0.714844	-0.008789	-0.196861	0.243732	-0.178112	0.632813	0.832031	0.445313	293	17_11_21_2638970
0.000000	-0.708984	-0.014648	-0.196861	0.243732	-0.178112	0.632813	0.796875	0.433594	294	17_11_21_2800260
-0.008789	-0.720703	-0.017578	-0.196861	0.243732	-0.187486	0.609375	0.726563	0.433594	295	17_11_21_2961550
0.000000	-0.717773	-0.005859	-0.196861	0.234358	-0.187486	0.609375	0.867188	0.445313	296	17_11_21_3122840
0.011719	-0.720703	-0.017578	-0.196861	0.234358	-0.187486	0.632813	0.843750	0.457031	297	17_11_21_3284130
0.011719	-0.723633	-0.011719	-0.187486	0.234358	-0.178112	0.656250	0.890625	0.492188	298	17_11_21_3445420
0.000000	-0.720703	-0.008789	-0.196861	0.234358	-0.187486	0.632813	0.890625	0.457031	299	17_11_21_3606710
0.005859	-0.729492	-0.008789	-0.196861	0.234358	-0.178112	0.621094	0.902344	0.433594	300	17_11_21_3768000
0.008789	-0.720703	-0.026367	-0.196861	0.243732	-0.178112	0.574219	0.902344	0.457031	301	17_11_21_3929290
0.000000	-0.717773	-0.020508	-0.196861	0.243732	-0.187486	0.632813	0.832031	0.468750	302	17_11_21_4090580
0.005859	-0.708984	-0.026367	-0.187486	0.243732	-0.187486	0.609375	0.796875	0.457031	303	17_11_21_4251870
0.008789	-0.714844	-0.020508	-0.196861	0.243732	-0.187486	0.621094	0.843750	0.457031	304	17_11_21_4413160
0.000000	-0.717773	-0.020508	-0.196861	0.243732	-0.187486	0.632813	0.925781	0.457031	305	17_11_21_4574450
0.000000	-0.720703	-0.014648	-0.196861	0.243732	-0.187486	0.632813	0.890625	0.433594	306	17_11_21_4735740
-0.005859	-0.729492	-0.020508	-0.196861	0.234358	-0.187486	0.656250	0.820313	0.445313	307	17_11_21_4897030
-0.005859	-0.723633	-0.020508	-0.196861	0.243732	-0.187486	0.632813	0.890625	0.503906	308	17_11_21_5058320
-0.011719	-0.723633	-0.032227	-0.196861	0.243732	-0.187486	0.632813	0.878906	0.457031	309	17_11_21_5219610
-0.005859	-0.720703	-0.023438	-0.187486	0.243732	-0.187486	0.609375	0.832031	0.492188	310	17_11_21_5380900
-0.005859	-0.708984	-0.020508	-0.196861	0.234358	-0.187486	0.644531	0.796875	0.503906	311	17_11_21_5542190
0.005859	-0.732422	-0.014648	-0.196861	0.234358	-0.187486	0.738281	1.042969	0.468750	312	17_11_21_5703480
0.002930	-0.706055	-0.014648	-0.196861	0.234358	-0.178112	0.609375	0.843750	0.433594	313	17_11_21_5864770
0.014648	-0.711914	-0.008789	-0.196861	0.243732	-0.187486	0.621094	0.820313	0.433594	314	17_11_21_6026060
0.005859	-0.714844	-0.017578	-0.196861	0.243732	-0.178112	0.609375	0.820313	0.445313	315	17_11_21_6187350
0.002930	-0.714844	-0.017578	-0.187486	0.243732	-0.187486	0.632813	0.890625	0.445313	316	17_11_21_6348640
0.002930	-0.714844	-0.023438	-0.196861	0.243732	-0.178112	0.632813	0.855469	0.433594	317	17_11_21_6509930
-0.002930	-0.729492	-0.026367	-0.196861	0.243732	-0.187486	0.632813	0.855469	0.457031	318	17_11_21_6671220
-0.002930	-0.720703	-0.026367	-0.187486	0.243732	-0.178112	0.632813	0.832031	0.468750	319	17_11_21_6832510
-0.005859	-0.732422	-0.026367	-0.196861	0.243732	-0.178112	0.632813	0.902344	0.468750	320	17_11_21_6993800
-0.002930	-0.720703	-0.020508	-0.196861	0.243732	-0.178112	0.632813	0.843750	0.445313	321	17_11_21_7155090
0.002930	-0.720703	-0.008789	-0.196861	0.243732	-0.178112	0.644531	0.855469	0.457031	322	17_11_21_7316380
-0.005859	-0.720703	-0.017578	-0.196861	0.243732	-0.178112	0.632813	0.890625	0.468750	323	17_11_21_7477670
-0.005859	-0.720703	-0.014648	-0.187486	0.243732	-0.187486	0.621094	0.832031	0.468750	324	17_11_21_7638960
0.002930	-0.723633	-0.011719	-0.196861	0.243732	-0.178112	0.597656	0.855469	0.457031	325	17_11_21_7800250
-0.002930	-0.726563	-0.014648	-0.196861	0.243732	-0.178112	0.597656	0.878906	0.457031	326	17_11_21_7961540
0.011719	-0.720703	-0.026367	-0.196861	0.243732	-0.178112	0.632813	0.855469	0.457031	327	17_11_21_8122830
-0.002930	-0.717773	-0.017578	-0.187486	0.243732	-0.178112	0.609375	0.855469	0.468750	328	17_11_21_8284120
-0.005859	-0.714844	-0.017578	-0.196861	0.234358	-0.178112	0.609375	0.855469	0.480469	329	17_11_21_8445410
0.014648	-0.720703	-0.008789	-0.196861	0.234358	-0.187486	0.621094	0.867188	0.468750	330	17_11_21_8606700
0.005859	-0.714844	-0.011719	-0.187486	0.243732	-0.178112	0.656250	0.867188	0.468750	331	17_11_21_8767990
0.008789	-0.711914	-0.011719	-0.196861	0.243732	-0.178112	0.691406	0.937500	0.492188	332	17_11_21_8929280
-0.005859	-0.711914	-0.023438	-0.187486	0.243732	-0.178112	0.703125	0.960938	0.480469	333	17_11_21_9090570
0.005859	-0.723633	-0.008789	-0.196861	0.243732	-0.178112	0.644531	0.902344	0.457031	334	17_11_21_9251860
0.005859	-0.720703	-0.023438	-0.196861	0.243732	-0.187486	0.621094	0.914063	0.433594	335	17_11_21_9413150
-0.011719	-0.723633	-0.008789	-0.196861	0.243732	-0.178112	0.597656	0.937500	0.421875	336	17_11_21_9574440
0.002930	-0.711914	-0.017578	-0.196861	0.243732	-0.178112	0.632813	0.890625	0.445313	337	17_11_21_9735730
-0.002930	-0.714844	-0.020508	-0.187486	0.243732	-0.178112	0.621094	0.937500	0.515625	338	17_11_21_9897020
0.000000	-0.723633	-0.014648	-0.196861	0.243732	-0.178112	0.644531	0.843750	0.468750	339	17_11_22_0058310
0.000000	-0.711914	-0.011719	-0.187486	0.243732	-0.187486	0.632813	0.820313	0.457031	340	17_11_22_0219600
0.008789	-0.711914	-0.011719	-0.187486	0.234358	-0.178112	0.609375	0.878906	0.433594	341	17_11_22_0380890
0.000000	-0.732422	-0.020508	-0.187486	0.243732	-0.178112	0.621094	0.914063	0.445313	342	17_11_22_0542180
0.005859	-0.717773	-0.020508	-0.196861	0.243732	-0.178112	0.644531	0.867188	0.445313	343	17_11_22_0703470
-0.002930	-0.720703	-0.017578	-0.187486	0.243732	-0.178112	0.691406	0.937500	0.503906	344	17_11_22_0864760
-0.002930	-0.714844	-0.017578	-0.196861	0.243732	-0.178112	0.632813	0.914063	0.480469	345	17_11_22_1026050
0.002930	-0.720703	-0.023438	-0.196861	0.243732	-0.178112	0.597656	0.949219	0.445313	346	17_11_22_1187340
0.002930	-0.714844	-0.014648	-0.187486	0.253107	-0.178112	0.808594	1.476563	0.480469	347	17_11_22_1348630
-0.005859	-0.720703	-0.014648	-0.187486	0.243732	-0.178112	0.632813	0.855469	0.445313	348	17_11_22_1509920
0.005859	-0.720703	-0.014648	-0.187486	0.243732	-0.187486	0.621094	0.820313	0.457031	349	17_11_22_1671210
0.000000	-0.723633	-0.011719	-0.196861	0.243732	-0.178112	0.621094	0.867188	0.480469	350	17_11_22_1832500
0.002930	-0.708984	-0.011719	-0.187486	0.243732	-0.178112	0.621094	0.832031	0.468750	351	17_11_22_1993790
0.005859	-0.717773	-0.020508	-0.187486	0.243732	-0.178112	0.667969	0.796875	0.457031	352	17_11_22_2155080
0.000000	-0.708984	-0.005859	-0.187486	0.243732	-0.178112	0.644531	0.808594	0.445313	353	17_11_22_2316370
0.011719	-0.720703	-0.017578	-0.187486	0.243732	-0.178112	0.632813	0.808594	0.457031	354	17_11_22_2477660
0.011719	-0.726563	-0.014648	-0.187486	0.243732	-0.178112	0.621094	0.820313	0.457031	355	17_11_22_2638950
0.000000	-0.720703	-0.020508	-0.187486	0.253107	-0.187486	0.644531	0.796875	0.445313	356	17_11_22_2800240
0.005859	-0.711914	-0.020508	-0.196861	0.243732	-0.178112	0.609375	0.796875	0.445313	357	17_11_22_2961530
0.000000	-0.714844	-0.011719	-0.187486	0.253107	-0.178112	0.621094	0.890625	0.457031	358	17_11_22_3122820
-0.002930	-0.720703	-0.017578	-0.187486	0.253107	-0.187486	0.644531	0.914063	0.480469	359	17_11_22_3284110
0.002930	-0.714844	-0.008789	-0.196861	0.243732	-0.178112	0.644531	0.843750	0.457031	360	17_11_22_3445400
0.005859	-0.714844	-0.008789	-0.196861	0.243732	-0.178112	0.621094	0.832031	0.457031	361	17_11_22_3606690
0.000000	-0.714844	-0.023438	-0.187486	0.253107	-0.178112	0.644531	0.796875	0.480469	362	17_11_22_3767980
-0.005859	-0.720703	-0.020508	-0.187486	0.243732	-0.178112	0.644531	0.832031	0.468750	363	17_11_22_3929270
0.002930	-0.717773	-0.014648	-0.187486	0.243732	-0.178112	0.644531	0.843750	0.468750	364	17_11_22_4090560
-0.002930	-0.723633	-0.014648	-0.187486	0.243732	-0.178112	0.621094	0.843750	0.468750	365	17_11_22_4251850
-0.005859	-0.714844	-0.011719	-0.187486	0.243732	-0.178112	0.632813	0.890625	0.445313	366	17_11_22_4413140
0.002930	-0.720703	-0.023438	-0.187486	0.243732	-0.178112	0.656250	0.890625	0.445313	367	17_11_22_4574430
0.000000	-0.720703	-0.020508	-0.187486	0.243732	-0.178112	0.597656	0.808594	0.445313	368	17_11_22_4735720
0.005859	-0.720703	-0.026367	-0.196861	0.243732	-0.178112	0.632813	0.867188	0.445313	369	17_11_22_4897010
0.008789	-0.729492	-0.014648	-0.196861	0.243732	-0.178112	0.656250	0.878906	0.457031	370	17_11_22_5058300
0.011719	-0.717773	-0.005859	-0.196861	0.243732	-0.178112	0.644531	0.820313	0.468750	371	17_11_22_5219590
0.008789	-0.726563	-0.008789	-0.196861	0.234358	-0.178112	0.621094	0.867188	0.468750	372	17_11_22_5380880
0.014648	-0.708984	-0.026367	-0.196861	0.243732	-0.178112	0.609375	0.820313	0.492188	373	17_11_22_5542170
0.005859	-0.720703	-0.011719	-0.187486	0.253107	-0.178112	0.632813	0.761719	0.492188	374	17_11_22_5703460
0.002930	-0.703125	-0.014648	-0.196861	0.253107	-0.178112	0.632813	0.773438	0.480469	375	17_11_22_5864750
0.005859	-0.711914	-0.017578	-0.187486	0.243732	-0.178112	0.796875	1.042969	0.480469	376	17_11_22_6026040
0.005859	-0.703125	-0.020508	-0.196861	0.243732	-0.178112	0.644531	0.808594	0.457031	377	17_11_22_6187330
0.005859	-0.714844	-0.017578	-0.187486	0.253107	-0.178112	0.738281	1.312500	0.445313	378	17_11_22_6348620
0.002930	-0.714844	-0.014648	-0.196861	0.243732	-0.178112	0.632813	0.949219	0.433594	379	17_11_22_6509910
-0.005859	-0.720703	-0.023438	-0.187486	0.243732	-0.178112	0.632813	0.914063	0.457031	380	17_11_22_6671200
0.011719	-0.732422	-0.020508	-0.187486	0.243732	-0.178112	0.667969	0.914063	0.457031	381	17_11_22_6832490
0.008789	-0.720703	-0.023438	-0.187486	0.243732	-0.178112	0.644531	0.773438	0.457031	382	17_11_22_6993780
0.000000	-0.714844	-0.026367	-0.187486	0.243732	-0.187486	0.644531	0.890625	0.445313	383	17_11_22_7155070
0.008789	-0.708984	-0.014648	-0.187486	0.243732	-0.187486	0.632813	0.820313	0.445313	384	17_11_22_7316360
0.008789	-0.720703	-0.008789	-0.196861	0.243732	-0.187486	0.632813	0.902344	0.468750	385	17_11_22_7477650
0.002930	-0.714844	-0.020508	-0.187486	0.243732	-0.178112	0.632813	0.890625	0.468750	386	17_11_22_7638940
-0.002930	-0.723633	-0.020508	-0.196861	0.243732	-0.187486	0.632813	0.843750	0.445313	387	17_11_22_7800230
0.011719	-0.711914	-0.029297	-0.187486	0.243732	-0.178112	0.644531	0.832031	0.457031	388	17_11_22_7961520
-0.005859	-0.714844	-0.023438	-0.187486	0.243732	-0.178112	0.632813	0.867188	0.457031	389	17_11_22_8122810
-0.005859	-0.711914	-0.017578	-0.187486	0.243732	-0.178112	0.644531	0.843750	0.457031	390	17_11_22_8284100
0.011719	-0.714844	-0.023438	-0.196861	0.243732	-0.178112	0.644531	0.832031	0.480469	391	17_11_22_8445390
0.002930	-0.738281	-0.011719	-0.187486	0.243732	-0.178112	0.632813	0.820313	0.492188	392	17_11_22_8606680
0.000000	-0.720703	-0.008789	-0.187486	0.243732	-0.187486	0.644531	0.890625	0.480469	393	17_11_22_8767970
-0.005859	-0.711914	-0.011719	-0.196861	0.243732	-0.178112	0.632813	0.820313	0.457031	394	17_11_22_8929260
0.000000	-0.717773	-0.017578	-0.196861	0.243732	-0.178112	0.644531	0.820313	0.492188	395	17_11_22_9090550
0.008789	-0.717773	-0.014648	-0.196861	0.243732	-0.178112	0.644531	0.925781	0.492188	396	17_11_22_9251840
0.014648	-0.714844	-0.008789	-0.196861	0.243732	-0.178112	0.691406	0.984375	0.480469	397	17_11_22_9413130
0.005859	-0.714844	-0.020508	-0.187486	0.243732	-0.178112	0.632813	0.867188	0.457031	398	17_11_22_9574420
0.005859	-0.711914	-0.020508	-0.187486	0.253107	-0.178112	0.609375	0.902344	0.421875	399	17_11_22_9735710
0.002930	-0.720703	-0.011719	-0.187486	0.243732	-0.178112	0.632813	0.867188	0.421875	400	17_11_22_9897000
-0.002930	-0.720703	-0.014648	-0.196861	0.243732	-0.187486	0.656250	0.855469	0.445313	401	17_11_23_0058290
0.005859	-0.711914	-0.014648	-0.187486	0.243732	-0.187486	0.679688	0.796875	0.480469	402	17_11_23_0219580
-0.002930	-0.720703	-0.005859	-0.187486	0.243732	-0.178112	0.667969	0.843750	0.457031	403	17_11_23_0380870
-0.002930	-0.720703	-0.026367	-0.187486	0.243732	-0.187486	0.621094	0.855469	0.457031	404	17_11_23_0542160
-0.005859	-0.720703	-0.026367	-0.187486	0.243732	-0.178112	0.644531	0.878906	0.468750	405	17_11_23_0703450
-0.008789	-0.723633	-0.023438	-0.196861	0.243732	-0.178112	0.621094	0.761719	0.480469	406	17_11_23_0864740
-0.005859	-0.717773	-0.014648	-0.196861	0.243732	-0.178112	0.656250	0.820313	0.492188	407	17_11_23_1026030
0.008789	-0.714844	-0.020508	-0.187486	0.243732	-0.178112	0.867188	1.312500	0.550781	408	17_11_23_1187320
0.000000	-0.711914	-0.020508	-0.196861	0.243732	-0.178112	0.644531	0.890625	0.457031	409	17_11_23_1348610
0.011719	-0.717773	-0.020508	-0.187486	0.243732	-0.178112	0.609375	0.925781	0.445313	410	17_11_23_1509900
0.008789	-0.717773	-0.014648	-0.196861	0.243732	-0.178112	0.644531	0.937500	0.445313	411	17_11_23_1671190
-0.002930	-0.720703	-0.026367	-0.187486	0.243732	-0.178112	0.609375	0.820313	0.457031	412	17_11_23_1832480
0.002930	-0.711914	-0.023438	-0.187486	0.243732	-0.178112	0.597656	0.750000	0.457031	413	17_11_23_1993770
-0.005859	-0.723633	-0.017578	-0.196861	0.243732	-0.178112	0.621094	0.832031	0.457031	414	17_11_23_2155060
-0.017578	-0.723633	-0.014648	-0.187486	0.234358	-0.178112	0.679688	0.808594	0.457031	415	17_11_23_2316350
-0.005859	-0.723633	-0.008789	-0.187486	0.234358	-0.178112	0.632813	0.750000	0.457031	416	17_11_23_2477640
0.011719	-0.726563	-0.017578	-0.187486	0.234358	-0.178112	0.609375	0.867188	0.457031	417	17_11_23_2638930
-0.002930	-0.717773	-0.011719	-0.187486	0.234358	-0.178112	0.632813	0.949219	0.445313	418	17_11_23_2800220
0.000000	-0.717773	-0.020508	-0.187486	0.234358	-0.178112	0.667969	0.949219	0.457031	419	17_11_23_2961510
0.020508	-0.714844	-0.014648	-0.187486	0.243732	-0.187486	0.621094	0.867188	0.468750	420	17_11_23_3122800
0.020508	-0.711914	-0.011719	-0.196861	0.243732	-0.178112	0.644531	1.195313	0.503906	421	17_11_23_3284090
0.005859	-0.717773	-0.002930	-0.187486	0.253107	-0.187486	0.632813	0.925781	0.515625	422	17_11_23_3445380
0.008789	-0.714844	-0.029297	-0.196861	0.253107	-0.187486	0.644531	0.949219	0.445313	423	17_11_23_3606670
-0.002930	-0.708984	-0.020508	-0.187486	0.253107	-0.178112	0.632813	0.972656	0.457031	424	17_11_23_3767960
0.002930	-0.703125	-0.029297	-0.187486	0.243732	-0.187486	0.621094	0.902344	0.468750	425	17_11_23_3929250
-0.005859	-0.706055	-0.020508	-0.187486	0.243732	-0.178112	0.609375	0.832031	0.457031	426	17_11_23_4090540
0.002930	-0.711914	-0.023438	-0.196861	0.234358	-0.178112	0.632813	0.796875	0.445313	427	17_11_23_4251830
0.002930	-0.720703	-0.026367	-0.187486	0.243732	-0.178112	0.621094	0.785156	0.457031	428	17_11_23_4413120
0.000000	-0.720703	-0.035156	-0.187486	0.243732	-0.178112	0.621094	0.902344	0.468750	429	17_11_23_4574410
0.005859	-0.708984	-0.014648	-0.187486	0.243732	-0.178112	0.609375	0.914063	0.445313	430	17_11_23_4735700
0.011719	-0.720703	-0.026367	-0.196861	0.243732	-0.178112	0.667969	1.195313	0.468750	431	17_11_23_4896990
0.005859	-0.723633	-0.017578	-0.187486	0.243732	-0.178112	0.656250	0.914063	0.527344	432	17_11_23_5058280
0.000000	-0.714844	-0.026367	-0.196861	0.234358	-0.178112	0.609375	0.820313	0.457031	433	17_11_23_5219570
-0.002930	-0.708984	-0.026367	-0.196861	0.234358	-0.178112	0.644531	0.855469	0.433594	434	17_11_23_5380860
0.014648	-0.726563	-0.017578	-0.196861	0.234358	-0.178112	0.621094	0.796875	0.433594	435	17_11_23_5542150
0.014648	-0.726563	-0.020508	-0.196861	0.234358	-0.178112	0.621094	0.761719	0.445313	436	17_11_23_5703440
0.017578	-0.720703	-0.008789	-0.187486	0.234358	-0.187486	0.644531	0.867188	0.457031	437	17_11_23_5864730
0.005859	-0.738281	-0.014648	-0.196861	0.243732	-0.187486	0.609375	0.902344	0.468750	438	17_11_23_6026020
0.011719	-0.717773	-0.020508	-0.187486	0.262481	-0.187486	0.609375	0.902344	0.468750	439	17_11_23_6187310
0.000000	-0.723633	-0.020508	-0.196861	0.253107	-0.187486	0.667969	0.914063	0.457031	440	17_11_23_6348600
0.005859	-0.720703	-0.023438	-0.196861	0.253107	-0.187486	0.644531	0.914063	0.457031	441	17_11_23_6509890
0.002930	-0.720703	-0.026367	-0.196861	0.253107	-0.187486	0.621094	0.855469	0.468750	442	17_11_23_6671180
-0.005859	-0.729492	-0.011719	-0.196861	0.243732	-0.178112	0.621094	0.843750	0.457031	443	17_11_23_6832470
0.005859	-0.723633	-0.029297	-0.196861	0.243732	-0.187486	0.644531	0.878906	0.457031	444	17_11_23_6993760
0.005859	-0.723633	-0.020508	-0.196861	0.243732	-0.187486	0.609375	0.843750	0.457031	445	17_11_23_7155050
-0.005859	-0.708984	-0.023438	-0.196861	0.243732	-0.187486	0.644531	0.820313	0.457031	446	17_11_23_7316340
0.008789	-0.711914	-0.020508	-0.196861	0.243732	-0.178112	0.621094	0.820313	0.480469	447	17_11_23_7477630
0.002930	-0.717773	-0.026367	-0.196861	0.234358	-0.178112	0.644531	0.855469	0.445313	448	17_11_23_7638920
0.005859	-0.720703	-0.014648	-0.187486	0.243732	-0.178112	0.937500	1.171875	0.503906	449	17_11_23_7800210
0.005859	-0.717773	-0.020508	-0.196861	0.243732	-0.178112	0.632813	0.890625	0.503906	450	17_11_23_7961500
0.005859	-0.726563	-0.017578	-0.187486	0.243732	-0.178112	0.796875	1.429688	0.550781	451	17_11_23_8122790
0.002930	-0.711914	-0.014648	-0.187486	0.243732	-0.178112	0.644531	0.914063	0.468750	452	17_11_23_8284080
-0.011719	-0.726563	-0.011719	-0.196861	0.243732	-0.178112	0.644531	0.937500	0.480469	453	17_11_23_8445370
0.005859	-0.723633	-0.014648	-0.196861	0.243732	-0.178112	0.621094	0.867188	0.480469	454	17_11_23_8606660
-0.005859	-0.711914	-0.023438	-0.196861	0.243732	-0.178112	0.621094	0.808594	0.468750	455	17_11_23_8767950
-0.002930	-0.714844	-0.014648	-0.206235	0.243732	-0.187486	0.632813	0.796875	0.457031	456	17_11_23_8929240
-0.008789	-0.714844	-0.017578	-0.196861	0.234358	-0.187486	0.621094	0.796875	0.457031	457	17_11_23_9090530
0.005859	-0.714844	-0.023438	-0.196861	0.234358	-0.178112	0.656250	0.902344	0.457031	458	17_11_23_9251820
0.011719	-0.723633	-0.017578	-0.206235	0.234358	-0.178112	0.609375	0.914063	0.433594	459	17_11_23_9413110
0.000000	-0.726563	-0.011719	-0.196861	0.234358	-0.187486	0.656250	0.867188	0.457031	460	17_11_23_9574400
0.005859	-0.720703	-0.014648	-0.196861	0.234358	-0.178112	0.644531	0.902344	0.468750	461	17_11_23_9735690
0.002930	-0.720703	-0.014648	-0.187486	0.243732	-0.178112	0.703125	0.937500	0.457031	462	17_11_23_9896980
-0.005859	-0.720703	-0.014648	-0.196861	0.243732	-0.178112	0.597656	0.867188	0.457031	463	17_11_24_0058270
0.005859	-0.720703	-0.014648	-0.196861	0.243732	-0.178112	0.632813	0.820313	0.445313	464	17_11_24_0219560
0.002930	-0.720703	-0.026367	-0.196861	0.243732	-0.178112	0.609375	0.808594	0.445313	465	17_11_24_0380850
0.005859	-0.720703	-0.020508	-0.196861	0.234358	-0.178112	0.632813	0.773438	0.457031	466	17_11_24_0542140
-0.005859	-0.720703	-0.020508	-0.187486	0.234358	-0.178112	0.691406	0.937500	0.468750	467	17_11_24_0703430
-0.002930	-0.726563	-0.020508	-0.196861	0.234358	-0.178112	0.656250	0.843750	0.433594	468	17_11_24_0864720
-0.008789	-0.720703	-0.017578	-0.206235	0.224984	-0.178112	0.609375	0.902344	0.445313	469	17_11_24_1026010
0.011719	-0.723633	-0.014648	-0.196861	0.234358	-0.178112	0.632813	0.890625	0.480469	470	17_11_24_1187300
0.011719	-0.717773	-0.014648	-0.187486	0.234358	-0.187486	0.632813	0.796875	0.468750	471	17_11_24_1348590
-0.005859	-0.720703	-0.020508	-0.187486	0.243732	-0.187486	0.644531	0.808594	0.480469	472	17_11_24_1509880
-0.002930	-0.714844	-0.023438	-0.206235	0.234358	-0.187486	0.632813	1.160156	0.503906	473	17_11_24_1671170
0.000000	-0.711914	-0.014648	-0.196861	0.234358	-0.187486	0.632813	0.855469	0.457031	474	17_11_24_1832460
0.005859	-0.711914	-0.014648	-0.196861	0.234358	-0.178112	0.632813	0.914063	0.445313	475	17_11_24_1993750
-0.002930	-0.714844	-0.011719	-0.196861	0.234358	-0.178112	0.644531	0.843750	0.445313	476	17_11_24_2155040
0.014648	-0.726563	-0.020508	-0.196861	0.234358	-0.178112	0.609375	0.843750	0.468750	477	17_11_24_2316330
0.011719	-0.723633	-0.017578	-0.206235	0.234358	-0.178112	0.632813	0.832031	0.457031	478	17_11_24_2477620
0.005859	-0.729492	-0.017578	-0.187486	0.234358	-0.178112	0.714844	0.867188	0.445313	479	17_11_24_2638910
0.008789	-0.720703	-0.014648	-0.187486	0.196861	-0.178112	0.609375	0.808594	0.433594	480	17_11_24_2800200
0.008789	-0.714844	-0.014648	-0.196861	0.234358	-0.178112	0.632813	0.808594	0.445313	481	17_11_24_2961490
0.008789	-0.714844	-0.020508	-0.196861	0.243732	-0.187486	0.609375	0.785156	0.445313	482	17_11_24_3122780
0.000000	-0.711914	-0.017578	-0.196861	0.243732	-0.187486	0.644531	0.890625	0.457031	483	17_11_24_3284070
-0.002930	-0.717773	-0.020508	-0.196861	0.243732	-0.178112	0.644531	0.867188	0.468750	484	17_11_24_3445360
-0.005859	-0.720703	-0.014648	-0.187486	0.234358	-0.178112	0.632813	0.878906	0.457031	485	17_11_24_3606650
-0.002930	-0.714844	-0.008789	-0.196861	0.243732	-0.178112	0.632813	0.890625	0.457031	486	17_11_24_3767940
-0.011719	-0.720703	-0.014648	-0.187486	0.234358	-0.178112	0.632813	0.820313	0.480469	487	17_11_24_3929230
0.005859	-0.723633	-0.017578	-0.196861	0.243732	-0.187486	0.597656	0.738281	0.480469	488	17_11_24_4090520
0.000000	-0.720703	-0.014648	-0.187486	0.234358	-0.178112	0.609375	0.750000	0.468750	489	17_11_24_4251810
0.002930	-0.726563	-0.017578	-0.196861	0.234358	-0.178112	0.609375	0.843750	0.457031	490	17_11_24_4413100
0.002930	-0.717773	-0.008789	-0.196861	0.243732	-0.178112	0.644531	0.796875	0.445313	491	17_11_24_4574390
-0.002930	-0.723633	-0.017578	-0.196861	0.243732	-0.187486	0.761719	1.207031	0.550781	492	17_11_24_4735680
-0.002930	-0.711914	-0.020508	-0.196861	0.234358	-0.187486	0.644531	0.855469	0.492188	493	17_11_24_4896970
0.014648	-0.720703	-0.020508	-0.187486	0.243732	-0.178112	0.632813	0.937500	0.480469	494	17_11_24_5058260
0.008789	-0.708984	-0.005859	-0.196861	0.243732	-0.178112	0.609375	0.855469	0.457031	495	17_11_24_5219550
0.008789	-0.711914	-0.011719	-0.187486	0.243732	-0.178112	0.632813	0.867188	0.457031	496	17_11_24_5380840
0.000000	-0.714844	-0.023438	-0.196861	0.234358	-0.187486	0.632813	0.843750	0.457031	497	17_11_24_5542130
-0.005859	-0.720703	-0.014648	-0.206235	0.243732	-0.178112	0.644531	0.878906	0.445313	498	17_11_24_5703420
-0.017578	-0.726563	-0.014648	-0.187486	0.234358	-0.178112	0.609375	0.855469	0.457031	499	17_11_24_5864710
0.008789	-0.711914	-0.026367	-0.196861	0.234358	-0.178112	0.609375	0.843750	0.445313	500	17_11_24_6026000
0.011719	-0.720703	-0.014648	-0.196861	0.234358	-0.178112	0.632813	0.867188	0.445313	501	17_11_24_6187290
0.002930	-0.723633	-0.014648	-0.187486	0.234358	-0.178112	0.867188	1.429688	0.527344	502	17_11_24_6348580
0.011719	-0.720703	-0.020508	-0.187486	0.243732	-0.178112	0.632813	0.808594	0.457031	503	17_11_24_6509870
-0.002930	-0.720703	-0.020508	-0.187486	0.243732	-0.187486	0.644531	0.785156	0.480469	504	17_11_24_6671160
-0.017578	-0.723633	-0.026367	-0.187486	0.243732	-0.178112	0.667969	0.890625	0.527344	505	17_11_24_6832450
-0.008789	-0.723633	-0.011719	-0.196861	0.243732	-0.178112	0.621094	0.878906	0.445313	506	17_11_24_6993740
-0.011719	-0.717773	-0.014648	-0.196861	0.243732	-0.178112	0.632813	0.855469	0.445313	507	17_11_24_7155030
-0.002930	-0.708984	-0.020508	-0.187486	0.243732	-0.178112	0.632813	0.785156	0.433594	508	17_11_24_7316320
-0.011719	-0.720703	-0.014648	-0.187486	0.243732	-0.178112	0.632813	0.820313	0.433594	509	17_11_24_7477610
-0.005859	-0.720703	-0.017578	-0.196861	0.243732	-0.178112	0.644531	0.820313	0.468750	510	17_11_24_7638900
0.002930	-0.720703	-0.017578	-0.196861	0.243732	-0.178112	0.621094	0.796875	0.457031	511	17_11_24_7800190
0.011719	-0.720703	-0.011719	-0.196861	0.234358	-0.178112	0.621094	0.843750	0.445313	512	17_11_24_7961480
0.014648	-0.720703	-0.005859	-0.187486	0.234358	-0.178112	0.632813	0.867188	0.457031	513	17_11_24_8122770
0.017578	-0.723633	-0.017578	-0.196861	0.234358	-0.178112	0.621094	0.808594	0.468750	514	17_11_24_8284060
0.011719	-0.714844	-0.014648	-0.196861	0.243732	-0.178112	0.609375	0.796875	0.480469	515	17_11_24_8445350
0.005859	-0.714844	-0.014648	-0.187486	0.243732	-0.178112	0.632813	0.796875	0.527344	516	17_11_24_8606640
0.017578	-0.723633	-0.011719	-0.187486	0.243732	-0.178112	0.632813	0.878906	0.457031	517	17_11_24_8767930
-0.005859	-0.711914	-0.020508	-0.178112	0.243732	-0.178112	0.773438	1.066406	0.445313	518	17_11_24_8929220
-0.008789	-0.714844	-0.020508	-0.187486	0.243732	-0.178112	0.609375	0.867188	0.445313	519	17_11_24_9090510
-0.008789	-0.720703	-0.020508	-0.187486	0.243732	-0.178112	0.609375	0.867188	0.457031	520	17_11_24_9251800
0.000000	-0.711914	-0.020508	-0.196861	0.234358	-0.168738	0.632813	0.925781	0.457031	521	17_11_24_9413090
0.008789	-0.714844	-0.020508	-0.187486	0.234358	-0.168738	0.609375	0.855469	0.480469	522	17_11_24_9574380
0.002930	-0.714844	-0.023438	-0.187486	0.234358	-0.168738	0.644531	0.878906	0.468750	523	17_11_24_9735670
0.011719	-0.711914	-0.017578	-0.178112	0.243732	-0.178112	0.632813	0.902344	0.445313	524	17_11_24_9896960
0.008789	-0.720703	-0.011719	-0.187486	0.243732	-0.178112	0.621094	0.832031	0.457031	525	17_11_25_0058250
0.002930	-0.714844	-0.014648	-0.187486	0.243732	-0.178112	0.621094	0.808594	0.468750	526	17_11_25_0219540
0.008789	-0.714844	-0.020508	-0.187486	0.243732	-0.178112	0.644531	0.750000	0.457031	527	17_11_25_0380830
0.005859	-0.729492	-0.014648	-0.187486	0.243732	-0.178112	0.644531	0.855469	0.457031	528	17_11_25_0542120
0.005859	-0.720703	-0.017578	-0.187486	0.243732	-0.178112	0.667969	0.902344	0.468750	529	17_11_25_0703410
0.005859	-0.726563	-0.017578	-0.187486	0.243732	-0.178112	0.750000	0.972656	0.421875	530	17_11_25_0864700
0.008789	-0.723633	-0.020508	-0.196861	0.253107	-0.178112	0.644531	0.785156	0.445313	531	17_11_25_1025990
0.011719	-0.720703	0.000000	-0.187486	0.262481	-0.178112	0.644531	0.785156	0.480469	532	17_11_25_1187280
0.017578	-0.723633	-0.014648	-0.187486	0.262481	-0.178112	0.632813	0.914063	0.468750	533	17_11_25_1348570
0.002930	-0.714844	-0.008789	-0.187486	0.271855	-0.187486	0.644531	0.890625	0.480469	534	17_11_25_1509860
0.002930	-0.714844	-0.026367	-0.187486	0.262481	-0.187486	0.632813	0.832031	0.480469	535	17_11_25_1671150
-0.005859	-0.717773	-0.032227	-0.196861	0.262481	-0.178112	0.656250	0.867188	0.468750	536	17_11_25_1832440
-0.002930	-0.714844	-0.017578	-0.196861	0.253107	-0.187486	0.667969	0.890625	0.492188	537	17_11_25_1993730
0.000000	-0.714844	-0.011719	-0.196861	0.243732	-0.187486	0.644531	0.761719	0.503906	538	17_11_25_2155020
0.005859	-0.714844	-0.011719	-0.196861	0.243732	-0.187486	0.632813	0.820313	0.503906	539	17_11_25_2316310
0.026367	-0.711914	-0.029297	-0.187486	0.243732	-0.187486	0.632813	0.750000	0.457031	540	17_11_25_2477600
0.017578	-0.720703	-0.020508	-0.196861	0.243732	-0.178112	0.597656	0.820313	0.433594	541	17_11_25_2638890
0.002930	-0.708984	-0.014648	-0.187486	0.243732	-0.178112	0.632813	0.855469	0.433594	542	17_11_25_2800180
0.011719	-0.732422	-0.020508	-0.187486	0.243732	-0.178112	0.667969	0.925781	0.457031	543	17_11_25_2961470
0.014648	-0.720703	-0.017578	-0.187486	0.253107	-0.178112	0.644531	0.984375	0.457031	544	17_11_25_3122760
0.002930	-0.720703	-0.029297	-0.196861	0.262481	-0.178112	0.714844	1.066406	0.480469	545	17_11_25_3284050
-0.005859	-0.714844	-0.026367	-0.187486	0.262481	-0.178112	0.632813	0.832031	0.445313	546	17_11_25_3445340
-0.014648	-0.697266	-0.020508	-0.187486	0.243732	-0.187486	0.644531	0.878906	0.492188	547	17_11_25_3606630
-0.002930	-0.717773	-0.029297	-0.187486	0.243732	-0.178112	0.632813	0.867188	0.480469	548	17_11_25_3767920
-0.002930	-0.723633	-0.020508	-0.196861	0.243732	-0.187486	0.621094	0.867188	0.468750	549	17_11_25_3929210
0.000000	-0.714844	-0.014648	-0.196861	0.243732	-0.187486	0.621094	0.855469	0.445313	550	17_11_25_4090500
0.008789	-0.717773	-0.014648	-0.196861	0.234358	-0.178112	0.632813	0.902344	0.468750	551	17_11_25_4251790
0.023438	-0.714844	-0.011719	-0.187486	0.243732	-0.178112	0.597656	0.761719	0.480469	552	17_11_25_4413080
0.023438	-0.720703	-0.017578	-0.187486	0.262481	-0.187486	0.609375	0.843750	0.457031	553	17_11_25_4574370
0.014648	-0.711914	-0.014648	-0.187486	0.262481	-0.187486	0.621094	0.914063	0.468750	554	17_11_25_4735660
-0.014648	-0.706055	-0.017578	-0.187486	0.253107	-0.187486	0.609375	0.855469	0.421875	555	17_11_25_4896950
0.000000	-0.720703	-0.038086	-0.196861	0.243732	-0.178112	0.632813	0.808594	0.433594	556	17_11_25_5058240
0.008789	-0.720703	-0.026367	-0.196861	0.243732	-0.178112	0.644531	0.914063	0.480469	557	17_11_25_5219530
-0.002930	-0.706055	-0.020508	-0.196861	0.243732	-0.196861	0.621094	0.878906	0.457031	558	17_11_25_5380820
-0.008789	-0.711914	-0.011719	-0.187486	0.234358	-0.187486	0.632813	0.855469	0.468750	559	17_11_25_5542110
0.005859	-0.717773	-0.017578	-0.196861	0.234358	-0.187486	0.632813	0.878906	0.468750	560	17_11_25_5703400
0.011719	-0.723633	-0.014648	-0.196861	0.243732	-0.178112	0.632813	0.832031	0.445313	561	17_11_25_5864690
0.008789	-0.711914	-0.017578	-0.196861	0.243732	-0.187486	0.632813	0.843750	0.468750	562	17_11_25_6025980
0.005859	-0.714844	-0.026367	-0.196861	0.243732	-0.196861	0.750000	0.937500	0.468750	563	17_11_25_6187270
0.023438	-0.714844	-0.020508	-0.196861	0.262481	-0.196861	0.632813	0.902344	0.445313	564	17_11_25_6348560
-0.005859	-0.708984	-0.023438	-0.196861	0.262481	-0.196861	0.644531	0.832031	0.457031	565	17_11_25_6509850
-0.008789	-0.717773	-0.017578	-0.187486	0.253107	-0.196861	0.621094	0.796875	0.457031	566	17_11_25_6671140
0.000000	-0.708984	-0.011719	-0.187486	0.253107	-0.187486	0.609375	0.867188	0.410156	567	17_11_25_6832430
-0.011719	-0.708984	-0.011719	-0.187486	0.253107	-0.178112	0.738281	1.007813	0.410156	568	17_11_25_6993720
0.002930	-0.720703	-0.020508	-0.187486	0.243732	-0.178112	0.632813	0.832031	0.457031	569	17_11_25_7155010
0.000000	-0.723633	-0.026367	-0.187486	0.243732	-0.187486	0.621094	0.855469	0.468750	570	17_11_25_7316300
-0.011719	-0.720703	-0.014648	-0.187486	0.243732	-0.187486	0.644531	0.843750	0.492188	571	17_11_25_7477590
-0.002930	-0.726563	-0.014648	-0.187486	0.243732	-0.187486	0.621094	0.843750	0.468750	572	17_11_25_7638880
0.002930	-0.732422	-0.023438	-0.196861	0.243732	-0.187486	0.609375	0.843750	0.445313	573	17_11_25_7800170
0.000000	-0.723633	-0.023438	-0.206235	0.253107	-0.187486	0.644531	0.867188	0.468750	574	17_11_25_7961460
0.008789	-0.708984	-0.026367	-0.196861	0.243732	-0.215609	0.773438	1.171875	0.468750	575	17_11_25_8122750
0.011719	-0.714844	-0.014648	-0.196861	0.253107	-0.187486	0.644531	0.726563	0.457031	576	17_11_25_8284040
0.005859	-0.720703	-0.017578	-0.196861	0.243732	-0.187486	0.585938	0.808594	0.457031	577	17_11_25_8445330
0.011719	-0.706055	-0.014648	-0.196861	0.243732	-0.178112	0.609375	0.902344	0.445313	578	17_11_25_8606620
0.002930	-0.711914	-0.011719	-0.187486	0.243732	-0.187486	0.632813	0.878906	0.457031	579	17_11_25_8767910
0.005859	-0.717773	-0.014648	-0.187486	0.253107	-0.187486	0.632813	0.820313	0.468750	580	17_11_25_8929200
-0.008789	-0.720703	-0.023438	-0.187486	0.243732	-0.178112	0.597656	0.843750	0.445313	581	17_11_25_9090490
0.000000	-0.714844	-0.017578	-0.187486	0.253107	-0.178112	0.632813	0.785156	0.468750	582	17_11_25_9251780
0.005859	-0.720703	-0.017578	-0.187486	0.243732	-0.178112	0.621094	0.855469	0.480469	583	17_11_25_9413070
-0.008789	-0.723633	-0.026367	-0.187486	0.243732	-0.187486	0.738281	1.042969	0.480469	584	17_11_25_9574360
-0.017578	-0.714844	-0.020508	-0.196861	0.243732	-0.187486	0.644531	0.843750	0.480469	585	17_11_25_9735650
-0.008789	-0.711914	-0.020508	-0.187486	0.243732	-0.178112	0.644531	0.832031	0.468750	586	17_11_25_9896940
-0.002930	-0.714844	-0.026367	-0.196861	0.243732	-0.178112	0.632813	0.820313	0.480469	587	17_11_26_0058230
0.000000	-0.714844	-0.014648	-0.196861	0.234358	-0.187486	0.609375	0.843750	0.480469	588	17_11_26_0219520
0.005859	-0.720703	-0.017578	-0.196861	0.243732	-0.187486	0.632813	0.902344	0.468750	589	17_11_26_0380810
0.011719	-0.717773	-0.014648	-0.187486	0.243732	-0.178112	0.703125	0.960938	0.468750	590	17_11_26_0542100
-0.011719	-0.717773	-0.014648	-0.187486	0.253107	-0.187486	0.609375	0.867188	0.457031	591	17_11_26_0703390
0.002930	-0.714844	-0.020508	-0.187486	0.243732	-0.196861	0.679688	0.960938	0.457031	592	17_11_26_0864680
-0.005859	-0.726563	-0.017578	-0.187486	0.243732	-0.178112	0.632813	0.902344	0.433594	593	17_11_26_1025970
-0.002930	-0.711914	-0.026367	-0.187486	0.243732	-0.178112	0.656250	0.867188	0.457031	594	17_11_26_1187260
0.005859	-0.726563	-0.023438	-0.187486	0.243732	-0.178112	0.632813	0.761719	0.457031	595	17_11_26_1348550
-0.002930	-0.714844	-0.023438	-0.196861	0.243732	-0.178112	0.656250	0.796875	0.457031	596	17_11_26_1509840
0.002930	-0.714844	-0.026367	-0.196861	0.243732	-0.178112	0.679688	1.078125	0.503906	597	17_11_26_1671130
0.000000	-0.723633	-0.008789	-0.196861	0.243732	-0.178112	0.632813	0.808594	0.457031	598	17_11_26_1832420
0.005859	-0.732422	-0.032227	-0.187486	0.243732	-0.178112	0.644531	0.843750	0.503906	599	17_11_26_1993710
0.005859	-0.720703	-0.017578	-0.196861	0.243732	-0.187486	0.609375	0.855469	0.468750	600	17_11_26_2155000
-0.002930	-0.708984	-0.020508	-0.187486	0.243732	-0.178112	0.656250	0.855469	0.480469	601	17_11_26_2316290
0.000000	-0.729492	-0.026367	-0.196861	0.243732	-0.187486	0.632813	0.820313	0.457031	602	17_11_26_2477580
0.002930	-0.720703	-0.014648	-0.187486	0.243732	-0.178112	0.773438	0.890625	0.503906	603	17_11_26_2638870
-0.002930	-0.706055	-0.017578	-0.187486	0.243732	-0.178112	0.597656	0.855469	0.480469	604	17_11_26_2800160
0.011719	-0.726563	-0.014648	-0.187486	0.243732	-0.178112	0.621094	0.867188	0.457031	605	17_11_26_2961450
0.011719	-0.717773	-0.008789	-0.187486	0.243732	-0.178112	0.632813	0.820313	0.457031	606	17_11_26_3122740
0.005859	-0.714844	-0.014648	-0.196861	0.243732	-0.187486	0.644531	0.773438	0.468750	607	17_11_26_3284030
-0.014648	-0.717773	-0.023438	-0.187486	0.243732	-0.178112	0.609375	0.773438	0.433594	608	17_11_26_3445320
0.002930	-0.720703	-0.014648	-0.196861	0.243732	-0.187486	0.644531	0.820313	0.421875	609	17_11_26_3606610
-0.002930	-0.711914	-0.023438	-0.187486	0.243732	-0.178112	0.621094	0.867188	0.457031	610	17_11_26_3767900
0.002930	-0.714844	-0.017578	-0.187486	0.243732	-0.178112	0.632813	0.890625	0.503906	611	17_11_26_3929190
0.011719	-0.720703	-0.023438	-0.196861	0.243732	-0.178112	0.609375	0.914063	0.468750	612	17_11_26_4090480
0.005859	-0.711914	-0.020508	-0.196861	0.243732	-0.178112	0.597656	0.902344	0.433594	613	17_11_26_4251770
0.000000	-0.706055	-0.014648	-0.196861	0.243732	-0.178112	0.621094	0.773438	0.457031	614	17_11_26_4413060
0.008789	-0.708984	-0.014648	-0.187486	0.234358	-0.178112	0.644531	0.796875	0.457031	615	17_11_26_4574350
0.005859	-0.706055	-0.014648	-0.187486	0.234358	-0.178112	0.621094	0.843750	0.445313	616	17_11_26_4735640
0.005859	-0.717773	-0.020508	-0.187486	0.234358	-0.178112	0.632813	0.808594	0.457031	617	17_11_26_4896930
0.011719	-0.723633	-0.020508	-0.187486	0.234358	-0.178112	0.597656	0.855469	0.457031	618	17_11_26_5058220
0.005859	-0.726563	-0.020508	-0.187486	0.243732	-0.178112	0.632813	0.808594	0.457031	619	17_11_26_5219510
-0.002930	-0.726563	-0.020508	-0.187486	0.243732	-0.178112	0.644531	0.820313	0.457031	620	17_11_26_5380800
0.000000	-0.720703	-0.026367	-0.187486	0.243732	-0.178112	0.609375	0.832031	0.445313	621	17_11_26_5542090
0.002930	-0.717773	-0.020508	-0.196861	0.253107	-0.178112	0.621094	0.820313	0.445313	622	17_11_26_5703380
0.000000	-0.711914	-0.017578	-0.196861	0.243732	-0.178112	0.632813	0.867188	0.468750	623	17_11_26_5864670
0.005859	-0.714844	-0.014648	-0.196861	0.243732	-0.178112	0.691406	0.984375	0.480469	624	17_11_26_6025960
0.002930	-0.717773	-0.011719	-0.187486	0.243732	-0.178112	0.632813	0.808594	0.457031	625	17_11_26_6187250
0.014648	-0.720703	-0.017578	-0.187486	0.243732	-0.178112	0.632813	0.820313	0.457031	626	17_11_26_6348540
-0.002930	-0.729492	-0.026367	-0.196861	0.243732	-0.187486	0.632813	0.890625	0.457031	627	17_11_26_6509830
0.005859	-0.708984	-0.026367	-0.206235	0.243732	-0.178112	0.632813	0.808594	0.480469	628	17_11_26_6671120
0.000000	-0.717773	-0.020508	-0.187486	0.243732	-0.178112	0.644531	0.832031	0.492188	629	17_11_26_6832410
0.011719	-0.726563	-0.026367	-0.187486	0.243732	-0.178112	0.656250	0.878906	0.468750	630	17_11_26_6993700
0.008789	-0.708984	-0.017578	-0.196861	0.243732	-0.187486	0.644531	0.914063	0.433594	631	17_11_26_7154990
-0.005859	-0.720703	-0.014648	-0.196861	0.243732	-0.178112	0.621094	0.867188	0.433594	632	17_11_26_7316280
0.000000	-0.720703	-0.011719	-0.196861	0.243732	-0.187486	0.632813	0.902344	0.445313	633	17_11_26_7477570
-0.008789	-0.717773	-0.023438	-0.187486	0.243732	-0.178112	0.632813	0.937500	0.457031	634	17_11_26_7638860
-0.002930	-0.720703	-0.026367	-0.196861	0.234358	-0.178112	0.621094	0.960938	0.480469	635	17_11_26_7800150
-0.005859	-0.720703	-0.026367	-0.187486	0.243732	-0.178112	0.609375	0.878906	0.457031	636	17_11_26_7961440
-0.002930	-0.723633	-0.023438	-0.196861	0.243732	-0.178112	0.667969	0.796875	0.468750	637	17_11_26_8122730
-0.011719	-0.711914	-0.026367	-0.187486	0.243732	-0.178112	0.644531	0.796875	0.480469	638	17_11_26_8284020
-0.005859	-0.720703	-0.011719	-0.196861	0.243732	-0.178112	0.644531	0.750000	0.445313	639	17_11_26_8445310
0.002930	-0.711914	-0.023438	-0.196861	0.243732	-0.178112	0.644531	0.832031	0.468750	640	17_11_26_8606600
0.008789	-0.708984	-0.014648	-0.196861	0.243732	-0.178112	0.632813	0.878906	0.480469	641	17_11_26_8767890
0.011719	-0.708984	-0.014648	-0.196861	0.243732	-0.178112	0.632813	0.890625	0.421875	642	17_11_26_8929180
0.005859	-0.708984	-0.011719	-0.187486	0.243732	-0.187486	0.644531	0.843750	0.421875	643	17_11_26_9090470
-0.002930	-0.723633	-0.023438	-0.187486	0.243732	-0.187486	0.644531	0.808594	0.445313	644	17_11_26_9251760
0.011719	-0.723633	-0.020508	-0.187486	0.243732	-0.178112	0.656250	0.984375	0.457031	645	17_11_26_9413050
0.008789	-0.720703	-0.017578	-0.196861	0.243732	-0.187486	0.644531	0.914063	0.468750	646	17_11_26_9574340
-0.005859	-0.720703	-0.020508	-0.187486	0.243732	-0.178112	0.632813	0.878906	0.468750	647	17_11_26_9735630
0.002930	-0.714844	-0.008789	-0.196861	0.243732	-0.187486	0.644531	0.937500	0.468750	648	17_11_26_9896920
-0.005859	-0.714844	-0.011719	-0.196861	0.243732	-0.187486	0.644531	1.078125	0.550781	649	17_11_27_0058210
0.000000	-0.714844	-0.017578	-0.196861	0.243732	-0.178112	0.632813	0.773438	0.480469	650	17_11_27_0219500
0.014648	-0.714844	-0.020508	-0.187486	0.243732	-0.178112	0.632813	0.867188	0.445313	651	17_11_27_0380790
-0.002930	-0.714844	-0.020508	-0.187486	0.243732	-0.178112	0.667969	0.937500	0.457031	652	17_11_27_0542080
0.005859	-0.714844	-0.017578	-0.187486	0.243732	-0.178112	0.679688	0.820313	0.480469	653	17_11_27_0703370
-0.002930	-0.726563	-0.011719	-0.187486	0.243732	-0.187486	0.597656	0.867188	0.468750	654	17_11_27_0864660
-0.005859	-0.723633	-0.020508	-0.187486	0.243732	-0.178112	0.609375	0.808594	0.445313	655	17_11_27_1025950
-0.005859	-0.714844	-0.026367	-0.196861	0.243732	-0.178112	0.644531	0.796875	0.445313	656	17_11_27_1187240
-0.005859	-0.714844	-0.020508	-0.196861	0.243732	-0.178112	0.632813	0.843750	0.457031	657	17_11_27_1348530
0.000000	-0.723633	-0.011719	-0.196861	0.243732	-0.178112	0.632813	0.867188	0.445313	658	17_11_27_1509820
0.005859	-0.720703	-0.029297	-0.196861	0.243732	-0.187486	0.632813	0.855469	0.457031	659	17_11_27_1671110
0.008789	-0.720703	-0.014648	-0.196861	0.243732	-0.187486	0.632813	0.796875	0.445313	660	17_11_27_1832400
0.005859	-0.717773	-0.020508	-0.206235	0.243732	-0.187486	0.632813	0.808594	0.468750	661	17_11_27_1993690
0.005859	-0.717773	-0.020508	-0.196861	0.243732	-0.187486	0.632813	0.855469	0.492188	662	17_11_27_2154980
0.000000	-0.720703	-0.017578	-0.196861	0.243732	-0.187486	0.632813	0.855469	0.468750	663	17_11_27_2316270
0.002930	-0.720703	-0.014648	-0.196861	0.243732	-0.187486	0.597656	0.820313	0.480469	664	17_11_27_2477560
-0.002930	-0.720703	-0.020508	-0.196861	0.243732	-0.187486	0.644531	0.820313	0.468750	665	17_11_27_2638850
0.008789	-0.720703	-0.017578	-0.196861	0.243732	-0.178112	0.632813	0.796875	0.457031	666	17_11_27_2800140
0.002930	-0.706055	-0.011719	-0.187486	0.243732	-0.178112	0.632813	0.843750	0.457031	667	17_11_27_2961430
0.000000	-0.708984	-0.029297	-0.196861	0.243732	-0.187486	0.785156	1.007813	0.480469	668	17_11_27_3122720
-0.002930	-0.711914	-0.014648	-0.196861	0.243732	-0.178112	0.632813	0.785156	0.457031	669	17_11_27_3284010
0.000000	-0.714844	-0.020508	-0.196861	0.243732	-0.187486	0.644531	0.867188	0.457031	670	17_11_27_3445300
0.011719	-0.708984	-0.014648	-0.196861	0.234358	-0.187486	0.656250	0.890625	0.433594	671	17_11_27_3606590
-0.011719	-0.714844	-0.026367	-0.187486	0.243732	-0.187486	0.644531	0.914063	0.445313	672	17_11_27_3767880
0.002930	-0.729492	-0.029297	-0.196861	0.243732	-0.178112	0.609375	0.902344	0.468750	673	17_11_27_3929170
-0.011719	-0.720703	-0.035156	-0.196861	0.234358	-0.178112	0.632813	0.855469	0.480469	674	17_11_27_4090460
0.000000	-0.711914	-0.020508	-0.196861	0.234358	-0.168738	0.714844	0.902344	0.480469	675	17_11_27_4251750
0.005859	-0.714844	-0.014648	-0.196861	0.243732	-0.178112	0.644531	0.855469	0.468750	676	17_11_27_4413040
0.014648	-0.711914	-0.020508	-0.196861	0.243732	-0.178112	0.644531	0.867188	0.480469	677	17_11_27_4574330
0.002930	-0.711914	-0.020508	-0.187486	0.234358	-0.178112	0.632813	0.843750	0.457031	678	17_11_27_4735620
-0.005859	-0.711914	-0.017578	-0.196861	0.234358	-0.178112	0.632813	0.902344	0.445313	679	17_11_27_4896910
0.008789	-0.720703	-0.023438	-0.187486	0.234358	-0.187486	0.621094	0.832031	0.445313	680	17_11_27_5058200
0.000000	-0.717773	-0.020508	-0.196861	0.234358	-0.178112	0.644531	0.832031	0.480469	681	17_11_27_5219490
0.002930	-0.717773	-0.011719	-0.187486	0.243732	-0.187486	0.609375	0.890625	0.480469	682	17_11_27_5380780
0.005859	-0.717773	-0.020508	-0.196861	0.243732	-0.178112	0.621094	0.855469	0.468750	683	17_11_27_5542070
-0.005859	-0.720703	-0.017578	-0.187486	0.253107	-0.178112	0.632813	0.773438	0.433594	684	17_11_27_5703360
-0.002930	-0.714844	-0.011719	-0.187486	0.253107	-0.178112	0.714844	0.843750	0.421875	685	17_11_27_5864650
0.002930	-0.706055	-0.008789	-0.196861	0.253107	-0.178112	0.632813	0.808594	0.480469	686	17_11_27_6025940
0.002930	-0.708984	-0.011719	-0.196861	0.243732	-0.178112	0.644531	0.890625	0.468750	687	17_11_27_6187230
0.000000	-0.720703	-0.020508	-0.196861	0.243732	-0.187486	0.609375	0.855469	0.433594	688	17_11_27_6348520
-0.002930	-0.723633	-0.017578	-0.196861	0.243732	-0.178112	0.796875	1.136719	0.468750	689	17_11_27_6509810
0.002930	-0.723633	-0.020508	-0.196861	0.253107	-0.178112	0.632813	0.867188	0.468750	690	17_11_27_6671100
-0.005859	-0.723633	-0.011719	-0.196861	0.253107	-0.178112	0.574219	0.867188	0.457031	691	17_11_27_6832390
0.002930	-0.726563	-0.014648	-0.187486	0.253107	-0.178112	0.621094	0.773438	0.433594	692	17_11_27_6993680
-0.026367	-0.717773	-0.014648	-0.187486	0.262481	-0.178112	0.609375	0.820313	0.445313	693	17_11_27_7154970
-0.005859	-0.717773	-0.020508	-0.187486	0.243732	-0.187486	0.667969	0.867188	0.468750	694	17_11_27_7316260
0.005859	-0.723633	-0.020508	-0.187486	0.243732	-0.187486	0.644531	0.773438	0.457031	695	17_11_27_7477550
0.020508	-0.714844	-0.014648	-0.196861	0.234358	-0.196861	0.632813	0.796875	0.421875	696	17_11_27_7638840
0.005859	-0.711914	-0.008789	-0.196861	0.234358	-0.196861	0.632813	0.785156	0.421875	697	17_11_27_7800130
0.014648	-0.711914	-0.014648	-0.196861	0.234358	-0.196861	0.632813	0.843750	0.457031	698	17_11_27_7961420
0.008789	-0.708984	-0.011719	-0.196861	0.243732	-0.187486	0.773438	1.007813	0.480469	699	17_11_27_8122710
0.020508	-0.708984	-0.023438	-0.196861	0.243732	-0.178112	0.621094	0.890625	0.457031	700	17_11_27_8284000
0.005859	-0.708984	-0.020508	-0.187486	0.253107	-0.178112	0.621094	1.078125	0.527344	701	17_11_27_8445290
0.014648	-0.723633	-0.020508	-0.187486	0.253107	-0.168738	0.644531	0.855469	0.457031	702	17_11_27_8606580
-0.005859	-0.708984	-0.008789	-0.196861	0.253107	-0.168738	0.644531	0.808594	0.457031	703	17_11_27_8767870
-0.005859	-0.706055	-0.023438	-0.187486	0.253107	-0.168738	0.656250	0.855469	0.480469	704	17_11_27_8929160
0.000000	-0.708984	-0.023438	-0.187486	0.243732	-0.168738	0.621094	0.878906	0.503906	705	17_11_27_9090450
-0.017578	-0.720703	-0.020508	-0.178112	0.243732	-0.178112	0.644531	0.960938	0.492188	706	17_11_27_9251740
-0.014648	-0.717773	-0.017578	-0.187486	0.243732	-0.178112	0.597656	0.878906	0.457031	707	17_11_27_9413030
-0.005859	-0.708984	-0.026367	-0.187486	0.243732	-0.178112	0.632813	0.820313	0.468750	708	17_11_27_9574320
-0.005859	-0.720703	-0.026367	-0.196861	0.234358	-0.178112	0.597656	0.855469	0.457031	709	17_11_27_9735610
-0.011719	-0.714844	-0.023438	-0.196861	0.234358	-0.178112	0.632813	0.902344	0.457031	710	17_11_27_9896900
-0.002930	-0.723633	-0.023438	-0.206235	0.234358	-0.178112	0.632813	0.878906	0.457031	711	17_11_28_0058190
0.005859	-0.714844	-0.020508	-0.196861	0.224984	-0.168738	0.632813	0.843750	0.433594	712	17_11_28_0219480
0.008789	-0.714844	-0.011719	-0.187486	0.224984	-0.178112	0.609375	0.925781	0.480469	713	17_11_28_0380770
0.005859	-0.720703	-0.008789	-0.187486	0.224984	-0.178112	0.632813	0.878906	0.468750	714	17_11_28_0542060
0.005859	-0.711914	-0.017578	-0.187486	0.234358	-0.178112	0.691406	0.902344	0.468750	715	17_11_28_0703350
0.002930	-0.714844	-0.023438	-0.187486	0.234358	-0.178112	0.621094	0.878906	0.445313	716	17_11_28_0864640
0.005859	-0.723633	-0.026367	-0.196861	0.243732	-0.178112	0.632813	0.902344	0.445313	717	17_11_28_1025930
0.002930	-0.726563	-0.017578	-0.196861	0.243732	-0.178112	0.621094	0.855469	0.468750	718	17_11_28_1187220
0.002930	-0.723633	-0.008789	-0.196861	0.243732	-0.178112	0.632813	0.855469	0.457031	719	17_11_28_1348510
-0.005859	-0.708984	-0.014648	-0.196861	0.243732	-0.178112	0.621094	0.878906	0.410156	720	17_11_28_1509800
-0.011719	-0.714844	-0.026367	-0.187486	0.253107	-0.187486	0.644531	0.808594	0.410156	721	17_11_28_1671090
-0.008789	-0.711914	-0.020508	-0.206235	0.243732	-0.178112	0.644531	0.714844	0.445313	722	17_11_28_1832380
-0.002930	-0.708984	-0.023438	-0.206235	0.234358	-0.178112	0.644531	0.808594	0.433594	723	17_11_28_1993670
0.005859	-0.717773	-0.014648	-0.187486	0.234358	-0.178112	0.609375	0.843750	0.492188	724	17_11_28_2154960
0.011719	-0.729492	-0.014648	-0.187486	0.243732	-0.178112	0.609375	0.925781	0.480469	725	17_11_28_2316250
0.002930	-0.720703	-0.023438	-0.187486	0.243732	-0.178112	0.597656	0.867188	0.457031	726	17_11_28_2477540
0.017578	-0.723633	-0.020508	-0.196861	0.243732	-0.178112	0.597656	0.785156	0.433594	727	17_11_28_2638830
0.017578	-0.717773	-0.023438	-0.187486	0.243732	-0.178112	0.726563	0.878906	0.457031	728	17_11_28_2800120
0.008789	-0.714844	-0.008789	-0.196861	0.243732	-0.168738	0.632813	0.773438	0.468750	729	17_11_28_2961410
0.014648	-0.720703	-0.020508	-0.187486	0.243732	-0.178112	0.621094	0.726563	0.468750	730	17_11_28_3122700
0.011719	-0.711914	-0.011719	-0.196861	0.243732	-0.178112	0.609375	0.820313	0.457031	731	17_11_28_3283990
0.017578	-0.714844	-0.014648	-0.187486	0.253107	-0.187486	0.644531	0.843750	0.445313	732	17_11_28_3445280
0.005859	-0.726563	-0.011719	-0.196861	0.253107	-0.187486	0.621094	0.796875	0.445313	733	17_11_28_3606570
0.005859	-0.723633	-0.014648	-0.187486	0.253107	-0.187486	0.644531	0.890625	0.468750	734	17_11_28_3767860
-0.002930	-0.720703	-0.020508	-0.196861	0.253107	-0.187486	0.644531	0.843750	0.480469	735	17_11_28_3929150
-0.005859	-0.726563	-0.026367	-0.187486	0.253107	-0.187486	0.632813	0.890625	0.480469	736	17_11_28_4090440
0.000000	-0.726563	-0.020508	-0.196861	0.262481	-0.187486	0.621094	0.890625	0.457031	737	17_11_28_4251730
-0.005859	-0.717773	-0.026367	-0.187486	0.262481	-0.178112	0.738281	0.937500	0.445313	738	17_11_28_4413020
-0.005859	-0.708984	-0.023438	-0.196861	0.262481	-0.178112	0.621094	0.832031	0.421875	739	17_11_28_4574310
-0.011719	-0.711914	-0.011719	-0.196861	0.253107	-0.187486	0.644531	0.832031	0.445313	740	17_11_28_4735600
-0.008789	-0.714844	-0.014648	-0.196861	0.253107	-0.178112	0.679688	0.867188	0.468750	741	17_11_28_4896890
-0.008789	-0.720703	-0.014648	-0.206235	0.243732	-0.178112	0.632813	0.914063	0.457031	742	17_11_28_5058180
0.000000	-0.700195	-0.023438	-0.196861	0.243732	-0.168738	0.644531	0.808594	0.421875	743	17_11_28_5219470
-0.002930	-0.714844	-0.017578	-0.196861	0.234358	-0.168738	0.621094	0.820313	0.457031	744	17_11_28_5380760
0.002930	-0.708984	-0.017578	-0.196861	0.234358	-0.168738	0.609375	0.855469	0.468750	745	17_11_28_5542050
0.008789	-0.711914	-0.017578	-0.196861	0.234358	-0.168738	0.632813	0.902344	0.457031	746	17_11_28_5703340
0.011719	-0.703125	-0.002930	-0.196861	0.234358	-0.168738	0.632813	0.890625	0.468750	747	17_11_28_5864630
0.017578	-0.711914	0.000000	-0.187486	0.243732	-0.168738	0.621094	0.843750	0.457031	748	17_11_28_6025920
0.005859	-0.714844	-0.005859	-0.187486	0.253107	-0.168738	0.714844	1.054688	0.457031	749	17_11_28_6187210
0.008789	-0.711914	0.000000	-0.187486	0.253107	-0.159363	0.609375	0.878906	0.468750	750	17_11_28_6348500
0.000000	-0.706055	-0.008789	-0.187486	0.262481	-0.159363	0.632813	0.855469	0.457031	751	17_11_28_6509790
-0.008789	-0.720703	-0.011719	-0.187486	0.262481	-0.159363	0.644531	0.843750	0.457031	752	17_11_28_6671080
0.002930	-0.708984	-0.017578	-0.187486	0.262481	-0.159363	0.632813	0.867188	0.480469	753	17_11_28_6832370
-0.005859	-0.717773	-0.023438	-0.196861	0.243732	-0.159363	0.644531	0.843750	0.480469	754	17_11_28_6993660
-0.011719	-0.720703	-0.011719	-0.187486	0.243732	-0.159363	0.691406	0.960938	0.503906	755	17_11_28_7154950
0.002930	-0.723633	-0.014648	-0.187486	0.243732	-0.159363	0.632813	0.785156	0.468750	756	17_11_28_7316240
0.000000	-0.723633	-0.014648	-0.187486	0.243732	-0.168738	0.632813	0.785156	0.457031	757	17_11_28_7477530
0.011719	-0.735352	-0.017578	-0.187486	0.243732	-0.168738	0.632813	0.785156	0.457031	758	17_11_28_7638820
0.005859	-0.714844	-0.020508	-0.196861	0.243732	-0.168738	0.644531	0.820313	0.457031	759	17_11_28_7800110
0.014648	-0.732422	-0.020508	-0.187486	0.243732	-0.168738	0.703125	0.925781	0.503906	760	17_11_28_7961400
0.017578	-0.714844	-0.014648	-0.187486	0.243732	-0.168738	0.609375	0.843750	0.480469	761	17_11_28_8122690
0.017578	-0.711914	-0.011719	-0.196861	0.243732	-0.168738	0.609375	0.761719	0.445313	762	17_11_28_8283980
0.014648	-0.708984	-0.020508	-0.187486	0.243732	-0.168738	0.609375	0.808594	0.421875	763	17_11_28_8445270
0.014648	-0.708984	-0.017578	-0.187486	0.243732	-0.168738	0.585938	0.890625	0.433594	764	17_11_28_8606560
0.017578	-0.717773	-0.026367	-0.187486	0.234358	-0.168738	0.644531	0.785156	0.468750	765	17_11_28_8767850
0.014648	-0.711914	-0.020508	-0.187486	0.234358	-0.168738	0.667969	0.820313	0.515625	766	17_11_28_8929140
0.023438	-0.720703	-0.020508	-0.178112	0.234358	-0.168738	0.609375	0.878906	0.445313	767	17_11_28_9090430
0.014648	-0.711914	-0.023438	-0.178112	0.234358	-0.159363	0.597656	0.820313	0.421875	768	17_11_28_9251720
0.029297	-0.738281	-0.026367	-0.178112	0.224984	-0.159363	0.796875	1.089844	0.445313	769	17_11_28_9413010
0.029297	-0.729492	-0.023438	-0.178112	0.224984	-0.159363	0.609375	0.914063	0.433594	770	17_11_28_9574300
0.020508	-0.723633	-0.023438	-0.178112	0.234358	-0.159363	0.632813	0.878906	0.433594	771	17_11_28_9735590
0.035156	-0.738281	-0.014648	-0.178112	0.234358	-0.168738	0.609375	0.867188	0.445313	772	17_11_28_9896880
0.020508	-0.732422	-0.014648	-0.187486	0.234358	-0.168738	0.609375	0.855469	0.468750	773	17_11_29_0058170
0.017578	-0.726563	-0.008789	-0.187486	0.234358	-0.168738	0.644531	0.820313	0.457031	774	17_11_29_0219460
0.026367	-0.729492	-0.011719	-0.187486	0.234358	-0.178112	0.621094	0.867188	0.433594	775	17_11_29_0380750
0.020508	-0.723633	-0.002930	-0.187486	0.243732	-0.178112	0.597656	0.855469	0.445313	776	17_11_29_0542040
0.026367	-0.717773	-0.005859	-0.196861	0.243732	-0.187486	0.621094	0.855469	0.457031	777	17_11_29_0703330
0.017578	-0.738281	-0.017578	-0.196861	0.253107	-0.187486	0.632813	0.890625	0.457031	778	17_11_29_0864620
0.017578	-0.717773	-0.008789	-0.206235	0.253107	-0.187486	0.597656	0.808594	0.457031	779	17_11_29_1025910
0.023438	-0.717773	-0.014648	-0.196861	0.253107	-0.187486	0.597656	0.867188	0.480469	780	17_11_29_1187200
0.023438	-0.717773	-0.023438	-0.196861	0.253107	-0.187486	0.609375	0.890625	0.457031	781	17_11_29_1348490
0.014648	-0.714844	-0.017578	-0.206235	0.253107	-0.196861	0.621094	0.832031	0.445313	782	17_11_29_1509780
0.023438	-0.711914	-0.020508	-0.187486	0.253107	-0.187486	0.597656	0.902344	0.457031	783	17_11_29_1671070
0.017578	-0.706055	-0.026367	-0.187486	0.253107	-0.187486	0.609375	0.878906	0.457031	784	17_11_29_1832360
0.017578	-0.708984	-0.032227	-0.187486	0.253107	-0.187486	0.621094	0.808594	0.457031	785	17_11_29_1993650
0.005859	-0.708984	-0.023438	-0.187486	0.253107	-0.187486	0.621094	0.750000	0.457031	786	17_11_29_2154940
0.017578	-0.729492	-0.026367	-0.187486	0.243732	-0.178112	0.632813	0.902344	0.468750	787	17_11_29_2316230
0.011719	-0.714844	-0.023438	-0.196861	0.243732	-0.178112	0.632813	0.949219	0.480469	788	17_11_29_2477520
0.017578	-0.711914	-0.029297	-0.187486	0.243732	-0.178112	0.621094	0.867188	0.468750	789	17_11_29_2638810
0.014648	-0.720703	-0.020508	-0.196861	0.243732	-0.178112	0.585938	0.855469	0.421875	790	17_11_29_2800100
0.020508	-0.723633	-0.026367	-0.187486	0.243732	-0.178112	0.621094	0.890625	0.433594	791	17_11_29_2961390
0.014648	-0.720703	-0.023438	-0.187486	0.243732	-0.178112	0.609375	0.820313	0.468750	792	17_11_29_3122680
0.026367	-0.720703	-0.020508	-0.196861	0.243732	-0.178112	0.597656	0.796875	0.445313	793	17_11_29_3283970
0.011719	-0.726563	-0.020508	-0.187486	0.243732	-0.178112	0.597656	0.855469	0.433594	794	17_11_29_3445260
0.017578	-0.717773	-0.020508	-0.187486	0.243732	-0.187486	0.679688	1.054688	0.527344	795	17_11_29_3606550
0.017578	-0.714844	-0.020508	-0.196861	0.243732	-0.187486	0.597656	0.867188	0.480469	796	17_11_29_3767840
0.017578	-0.729492	-0.005859	-0.196861	0.243732	-0.187486	0.644531	0.796875	0.480469	797	17_11_29_3929130
0.011719	-0.714844	-0.020508	-0.196861	0.243732	-0.187486	0.621094	0.843750	0.457031	798	17_11_29_4090420
0.002930	-0.720703	-0.017578	-0.196861	0.243732	-0.187486	0.597656	0.914063	0.445313	799	17_11_29_4251710
0.014648	-0.726563	-0.011719	-0.196861	0.253107	-0.187486	0.597656	0.914063	0.445313	800	17_11_29_4413000
0.017578	-0.717773	-0.014648	-0.196861	0.243732	-0.187486	0.609375	0.867188	0.468750	801	17_11_29_4574290
0.014648	-0.714844	-0.017578	-0.206235	0.243732	-0.187486	0.609375	0.808594	0.457031	802	17_11_29_4735580
0.011719	-0.717773	-0.008789	-0.187486	0.253107	-0.178112	0.796875	1.089844	0.480469	803	17_11_29_4896870
0.005859	-0.708984	-0.011719	-0.196861	0.243732	-0.187486	0.609375	0.867188	0.492188	804	17_11_29_5058160
0.014648	-0.717773	-0.020508	-0.187486	0.243732	-0.187486	0.679688	0.890625	0.480469	805	17_11_29_5219450
0.014648	-0.720703	-0.023438	-0.187486	0.243732	-0.187486	0.632813	0.855469	0.480469	806	17_11_29_5380740
0.005859	-0.720703	-0.014648	-0.187486	0.243732	-0.187486	0.609375	0.914063	0.503906	807	17_11_29_5542030
0.014648	-0.714844	-0.020508	-0.187486	0.243732	-0.187486	0.609375	0.902344	0.468750	808	17_11_29_5703320
0.005859	-0.720703	-0.023438	-0.187486	0.243732	-0.187486	0.597656	0.808594	0.468750	809	17_11_29_5864610
0.011719	-0.703125	-0.020508	-0.187486	0.243732	-0.178112	0.609375	0.820313	0.468750	810	17_11_29_6025900
0.005859	-0.714844	-0.017578	-0.196861	0.243732	-0.178112	0.644531	1.007813	0.445313	811	17_11_29_6187190
0.005859	-0.711914	-0.017578	-0.187486	0.243732	-0.178112	0.750000	1.066406	0.445313	812	17_11_29_6348480
0.014648	-0.720703	-0.023438	-0.196861	0.243732	-0.178112	0.597656	0.890625	0.457031	813	17_11_29_6509770
0.017578	-0.708984	-0.020508	-0.187486	0.243732	-0.178112	0.621094	0.878906	0.457031	814	17_11_29_6671060
0.005859	-0.723633	-0.020508	-0.187486	0.243732	-0.178112	0.621094	0.785156	0.468750	815	17_11_29_6832350
0.005859	-0.708984	-0.020508	-0.187486	0.243732	-0.178112	0.644531	0.714844	0.468750	816	17_11_29_6993640
0.014648	-0.720703	-0.017578	-0.196861	0.243732	-0.178112	0.621094	0.867188	0.480469	817	17_11_29_7154930
0.014648	-0.708984	-0.020508	-0.187486	0.243732	-0.178112	0.621094	0.843750	0.480469	818	17_11_29_7316220
0.002930	-0.717773	-0.011719	-0.196861	0.243732	-0.178112	0.621094	0.832031	0.445313	819	17_11_29_7477510
0.017578	-0.708984	-0.020508	-0.187486	0.234358	-0.178112	0.621094	0.902344	0.433594	820	17_11_29_7638800
0.014648	-0.714844	-0.014648	-0.187486	0.243732	-0.178112	0.726563	0.949219	0.457031	821	17_11_29_7800090
0.020508	-0.714844	-0.023438	-0.187486	0.243732	-0.178112	0.621094	0.773438	0.445313	822	17_11_29_7961380
0.026367	-0.717773	-0.014648	-0.187486	0.243732	-0.178112	0.621094	0.785156	0.445313	823	17_11_29_8122670
0.008789	-0.720703	-0.023438	-0.196861	0.243732	-0.178112	0.597656	0.808594	0.445313	824	17_11_29_8283960
0.029297	-0.723633	-0.026367	-0.196861	0.243732	-0.178112	0.621094	0.855469	0.433594	825	17_11_29_8445250
0.017578	-0.732422	-0.020508	-0.187486	0.243732	-0.178112	0.621094	0.785156	0.421875	826	17_11_29_8606540
0.011719	-0.726563	-0.017578	-0.196861	0.243732	-0.178112	0.644531	0.785156	0.457031	827	17_11_29_8767830
0.017578	-0.714844	-0.017578	-0.196861	0.243732	-0.178112	0.644531	0.867188	0.457031	828	17_11_29_8929120
0.026367	-0.708984	-0.014648	-0.196861	0.243732	-0.178112	0.621094	0.843750	0.445313	829	17_11_29_9090410
0.017578	-0.720703	-0.029297	-0.187486	0.243732	-0.178112	0.644531	0.878906	0.457031	830	17_11_29_9251700
0.020508	-0.714844	-0.008789	-0.187486	0.243732	-0.178112	0.609375	0.937500	0.457031	831	17_11_29_9412990
0.029297	-0.714844	-0.014648	-0.187486	0.234358	-0.178112	0.726563	1.054688	0.480469	832	17_11_29_9574280
0.026367	-0.729492	-0.017578	-0.187486	0.243732	-0.178112	0.609375	0.867188	0.433594	833	17_11_29_9735570
0.011719	-0.720703	-0.011719	-0.196861	0.243732	-0.178112	0.632813	0.832031	0.457031	834	17_11_29_9896860
0.008789	-0.720703	-0.029297	-0.187486	0.243732	-0.178112	0.609375	0.855469	0.468750	835	17_11_30_0058150
0.002930	-0.720703	-0.017578	-0.196861	0.243732	-0.187486	0.621094	0.867188	0.468750	836	17_11_30_0219440
0.017578	-0.714844	-0.014648	-0.196861	0.243732	-0.178112	0.621094	0.820313	0.457031	837	17_11_30_0380730
0.017578	-0.711914	-0.020508	-0.187486	0.243732	-0.187486	0.621094	0.820313	0.445313	838	17_11_30_0542020
0.005859	-0.714844	-0.020508	-0.196861	0.243732	-0.178112	0.632813	0.796875	0.445313	839	17_11_30_0703310
0.011719	-0.720703	-0.020508	-0.187486	0.243732	-0.178112	0.667969	0.890625	0.457031	840	17_11_30_0864600
0.017578	-0.720703	-0.014648	-0.196861	0.243732	-0.178112	0.703125	0.972656	0.468750	841	17_11_30_1025890
0.017578	-0.717773	-0.011719	-0.196861	0.243732	-0.178112	0.621094	0.890625	0.457031	842	17_11_30_1187180
0.014648	-0.720703	-0.011719	-0.196861	0.243732	-0.178112	0.644531	0.820313	0.433594	843	17_11_30_1348470
0.005859	-0.726563	-0.017578	-0.196861	0.243732	-0.178112	0.632813	0.867188	0.457031	844	17_11_30_1509760
0.014648	-0.714844	-0.017578	-0.196861	0.243732	-0.187486	0.597656	0.855469	0.468750	845	17_11_30_1671050
0.014648	-0.720703	-0.020508	-0.187486	0.243732	-0.178112	0.644531	0.820313	0.433594	846	17_11_30_1832340
0.005859	-0.711914	-0.014648	-0.187486	0.243732	-0.178112	0.632813	1.089844	0.527344	847	17_11_30_1993630
0.023438	-0.711914	-0.020508	-0.196861	0.243732	-0.178112	0.621094	0.773438	0.421875	848	17_11_30_2154920
0.005859	-0.717773	-0.017578	-0.187486	0.243732	-0.187486	0.621094	0.773438	0.457031	849	17_11_30_2316210
0.011719	-0.717773	-0.014648	-0.187486	0.243732	-0.187486	0.644531	0.832031	0.468750	850	17_11_30_2477500
0.011719	-0.720703	-0.017578	-0.196861	0.243732	-0.187486	0.632813	0.902344	0.445313	851	17_11_30_2638790
-0.002930	-0.720703	-0.020508	-0.196861	0.243732	-0.187486	0.597656	0.843750	0.445313	852	17_11_30_2800080
0.017578	-0.720703	-0.020508	-0.196861	0.253107	-0.178112	0.574219	0.843750	0.433594	853	17_11_30_2961370
0.011719	-0.720703	-0.017578	-0.196861	0.243732	-0.187486	0.609375	0.855469	0.457031	854	17_11_30_3122660
0.017578	-0.720703	-0.011719	-0.196861	0.243732	-0.178112	0.621094	0.855469	0.480469	855	17_11_30_3283950
0.008789	-0.717773	-0.014648	-0.196861	0.243732	-0.187486	0.644531	0.785156	0.457031	856	17_11_30_3445240
0.017578	-0.711914	-0.023438	-0.187486	0.243732	-0.178112	0.621094	0.867188	0.445313	857	17_11_30_3606530
0.005859	-0.708984	-0.014648	-0.196861	0.243732	-0.178112	0.644531	0.832031	0.468750	858	17_11_30_3767820
0.008789	-0.714844	-0.020508	-0.187486	0.243732	-0.178112	0.621094	0.843750	0.468750	859	17_11_30_3929110
0.014648	-0.720703	-0.014648	-0.187486	0.243732	-0.178112	0.644531	0.914063	0.480469	860	17_11_30_4090400
0.014648	-0.720703	-0.014648	-0.187486	0.243732	-0.178112	0.644531	0.796875	0.457031	861	17_11_30_4251690
0.017578	-0.726563	-0.014648	-0.187486	0.243732	-0.187486	0.585938	0.761719	0.433594	862	17_11_30_4412980
0.017578	-0.714844	-0.014648	-0.187486	0.243732	-0.178112	0.621094	0.890625	0.457031	863	17_11_30_4574270
0.000000	-0.720703	-0.014648	-0.187486	0.243732	-0.178112	0.609375	0.914063	0.457031	864	17_11_30_4735560
0.020508	-0.723633	-0.023438	-0.196861	0.243732	-0.178112	0.644531	0.773438	0.457031	865	17_11_30_4896850
0.017578	-0.720703	-0.020508	-0.196861	0.243732	-0.187486	0.726563	0.984375	0.503906	866	17_11_30_5058140
0.011719	-0.717773	-0.017578	-0.196861	0.243732	-0.178112	0.621094	0.820313	0.480469	867	17_11_30_5219430
0.017578	-0.708984	-0.020508	-0.196861	0.243732	-0.187486	0.609375	0.808594	0.468750	868	17_11_30_5380720
0.011719	-0.720703	-0.014648	-0.196861	0.243732	-0.178112	0.621094	0.773438	0.445313	869	17_11_30_5542010
0.011719	-0.706055	-0.017578	-0.187486	0.243732	-0.178112	0.644531	0.750000	0.457031	870	17_11_30_5703300
0.017578	-0.714844	-0.020508	-0.196861	0.243732	-0.178112	0.609375	0.808594	0.468750	871	17_11_30_5864590
0.014648	-0.723633	-0.020508	-0.196861	0.243732	-0.168738	0.632813	0.808594	0.503906	872	17_11_30_6025880
0.026367	-0.711914	-0.014648	-0.196861	0.243732	-0.178112	0.585938	0.796875	0.480469	873	17_11_30_6187170
0.008789	-0.714844	-0.023438	-0.187486	0.243732	-0.178112	0.609375	0.785156	0.433594	874	17_11_30_6348460
0.020508	-0.720703	-0.020508	-0.187486	0.243732	-0.178112	0.644531	0.761719	0.433594	875	17_11_30_6509750
0.017578	-0.714844	-0.017578	-0.196861	0.243732	-0.178112	0.609375	0.773438	0.468750	876	17_11_30_6671040
0.020508	-0.720703	-0.014648	-0.196861	0.243732	-0.178112	0.621094	0.843750	0.468750	877	17_11_30_6832330
0.014648	-0.714844	-0.014648	-0.196861	0.243732	-0.178112	0.609375	0.902344	0.445313	878	17_11_30_6993620
0.017578	-0.714844	-0.017578	-0.187486	0.243732	-0.187486	0.632813	0.832031	0.433594	879	17_11_30_7154910
0.023438	-0.726563	-0.020508	-0.196861	0.243732	-0.178112	0.597656	0.785156	0.457031	880	17_11_30_7316200
0.008789	-0.708984	-0.011719	-0.196861	0.243732	-0.178112	0.597656	0.867188	0.468750	881	17_11_30_7477490
0.002930	-0.711914	-0.020508	-0.187486	0.243732	-0.178112	0.726563	0.937500	0.480469	882	17_11_30_7638780
0.020508	-0.717773	-0.017578	-0.196861	0.243732	-0.178112	0.644531	0.867188	0.457031	883	17_11_30_7800070
0.008789	-0.714844	-0.014648	-0.196861	0.243732	-0.187486	0.644531	0.937500	0.410156	884	17_11_30_7961360
0.020508	-0.720703	-0.017578	-0.196861	0.243732	-0.178112	0.585938	0.914063	0.421875	885	17_11_30_8122650
0.011719	-0.720703	-0.014648	-0.196861	0.243732	-0.178112	0.597656	0.820313	0.445313	886	17_11_30_8283940
0.023438	-0.717773	-0.011719	-0.196861	0.243732	-0.178112	0.609375	0.820313	0.445313	887	17_11_30_8445230
0.026367	-0.711914	-0.026367	-0.196861	0.243732	-0.187486	0.632813	0.808594	0.468750	888	17_11_30_8606520
0.017578	-0.723633	-0.017578	-0.187486	0.243732	-0.187486	0.667969	1.078125	0.492188	889	17_11_30_8767810
0.014648	-0.723633	-0.020508	-0.196861	0.243732	-0.187486	0.656250	0.937500	0.457031	890	17_11_30_8929100
0.014648	-0.720703	-0.017578	-0.187486	0.243732	-0.178112	0.632813	0.878906	0.433594	891	17_11_30_9090390
0.005859	-0.708984	-0.023438	-0.196861	0.243732	-0.178112	0.667969	0.937500	0.445313	892	17_11_30_9251680
0.026367	-0.714844	-0.026367	-0.206235	0.243732	-0.178112	0.644531	0.914063	0.445313	893	17_11_30_9412970
0.014648	-0.717773	-0.014648	-0.196861	0.243732	-0.178112	0.621094	0.796875	0.457031	894	17_11_30_9574260
0.017578	-0.723633	-0.017578	-0.196861	0.243732	-0.178112	0.632813	0.890625	0.457031	895	17_11_30_9735550
0.020508	-0.717773	-0.023438	-0.196861	0.243732	-0.178112	0.621094	0.878906	0.445313	896	17_11_30_9896840
0.005859	-0.717773	-0.008789	-0.196861	0.243732	-0.178112	0.632813	0.855469	0.445313	897	17_11_31_0058130
0.014648	-0.720703	-0.017578	-0.187486	0.253107	-0.178112	0.714844	1.160156	0.515625	898	17_11_31_0219420
0.005859	-0.726563	-0.011719	-0.196861	0.243732	-0.178112	0.621094	0.820313	0.503906	899	17_11_31_0380710
0.008789	-0.708984	-0.017578	-0.187486	0.243732	-0.178112	0.621094	0.808594	0.480469	900	17_11_31_0542000
0.017578	-0.729492	-0.017578	-0.187486	0.243732	-0.196861	0.609375	0.890625	0.457031	901	17_11_31_0703290
0.008789	-0.711914	-0.011719	-0.187486	0.243732	-0.178112	0.597656	0.796875	0.457031	902	17_11_31_0864580
0.020508	-0.720703	-0.014648	-0.196861	0.243732	-0.187486	0.621094	0.750000	0.457031	903	17_11_31_1025870
0.014648	-0.714844	-0.017578	-0.187486	0.243732	-0.178112	0.644531	0.820313	0.492188	904	17_11_31_1187160
0.014648	-0.714844	-0.014648	-0.187486	0.253107	-0.178112	0.621094	0.785156	0.480469	905	17_11_31_1348450
0.017578	-0.717773	-0.014648	-0.187486	0.243732	-0.178112	0.609375	0.843750	0.457031	906	17_11_31_1509740
0.008789	-0.723633	-0.002930	-0.187486	0.253107	-0.178112	0.761719	1.007813	0.515625	907	17_11_31_1671030
0.020508	-0.714844	-0.017578	-0.196861	0.253107	-0.178112	0.644531	0.867188	0.457031	908	17_11_31_1832320
0.029297	-0.717773	-0.020508	-0.196861	0.262481	-0.178112	0.644531	0.914063	0.445313	909	17_11_31_1993610
0.011719	-0.714844	-0.014648	-0.187486	0.262481	-0.178112	0.609375	0.832031	0.468750	910	17_11_31_2154900
0.011719	-0.714844	-0.023438	-0.187486	0.253107	-0.178112	0.621094	0.796875	0.457031	911	17_11_31_2316190
-0.005859	-0.723633	-0.014648	-0.187486	0.243732	-0.178112	0.609375	0.902344	0.445313	912	17_11_31_2477480
0.017578	-0.711914	-0.017578	-0.187486	0.243732	-0.178112	0.632813	0.773438	0.457031	913	17_11_31_2638770
0.002930	-0.720703	-0.020508	-0.187486	0.243732	-0.178112	0.714844	0.925781	0.457031	914	17_11_31_2800060
0.014648	-0.729492	-0.029297	-0.187486	0.243732	-0.187486	0.632813	0.867188	0.433594	915	17_11_31_2961350
0.011719	-0.726563	-0.017578	-0.196861	0.243732	-0.187486	0.609375	0.843750	0.445313	916	17_11_31_3122640
0.017578	-0.752930	-0.002930	-0.206235	0.243732	-0.178112	0.644531	0.843750	0.457031	917	17_11_31_3283930
0.052734	-0.744141	-0.002930	-0.206235	0.262481	-0.168738	0.632813	0.937500	0.445313	918	17_11_31_3445220
0.079102	-0.750000	0.014648	-0.224984	0.299978	-0.178112	0.609375	0.890625	0.457031	919	17_11_31_3606510
0.090820	-0.761719	0.038086	-0.243732	0.346850	-0.206235	0.644531	1.089844	0.527344	920	17_11_31_3767800
0.046875	-0.785156	0.046875	-0.271855	0.393721	-0.243732	0.574219	0.914063	0.468750	921	17_11_31_3929090
0.005859	-0.808594	0.070313	-0.299978	0.421844	-0.271855	0.621094	0.890625	0.457031	922	17_11_31_4090380
-0.005859	-0.820313	0.087891	-0.346850	0.431219	-0.290604	0.632813	0.832031	0.457031	923	17_11_31_4251670
-0.038086	-0.817383	0.105469	-0.365598	0.421844	-0.299978	0.609375	0.832031	0.433594	924	17_11_31_4412960
0.090820	-0.823242	0.084961	-0.393721	0.431219	-0.328101	0.597656	0.843750	0.421875	925	17_11_31_4574250
0.061523	-0.752930	0.152344	-0.440593	0.365598	-0.346850	0.621094	0.867188	0.480469	926	17_11_31_4735540
0.064453	-0.755859	0.114258	-0.421844	0.337475	-0.328101	0.656250	0.890625	0.492188	927	17_11_31_4896830
0.076172	-0.779297	0.108398	-0.431219	0.384347	-0.290604	0.644531	0.867188	0.445313	928	17_11_31_5058120
0.087891	-0.761719	0.134766	-0.468716	0.431219	-0.253107	0.644531	0.761719	0.445313	929	17_11_31_5219410
0.058594	-0.750000	0.158203	-0.506213	0.431219	-0.234358	0.644531	0.773438	0.468750	930	17_11_31_5380700
0.029297	-0.776367	0.178711	-0.543711	0.393721	-0.196861	0.644531	0.878906	0.468750	931	17_11_31_5541990
0.017578	-0.755859	0.187500	-0.581208	0.346850	-0.159363	0.656250	0.832031	0.445313	932	17_11_31_5703280
0.023438	-0.750000	0.181641	-0.599956	0.299978	-0.121866	0.609375	0.691406	0.445313	933	17_11_31_5864570
0.041016	-0.732422	0.184570	-0.628079	0.262481	-0.112492	0.644531	0.738281	0.421875	934	17_11_31_6025860
0.043945	-0.720703	0.184570	-0.618705	0.253107	-0.131240	0.644531	0.878906	0.375000	935	17_11_31_6187150
0.041016	-0.720703	0.190430	-0.599956	0.262481	-0.140615	0.632813	0.902344	0.398438	936	17_11_31_6348440
0.055664	-0.720703	0.196289	-0.581208	0.290604	-0.140615	0.644531	0.867188	0.457031	937	17_11_31_6509730
0.076172	-0.697266	0.222656	-0.562459	0.337475	-0.112492	0.667969	0.843750	0.421875	938	17_11_31_6671020
0.093750	-0.691406	0.237305	-0.534336	0.384347	-0.112492	0.632813	0.855469	0.421875	939	17_11_31_6832310
0.084961	-0.662109	0.225586	-0.515588	0.412470	-0.131240	0.632813	0.796875	0.421875	940	17_11_31_6993600
0.038086	-0.650391	0.228516	-0.487465	0.412470	-0.168738	0.644531	0.820313	0.433594	941	17_11_31_7154890
0.011719	-0.638672	0.231445	-0.468716	0.384347	-0.196861	0.644531	0.890625	0.433594	942	17_11_31_7316180
-0.005859	-0.635742	0.231445	-0.440593	0.356224	-0.196861	0.644531	0.914063	0.433594	943	17_11_31_7477470
0.017578	-0.626953	0.251953	-0.421844	0.328101	-0.168738	0.656250	0.843750	0.433594	944	17_11_31_7638760
0.058594	-0.615234	0.284180	-0.393721	0.318727	-0.149989	0.632813	0.902344	0.421875	945	17_11_31_7800050
0.082031	-0.603516	0.301758	-0.346850	0.337475	-0.159363	0.691406	0.984375	0.410156	946	17_11_31_7961340
0.084961	-0.585938	0.292969	-0.299978	0.365598	-0.206235	0.656250	0.867188	0.410156	947	17_11_31_8122630
0.073242	-0.562500	0.319336	-0.243732	0.393721	-0.271855	0.667969	0.878906	0.421875	948	17_11_31_8283920
0.055664	-0.562500	0.301758	-0.187486	0.431219	-0.318727	0.644531	0.890625	0.421875	949	17_11_31_8445210
0.038086	-0.577148	0.319336	-0.149989	0.459342	-0.346850	0.632813	0.820313	0.421875	950	17_11_31_8606500
0.026367	-0.580078	0.316406	-0.121866	0.496839	-0.365598	0.679688	0.820313	0.421875	951	17_11_31_8767790
0.017578	-0.556641	0.313477	-0.112492	0.496839	-0.374973	0.667969	0.785156	0.421875	952	17_11_31_8929080
-0.029297	-0.518555	0.301758	-0.084369	0.468716	-0.412470	0.691406	0.820313	0.421875	953	17_11_31_9090370
-0.046875	-0.550781	0.254883	-0.056246	0.468716	-0.449967	0.667969	0.960938	0.421875	954	17_11_31_9251660
-0.046875	-0.562500	0.246094	-0.028123	0.478090	-0.468716	0.808594	1.042969	0.433594	955	17_11_31_9412950
-0.043945	-0.568359	0.254883	0.000000	0.506213	-0.468716	0.691406	0.761719	0.445313	956	17_11_31_9574240
-0.041016	-0.568359	0.254883	0.046872	0.524962	-0.468716	0.691406	0.750000	0.433594	957	17_11_31_9735530
-0.041016	-0.600586	0.260742	0.074995	0.543711	-0.496839	0.691406	0.867188	0.433594	958	17_11_31_9896820
-0.061523	-0.626953	0.240234	0.065620	0.571833	-0.496839	0.714844	0.890625	0.445313	959	17_11_32_0058110
-0.102539	-0.641602	0.249023	0.074995	0.581208	-0.496839	0.691406	0.820313	0.433594	960	17_11_32_0219400
-0.105469	-0.685547	0.246094	0.093743	0.590582	-0.487465	0.761719	0.996094	0.433594	961	17_11_32_0380690
-0.117188	-0.726563	0.251953	0.084369	0.609331	-0.478090	0.738281	0.902344	0.386719	962	17_11_32_0541980
-0.137695	-0.761719	0.243164	0.084369	0.628079	-0.459342	0.738281	0.820313	0.433594	963	17_11_32_0703270
-0.140625	-0.791016	0.213867	0.056246	0.656202	-0.440593	0.703125	0.808594	0.457031	964	17_11_32_0864560
-0.149414	-0.802734	0.196289	0.046872	0.703074	-0.403096	0.738281	0.773438	0.445313	965	17_11_32_1025850
-0.146484	-0.770508	0.166992	0.018749	0.749946	-0.374973	0.738281	0.867188	0.445313	966	17_11_32_1187140
-0.166992	-0.717773	0.128906	-0.018749	0.787443	-0.356224	0.714844	0.902344	0.480469	967	17_11_32_1348430
-0.155273	-0.697266	0.073242	-0.056246	0.815566	-0.346850	0.738281	0.890625	0.503906	968	17_11_32_1509720
-0.164063	-0.670898	0.014648	-0.093743	0.834314	-0.337475	0.738281	0.843750	0.503906	969	17_11_32_1671010
-0.208008	-0.685547	-0.055664	-0.131240	0.834314	-0.309353	0.714844	0.878906	0.480469	970	17_11_32_1832300
-0.225586	-0.665039	-0.090820	-0.149989	0.824940	-0.271855	0.738281	0.925781	0.457031	971	17_11_32_1993590
-0.249023	-0.629883	-0.117188	-0.112492	0.778068	-0.215609	0.738281	0.914063	0.468750	972	17_11_32_2154880
-0.240234	-0.641602	-0.161133	-0.103118	0.749946	-0.178112	0.691406	0.832031	0.457031	973	17_11_32_2316170
-0.237305	-0.632813	-0.196289	-0.112492	0.731197	-0.140615	0.726563	0.820313	0.445313	974	17_11_32_2477460
-0.243164	-0.644531	-0.208008	-0.121866	0.721823	-0.140615	0.726563	0.855469	0.503906	975	17_11_32_2638750
-0.290039	-0.691406	-0.216797	-0.140615	0.703074	-0.140615	0.726563	0.937500	0.515625	976	17_11_32_2800040
-0.342773	-0.744141	-0.237305	-0.131240	0.674951	-0.112492	0.714844	0.867188	0.503906	977	17_11_32_2961330
-0.366211	-0.814453	-0.219727	-0.103118	0.637454	-0.084369	0.703125	0.808594	0.503906	978	17_11_32_3122620
-0.389648	-0.864258	-0.225586	-0.093743	0.618705	-0.056246	0.750000	0.855469	0.503906	979	17_11_32_3283910
-0.392578	-0.887695	-0.199219	-0.074995	0.581208	-0.056246	0.691406	0.820313	0.492188	980	17_11_32_3445200
-0.380859	-0.899414	-0.202148	-0.084369	0.543711	-0.065620	0.703125	0.843750	0.539063	981	17_11_32_3606490
-0.360352	-0.887695	-0.205078	-0.112492	0.506213	-0.093743	0.667969	0.843750	0.539063	982	17_11_32_3767780
-0.363281	-0.864258	-0.202148	-0.103118	0.459342	-0.140615	0.691406	0.878906	0.574219	983	17_11_32_3929070
-0.339844	-0.840820	-0.208008	-0.093743	0.412470	-0.178112	0.679688	0.878906	0.550781	984	17_11_32_4090360
-0.310547	-0.849609	-0.205078	-0.093743	0.393721	-0.196861	0.667969	0.867188	0.503906	985	17_11_32_4251650
-0.281250	-0.849609	-0.199219	-0.093743	0.393721	-0.206235	0.679688	0.820313	0.539063	986	17_11_32_4412940
-0.278320	-0.826172	-0.169922	-0.093743	0.384347	-0.206235	0.691406	0.808594	0.562500	987	17_11_32_4574230
-0.257813	-0.808594	-0.164063	-0.084369	0.346850	-0.196861	0.679688	0.855469	0.515625	988	17_11_32_4735520
-0.210938	-0.814453	-0.149414	-0.074995	0.328101	-0.196861	0.667969	0.937500	0.503906	989	17_11_32_4896810
-0.193359	-0.791016	-0.131836	-0.093743	0.318727	-0.206235	0.691406	0.972656	0.562500	990	17_11_32_5058100
-0.169922	-0.761719	-0.120117	-0.093743	0.328101	-0.196861	0.667969	0.855469	0.550781	991	17_11_32_5219390
-0.169922	-0.747070	-0.128906	-0.093743	0.337475	-0.187486	0.667969	0.820313	0.515625	992	17_11_32_5380680
-0.149414	-0.747070	-0.128906	-0.103118	0.346850	-0.187486	0.679688	0.820313	0.550781	993	17_11_32_5541970
-0.149414	-0.750000	-0.140625	-0.103118	0.365598	-0.178112	0.632813	0.914063	0.527344	994	17_11_32_5703260
-0.134766	-0.750000	-0.137695	-0.103118	0.403096	-0.149989	0.679688	0.925781	0.515625	995	17_11_32_5864550
-0.128906	-0.755859	-0.143555	-0.103118	0.431219	-0.121866	0.679688	0.890625	0.574219	996	17_11_32_6025840
-0.128906	-0.776367	-0.146484	-0.103118	0.440593	-0.103118	0.656250	0.914063	0.539063	997	17_11_32_6187130
-0.123047	-0.808594	-0.187500	-0.121866	0.431219	-0.074995	0.644531	0.914063	0.492188	998	17_11_32_6348420
-0.134766	-0.793945	-0.178711	-0.121866	0.431219	-0.046872	0.621094	0.855469	0.515625	999	17_11_32_6509710
-0.137695	-0.770508	-0.152344	-0.103118	0.440593	-0.009374	0.738281	0.972656	0.574219	1000	17_11_32_6671000
-0.123047	-0.744141	-0.143555	-0.084369	0.449967	0.028123	0.667969	0.949219	0.574219	1001	17_11_32_6832290
-0.070313	-0.723633	-0.175781	-0.084369	0.459342	0.046872	0.761719	1.359375	0.585938	1002	17_11_32_6993580
-0.029297	-0.679688	-0.155273	-0.084369	0.468716	0.046872	0.644531	0.937500	0.527344	1003	17_11_32_7154870
-0.023438	-0.679688	-0.143555	-0.065620	0.506213	0.018749	0.644531	0.914063	0.527344	1004	17_11_32_7316160
-0.052734	-0.676758	-0.166992	-0.065620	0.534336	-0.009374	0.632813	0.878906	0.550781	1005	17_11_32_7477450
-0.070313	-0.667969	-0.196289	-0.056246	0.543711	-0.028123	0.597656	0.867188	0.550781	1006	17_11_32_7638740
-0.064453	-0.641602	-0.228516	-0.056246	0.506213	-0.037497	0.621094	0.914063	0.539063	1007	17_11_32_7800030
-0.096680	-0.621094	-0.231445	-0.093743	0.449967	-0.065620	0.585938	0.902344	0.527344	1008	17_11_32_7961320
-0.128906	-0.603516	-0.213867	-0.065620	0.431219	-0.084369	0.632813	0.984375	0.515625	1009	17_11_32_8122610
-0.155273	-0.571289	-0.202148	-0.065620	0.412470	-0.103118	0.574219	0.914063	0.527344	1010	17_11_32_8283900
-0.146484	-0.585938	-0.202148	-0.046872	0.374973	-0.131240	0.667969	0.972656	0.562500	1011	17_11_32_8445190
-0.134766	-0.585938	-0.237305	-0.065620	0.309353	-0.178112	0.574219	0.843750	0.574219	1012	17_11_32_8606480
-0.140625	-0.603516	-0.243164	-0.065620	0.290604	-0.224984	0.609375	0.878906	0.550781	1013	17_11_32_8767770
-0.164063	-0.583008	-0.222656	-0.093743	0.309353	-0.262481	0.585938	0.996094	0.597656	1014	17_11_32_8929060
-0.169922	-0.562500	-0.222656	-0.084369	0.337475	-0.290604	0.562500	0.914063	0.539063	1015	17_11_32_9090350
-0.166992	-0.533203	-0.222656	-0.093743	0.337475	-0.309353	0.550781	0.902344	0.503906	1016	17_11_32_9251640
-0.166992	-0.509766	-0.213867	-0.093743	0.337475	-0.328101	0.585938	0.890625	0.527344	1017	17_11_32_9412930
-0.169922	-0.509766	-0.213867	-0.103118	0.337475	-0.356224	0.562500	0.937500	0.539063	1018	17_11_32_9574220
-0.146484	-0.530273	-0.210938	-0.131240	0.346850	-0.384347	0.597656	0.925781	0.515625	1019	17_11_32_9735510
-0.169922	-0.553711	-0.205078	-0.159363	0.365598	-0.393721	0.609375	0.914063	0.562500	1020	17_11_32_9896800
-0.175781	-0.574219	-0.210938	-0.178112	0.393721	-0.393721	0.574219	0.902344	0.539063	1021	17_11_33_0058090
-0.196289	-0.591797	-0.243164	-0.215609	0.393721	-0.393721	0.621094	0.960938	0.527344	1022	17_11_33_0219380
-0.257813	-0.597656	-0.249023	-0.262481	0.393721	-0.384347	0.621094	0.984375	0.527344	1023	17_11_33_0380670
-0.263672	-0.577148	-0.231445	-0.290604	0.412470	-0.346850	0.585938	0.914063	0.527344	1024	17_11_33_0541960
-0.313477	-0.609375	-0.225586	-0.299978	0.384347	-0.309353	0.609375	0.867188	0.539063	1025	17_11_33_0703250
-0.336914	-0.568359	-0.134766	-0.403096	0.131240	-0.299978	0.597656	0.914063	0.550781	1026	17_11_33_0864540
-0.360352	-0.662109	-0.304688	-0.337475	0.112492	-0.253107	0.632813	0.855469	0.550781	1027	17_11_33_1025830
-0.234375	-0.656250	-0.222656	-0.393721	0.046872	-0.196861	0.621094	0.914063	0.527344	1028	17_11_33_1187120
-0.099609	-0.629883	-0.213867	-0.393721	0.131240	-0.187486	0.609375	0.867188	0.492188	1029	17_11_33_1348410
-0.084961	-0.597656	-0.246094	-0.356224	0.290604	-0.234358	0.585938	0.949219	0.515625	1030	17_11_33_1509700
-0.117188	-0.612305	-0.149414	-0.346850	0.337475	-0.281230	0.609375	0.937500	0.539063	1031	17_11_33_1670990
-0.178711	-0.659180	-0.123047	-0.337475	0.271855	-0.281230	0.621094	0.867188	0.527344	1032	17_11_33_1832280
-0.175781	-0.653320	-0.084961	-0.328101	0.215609	-0.253107	0.609375	0.843750	0.527344	1033	17_11_33_1993570
-0.134766	-0.659180	-0.111328	-0.328101	0.215609	-0.215609	0.609375	1.007813	0.609375	1034	17_11_33_2154860
-0.260742	-0.635742	-0.199219	-0.299978	0.299978	-0.234358	0.621094	0.832031	0.574219	1035	17_11_33_2316150
-0.322266	-0.550781	-0.184570	-0.281230	0.253107	-0.271855	0.621094	0.867188	0.574219	1036	17_11_33_2477440
-0.169922	-0.615234	-0.143555	-0.281230	0.206235	-0.271855	0.632813	0.867188	0.503906	1037	17_11_33_2638730
-0.120117	-0.559570	-0.140625	-0.290604	0.262481	-0.262481	0.609375	0.925781	0.515625	1038	17_11_33_2800020
-0.216797	-0.656250	-0.105469	-0.215609	0.346850	-0.234358	0.574219	0.914063	0.574219	1039	17_11_33_2961310
-0.064453	-0.509766	-0.087891	-0.309353	0.337475	-0.290604	0.656250	0.972656	0.574219	1040	17_11_33_3122600
-0.290039	-0.574219	-0.155273	-0.206235	0.337475	-0.290604	0.703125	1.054688	0.539063	1041	17_11_33_3283890
-0.231445	-0.594727	-0.152344	-0.262481	0.337475	-0.281230	0.621094	0.925781	0.527344	1042	17_11_33_3445180
-0.190430	-0.568359	-0.096680	-0.253107	0.271855	-0.243732	0.632813	0.867188	0.515625	1043	17_11_33_3606470
-0.125977	-0.583008	-0.046875	-0.243732	0.224984	-0.234358	0.632813	0.902344	0.515625	1044	17_11_33_3767760
-0.149414	-0.606445	-0.140625	-0.206235	0.262481	-0.215609	0.644531	0.937500	0.527344	1045	17_11_33_3929050
-0.128906	-0.585938	-0.055664	-0.253107	0.224984	-0.215609	0.656250	0.914063	0.550781	1046	17_11_33_4090340
-0.222656	-0.644531	-0.079102	-0.206235	0.187486	-0.187486	0.621094	0.890625	0.550781	1047	17_11_33_4251630
-0.164063	-0.662109	-0.102539	-0.234358	0.168738	-0.159363	0.644531	0.925781	0.527344	1048	17_11_33_4412920
-0.161133	-0.667969	-0.076172	-0.262481	0.178112	-0.140615	0.644531	0.878906	0.503906	1049	17_11_33_4574210
-0.169922	-0.656250	-0.029297	-0.234358	0.131240	-0.112492	0.632813	0.890625	0.503906	1050	17_11_33_4735500
-0.169922	-0.644531	-0.076172	-0.224984	0.187486	-0.103118	0.632813	0.855469	0.527344	1051	17_11_33_4896790
-0.152344	-0.673828	-0.029297	-0.187486	0.149989	-0.065620	0.632813	0.867188	0.550781	1052	17_11_33_5058080
-0.164063	-0.726563	-0.181641	-0.159363	0.393721	-0.084369	0.621094	0.890625	0.609375	1053	17_11_33_5219370
-0.257813	-0.644531	-0.017578	-0.206235	0.374973	-0.140615	0.621094	0.949219	0.550781	1054	17_11_33_5380660
-0.386719	-0.588867	0.073242	-0.215609	0.187486	-0.168738	0.621094	0.925781	0.515625	1055	17_11_33_5541950
-0.339844	-0.726563	-0.096680	-0.131240	0.028123	-0.028123	0.621094	0.867188	0.550781	1056	17_11_33_5703240
-0.249023	-0.676758	-0.055664	-0.206235	0.009374	0.018749	0.621094	0.890625	0.539063	1057	17_11_33_5864530
-0.175781	-0.656250	-0.026367	-0.206235	-0.018749	0.009374	0.609375	0.996094	0.550781	1058	17_11_33_6025820
-0.087891	-0.685547	0.000000	-0.149989	-0.018749	0.000000	0.644531	0.984375	0.550781	1059	17_11_33_6187110
0.190430	-0.817383	-0.210938	-0.168738	0.234358	-0.065620	0.621094	0.867188	0.515625	1060	17_11_33_6348400
0.228516	-0.849609	-0.172852	-0.131240	0.356224	-0.093743	0.609375	0.890625	0.539063	1061	17_11_33_6509690
0.108398	-0.908203	-0.237305	-0.093743	0.403096	-0.084369	0.890625	1.312500	0.597656	1062	17_11_33_6670980
-0.213867	-0.811523	-0.096680	-0.149989	0.318727	-0.084369	0.691406	1.101563	0.562500	1063	17_11_33_6832270
-0.137695	-0.764648	-0.210938	-0.206235	0.318727	-0.065620	0.621094	0.984375	0.527344	1064	17_11_33_6993560
-0.237305	-0.609375	-0.070313	-0.271855	0.328101	-0.112492	0.609375	0.984375	0.550781	1065	17_11_33_7154850
-0.149414	-0.550781	-0.052734	-0.224984	0.243732	-0.093743	0.574219	0.937500	0.527344	1066	17_11_33_7316140
-0.029297	-0.577148	-0.114258	-0.243732	0.281230	-0.112492	0.621094	0.902344	0.539063	1067	17_11_33_7477430
0.093750	-0.670898	-0.134766	-0.281230	0.356224	-0.159363	0.609375	0.820313	0.539063	1068	17_11_33_7638720
0.181641	-0.755859	-0.169922	-0.290604	0.496839	-0.215609	0.574219	0.843750	0.550781	1069	17_11_33_7800010
0.169922	-0.849609	-0.240234	-0.281230	0.618705	-0.253107	0.585938	0.867188	0.597656	1070	17_11_33_7961300
0.055664	-0.837891	-0.260742	-0.299978	0.712448	-0.243732	0.632813	0.902344	0.550781	1071	17_11_33_8122590
-0.038086	-0.785156	-0.231445	-0.299978	0.731197	-0.215609	0.574219	0.890625	0.527344	1072	17_11_33_8283880
-0.099609	-0.750000	-0.213867	-0.309353	0.693700	-0.168738	0.609375	0.832031	0.550781	1073	17_11_33_8445170
-0.146484	-0.708984	-0.190430	-0.328101	0.637454	-0.140615	0.562500	0.808594	0.550781	1074	17_11_33_8606460
-0.128906	-0.665039	-0.155273	-0.346850	0.581208	-0.112492	0.585938	0.820313	0.539063	1075	17_11_33_8767750
-0.087891	-0.650391	-0.120117	-0.365598	0.562459	-0.112492	0.562500	0.890625	0.515625	1076	17_11_33_8929040
-0.023438	-0.615234	-0.099609	-0.356224	0.581208	-0.149989	0.550781	0.890625	0.515625	1077	17_11_33_9090330
-0.008789	-0.626953	-0.125977	-0.356224	0.628079	-0.215609	0.585938	0.890625	0.515625	1078	17_11_33_9251620
0.011719	-0.621094	-0.137695	-0.384347	0.684325	-0.262481	0.597656	0.890625	0.527344	1079	17_11_33_9412910
-0.005859	-0.638672	-0.149414	-0.384347	0.721823	-0.299978	0.539063	0.878906	0.492188	1080	17_11_33_9574200
-0.023438	-0.626953	-0.166992	-0.393721	0.731197	-0.309353	0.539063	0.843750	0.492188	1081	17_11_33_9735490
-0.046875	-0.618164	-0.175781	-0.393721	0.712448	-0.309353	0.550781	0.773438	0.492188	1082	17_11_33_9896780
-0.052734	-0.624023	-0.178711	-0.393721	0.656202	-0.299978	0.503906	0.867188	0.480469	1083	17_11_34_0058070
-0.049805	-0.626953	-0.161133	-0.374973	0.581208	-0.262481	0.539063	0.937500	0.539063	1084	17_11_34_0219360
-0.023438	-0.635742	-0.131836	-0.356224	0.496839	-0.234358	0.667969	1.417969	0.574219	1085	17_11_34_0380650
0.029297	-0.656250	-0.120117	-0.337475	0.431219	-0.234358	0.562500	1.078125	0.480469	1086	17_11_34_0541940
0.029297	-0.673828	-0.143555	-0.318727	0.412470	-0.253107	0.574219	0.855469	0.480469	1087	17_11_34_0703230
0.011719	-0.700195	-0.149414	-0.309353	0.403096	-0.262481	0.527344	0.855469	0.527344	1088	17_11_34_0864520
-0.032227	-0.732422	-0.143555	-0.309353	0.403096	-0.262481	0.527344	0.867188	0.527344	1089	17_11_34_1025810
-0.076172	-0.755859	-0.152344	-0.299978	0.384347	-0.253107	0.562500	0.902344	0.527344	1090	17_11_34_1187100
-0.096680	-0.770508	-0.140625	-0.290604	0.356224	-0.234358	0.539063	0.867188	0.503906	1091	17_11_34_1348390
-0.105469	-0.814453	-0.152344	-0.281230	0.318727	-0.224984	0.562500	0.937500	0.527344	1092	17_11_34_1509680
-0.137695	-0.802734	-0.149414	-0.290604	0.281230	-0.234358	0.550781	0.832031	0.550781	1093	17_11_34_1670970
-0.193359	-0.805664	-0.117188	-0.299978	0.243732	-0.253107	0.539063	0.843750	0.574219	1094	17_11_34_1832260
-0.240234	-0.890625	-0.084961	-0.234358	0.159363	-0.234358	0.562500	0.890625	0.527344	1095	17_11_34_1993550
-0.181641	-0.925781	-0.123047	-0.224984	0.168738	-0.215609	0.550781	0.890625	0.468750	1096	17_11_34_2154840
-0.178711	-0.902344	-0.087891	-0.224984	0.187486	-0.215609	0.503906	0.867188	0.503906	1097	17_11_34_2316130
-0.193359	-0.802734	-0.123047	-0.234358	0.206235	-0.224984	0.539063	0.902344	0.597656	1098	17_11_34_2477420
-0.231445	-0.685547	-0.128906	-0.262481	0.262481	-0.271855	0.550781	0.878906	0.515625	1099	17_11_34_2638710
-0.251953	-0.591797	-0.131836	-0.281230	0.299978	-0.299978	0.527344	0.808594	0.468750	1100	17_11_34_2800000
-0.216797	-0.597656	-0.099609	-0.262481	0.356224	-0.309353	0.527344	0.820313	0.480469	1101	17_11_34_2961290
-0.020508	-0.489258	-0.055664	-0.299978	0.431219	-0.346850	0.539063	0.914063	0.492188	1102	17_11_34_3122580
-0.254883	-0.632813	-0.166992	-0.206235	0.487465	-0.346850	0.550781	0.937500	0.480469	1103	17_11_34_3283870
-0.260742	-0.553711	-0.073242	-0.215609	0.431219	-0.346850	0.562500	0.890625	0.445313	1104	17_11_34_3445160
-0.354492	-0.597656	-0.084961	-0.206235	0.412470	-0.290604	0.574219	0.914063	0.445313	1105	17_11_34_3606450
-0.377930	-0.673828	-0.079102	-0.149989	0.309353	-0.196861	0.527344	0.925781	0.445313	1106	17_11_34_3767740
-0.301758	-0.650391	-0.061523	-0.206235	0.159363	-0.149989	0.550781	0.855469	0.480469	1107	17_11_34_3929030
-0.202148	-0.650391	-0.052734	-0.168738	0.084369	-0.121866	0.585938	0.925781	0.515625	1108	17_11_34_4090320
-0.146484	-0.618164	-0.046875	-0.178112	0.084369	-0.131240	0.574219	0.855469	0.468750	1109	17_11_34_4251610
-0.032227	-0.615234	-0.038086	-0.168738	0.168738	-0.178112	0.574219	0.878906	0.468750	1110	17_11_34_4412900
-0.152344	-0.606445	-0.005859	-0.187486	0.290604	-0.253107	0.550781	0.878906	0.457031	1111	17_11_34_4574190
-0.120117	-0.641602	0.002930	-0.131240	0.271855	-0.243732	0.550781	0.878906	0.457031	1112	17_11_34_4735480
-0.175781	-0.653320	-0.035156	-0.168738	0.403096	-0.281230	0.574219	0.867188	0.457031	1113	17_11_34_4896770
-0.011719	-0.667969	-0.023438	-0.149989	0.449967	-0.281230	0.621094	0.996094	0.503906	1114	17_11_34_5058060
-0.061523	-0.656250	-0.014648	-0.121866	0.543711	-0.281230	0.527344	0.925781	0.468750	1115	17_11_34_5219350
-0.166992	-0.665039	-0.043945	-0.112492	0.581208	-0.299978	0.515625	0.960938	0.468750	1116	17_11_34_5380640
-0.210938	-0.650391	-0.041016	-0.112492	0.571833	-0.299978	0.550781	0.902344	0.503906	1117	17_11_34_5541930
-0.266602	-0.626953	-0.029297	-0.121866	0.496839	-0.262481	0.550781	0.843750	0.492188	1118	17_11_34_5703220
-0.357422	-0.615234	0.002930	-0.121866	0.328101	-0.206235	0.562500	0.890625	0.503906	1119	17_11_34_5864510
-0.240234	-0.650391	-0.058594	-0.121866	0.243732	-0.149989	0.574219	0.937500	0.527344	1120	17_11_34_6025800
-0.193359	-0.612305	0.000000	-0.149989	0.206235	-0.121866	0.550781	0.890625	0.527344	1121	17_11_34_6187090
-0.093750	-0.603516	0.020508	-0.131240	0.224984	-0.121866	0.562500	0.902344	0.527344	1122	17_11_34_6348380
-0.093750	-0.626953	0.020508	-0.103118	0.281230	-0.149989	0.597656	0.937500	0.503906	1123	17_11_34_6509670
-0.067383	-0.667969	-0.014648	-0.084369	0.393721	-0.196861	0.527344	0.832031	0.457031	1124	17_11_34_6670960
-0.120117	-0.682617	0.011719	-0.084369	0.468716	-0.234358	0.562500	0.867188	0.433594	1125	17_11_34_6832250
-0.158203	-0.735352	0.020508	-0.074995	0.487465	-0.234358	0.691406	1.230469	0.503906	1126	17_11_34_6993540
