sensor_ID	000666015735
Accel_X	Accel_Y	Accel_Z	Roll	Pitch	Yaw	Mag_X	Mag_Y	Mag_Z	Count	SysTime
0.146484	-0.205078	0.750000	-0.853063	-0.721823	-0.403096	-0.210938	0.363281	0.375000	0	17_11_16_5381000
0.146484	-0.199219	0.738281	-0.843689	-0.712448	-0.403096	-0.187500	0.351563	0.457031	1	17_11_16_5542290
0.143555	-0.210938	0.755859	-0.853063	-0.721823	-0.412470	-0.187500	0.375000	0.480469	2	17_11_16_5703580
0.146484	-0.208008	0.755859	-0.853063	-0.731197	-0.403096	-0.152344	0.386719	0.503906	3	17_11_16_5864870
0.146484	-0.202148	0.750000	-0.853063	-0.721823	-0.403096	-0.187500	0.351563	0.492188	4	17_11_16_6026160
0.137695	-0.208008	0.755859	-0.853063	-0.721823	-0.403096	-0.187500	0.328125	0.433594	5	17_11_16_6187450
0.134766	-0.205078	0.747070	-0.843689	-0.731197	-0.403096	-0.187500	0.351563	0.386719	6	17_11_16_6348740
0.137695	-0.210938	0.750000	-0.843689	-0.731197	-0.403096	-0.152344	0.375000	0.457031	7	17_11_16_6510030
0.140625	-0.210938	0.747070	-0.853063	-0.731197	-0.403096	-0.164063	0.375000	0.539063	8	17_11_16_6671320
0.140625	-0.202148	0.747070	-0.862437	-0.731197	-0.403096	-0.152344	0.562500	0.480469	9	17_11_16_6832610
0.140625	-0.210938	0.758789	-0.853063	-0.731197	-0.412470	-0.175781	0.363281	0.363281	10	17_11_16_6993900
0.140625	-0.199219	0.750000	-0.853063	-0.731197	-0.403096	-0.210938	0.339844	0.398438	11	17_11_16_7155190
0.137695	-0.208008	0.741211	-0.853063	-0.731197	-0.412470	-0.105469	0.480469	0.445313	12	17_11_16_7316480
0.134766	-0.208008	0.750000	-0.853063	-0.731197	-0.412470	-0.187500	0.375000	0.433594	13	17_11_16_7477770
0.143555	-0.213867	0.761719	-0.843689	-0.731197	-0.412470	-0.187500	0.363281	0.421875	14	17_11_16_7639060
0.152344	-0.205078	0.747070	-0.853063	-0.721823	-0.403096	-0.175781	0.339844	0.445313	15	17_11_16_7800350
0.140625	-0.208008	0.750000	-0.853063	-0.731197	-0.403096	-0.187500	0.328125	0.480469	16	17_11_16_7961640
0.137695	-0.208008	0.758789	-0.862437	-0.731197	-0.412470	0.011719	0.726563	0.433594	17	17_11_16_8122930
0.134766	-0.210938	0.750000	-0.843689	-0.731197	-0.412470	-0.222656	0.375000	0.375000	18	17_11_16_8284220
0.146484	-0.208008	0.761719	-0.853063	-0.731197	-0.403096	-0.187500	0.375000	0.363281	19	17_11_16_8445510
0.143555	-0.208008	0.741211	-0.853063	-0.731197	-0.403096	-0.187500	0.375000	0.410156	20	17_11_16_8606800
0.146484	-0.219727	0.747070	-0.843689	-0.731197	-0.412470	-0.187500	0.339844	0.457031	21	17_11_16_8768090
0.140625	-0.202148	0.752930	-0.843689	-0.721823	-0.403096	-0.210938	0.339844	0.457031	22	17_11_16_8929380
0.149414	-0.208008	0.747070	-0.853063	-0.721823	-0.403096	-0.187500	0.351563	0.433594	23	17_11_16_9090670
0.131836	-0.208008	0.752930	-0.843689	-0.721823	-0.403096	-0.210938	0.375000	0.421875	24	17_11_16_9251960
0.146484	-0.208008	0.750000	-0.843689	-0.731197	-0.403096	-0.046875	0.562500	0.457031	25	17_11_16_9413250
0.146484	-0.210938	0.750000	-0.853063	-0.731197	-0.403096	-0.175781	0.375000	0.410156	26	17_11_16_9574540
0.137695	-0.199219	0.741211	-0.843689	-0.721823	-0.403096	-0.187500	0.375000	0.421875	27	17_11_16_9735830
0.140625	-0.205078	0.758789	-0.853063	-0.731197	-0.403096	-0.164063	0.410156	0.492188	28	17_11_16_9897120
0.146484	-0.213867	0.752930	-0.843689	-0.731197	-0.403096	-0.152344	0.363281	0.503906	29	17_11_17_0058410
0.149414	-0.216797	0.752930	-0.843689	-0.721823	-0.412470	-0.187500	0.304688	0.457031	30	17_11_17_0219700
0.125977	-0.210938	0.752930	-0.862437	-0.721823	-0.403096	-0.128906	0.398438	0.421875	31	17_11_17_0380990
0.143555	-0.210938	0.752930	-0.853063	-0.731197	-0.403096	-0.128906	0.433594	0.457031	32	17_11_17_0542280
0.131836	-0.216797	0.744141	-0.843689	-0.731197	-0.403096	-0.187500	0.375000	0.480469	33	17_11_17_0703570
0.131836	-0.205078	0.752930	-0.853063	-0.721823	-0.412470	-0.187500	0.375000	0.445313	34	17_11_17_0864860
0.149414	-0.210938	0.752930	-0.843689	-0.731197	-0.403096	-0.187500	0.375000	0.421875	35	17_11_17_1026150
0.143555	-0.205078	0.741211	-0.853063	-0.731197	-0.403096	-0.199219	0.375000	0.480469	36	17_11_17_1187440
0.140625	-0.210938	0.752930	-0.853063	-0.721823	-0.403096	-0.175781	0.363281	0.480469	37	17_11_17_1348730
0.134766	-0.208008	0.735352	-0.853063	-0.731197	-0.403096	-0.199219	0.363281	0.457031	38	17_11_17_1510020
0.140625	-0.210938	0.747070	-0.843689	-0.731197	-0.403096	-0.140625	0.398438	0.421875	39	17_11_17_1671310
0.140625	-0.210938	0.761719	-0.862437	-0.721823	-0.403096	-0.152344	0.550781	0.398438	40	17_11_17_1832600
0.143555	-0.210938	0.747070	-0.853063	-0.731197	-0.403096	-0.187500	0.351563	0.410156	41	17_11_17_1993890
0.137695	-0.208008	0.752930	-0.853063	-0.721823	-0.403096	-0.187500	0.351563	0.433594	42	17_11_17_2155180
0.134766	-0.208008	0.755859	-0.853063	-0.731197	-0.403096	-0.199219	0.375000	0.386719	43	17_11_17_2316470
0.131836	-0.199219	0.750000	-0.853063	-0.731197	-0.403096	-0.199219	0.351563	0.421875	44	17_11_17_2477760
0.143555	-0.205078	0.752930	-0.853063	-0.731197	-0.403096	-0.164063	0.363281	0.421875	45	17_11_17_2639050
0.140625	-0.205078	0.752930	-0.843689	-0.731197	-0.403096	-0.175781	0.351563	0.410156	46	17_11_17_2800340
0.143555	-0.213867	0.750000	-0.853063	-0.731197	-0.412470	0.105469	0.761719	0.527344	47	17_11_17_2961630
0.143555	-0.205078	0.755859	-0.853063	-0.731197	-0.403096	-0.187500	0.351563	0.457031	48	17_11_17_3122920
0.140625	-0.205078	0.758789	-0.853063	-0.731197	-0.412470	-0.082031	0.679688	0.492188	49	17_11_17_3284210
0.140625	-0.210938	0.752930	-0.853063	-0.721823	-0.403096	-0.187500	0.597656	0.433594	50	17_11_17_3445500
0.137695	-0.213867	0.758789	-0.843689	-0.721823	-0.403096	-0.199219	0.421875	0.410156	51	17_11_17_3606790
0.146484	-0.219727	0.747070	-0.853063	-0.731197	-0.412470	-0.187500	0.375000	0.386719	52	17_11_17_3768080
0.143555	-0.205078	0.761719	-0.853063	-0.731197	-0.412470	-0.140625	0.445313	0.468750	53	17_11_17_3929370
0.146484	-0.210938	0.747070	-0.843689	-0.721823	-0.403096	-0.187500	0.386719	0.445313	54	17_11_17_4090660
0.146484	-0.213867	0.741211	-0.853063	-0.731197	-0.403096	-0.210938	0.375000	0.421875	55	17_11_17_4251950
0.143555	-0.202148	0.761719	-0.853063	-0.721823	-0.403096	-0.187500	0.351563	0.457031	56	17_11_17_4413240
0.149414	-0.208008	0.752930	-0.843689	-0.721823	-0.403096	-0.140625	0.363281	0.410156	57	17_11_17_4574530
0.143555	-0.213867	0.741211	-0.853063	-0.712448	-0.403096	0.000000	0.691406	0.433594	58	17_11_17_4735820
0.140625	-0.199219	0.755859	-0.853063	-0.721823	-0.403096	-0.199219	0.339844	0.410156	59	17_11_17_4897110
0.140625	-0.208008	0.755859	-0.853063	-0.731197	-0.403096	-0.140625	0.363281	0.398438	60	17_11_17_5058400
0.149414	-0.210938	0.752930	-0.853063	-0.731197	-0.403096	-0.199219	0.480469	0.410156	61	17_11_17_5219690
0.137695	-0.205078	0.750000	-0.853063	-0.731197	-0.403096	-0.187500	0.375000	0.433594	62	17_11_17_5380980
0.140625	-0.205078	0.758789	-0.843689	-0.731197	-0.403096	-0.199219	0.375000	0.445313	63	17_11_17_5542270
0.140625	-0.216797	0.747070	-0.853063	-0.731197	-0.403096	-0.199219	0.375000	0.410156	64	17_11_17_5703560
0.149414	-0.208008	0.752930	-0.843689	-0.721823	-0.412470	-0.164063	0.363281	0.433594	65	17_11_17_5864850
0.134766	-0.216797	0.747070	-0.853063	-0.731197	-0.412470	-0.187500	0.351563	0.410156	66	17_11_17_6026140
0.140625	-0.210938	0.747070	-0.853063	-0.721823	-0.403096	-0.210938	0.363281	0.398438	67	17_11_17_6187430
0.140625	-0.199219	0.752930	-0.853063	-0.731197	-0.412470	-0.187500	0.339844	0.445313	68	17_11_17_6348720
0.134766	-0.210938	0.752930	-0.853063	-0.721823	-0.403096	-0.187500	0.375000	0.468750	69	17_11_17_6510010
0.143555	-0.213867	0.752930	-0.853063	-0.731197	-0.412470	-0.093750	0.750000	0.457031	70	17_11_17_6671300
0.146484	-0.208008	0.747070	-0.853063	-0.721823	-0.412470	-0.175781	0.375000	0.445313	71	17_11_17_6832590
0.146484	-0.199219	0.758789	-0.853063	-0.731197	-0.412470	-0.199219	0.363281	0.433594	72	17_11_17_6993880
0.149414	-0.216797	0.752930	-0.853063	-0.721823	-0.412470	-0.152344	0.386719	0.386719	73	17_11_17_7155170
0.143555	-0.210938	0.752930	-0.853063	-0.731197	-0.403096	-0.187500	0.375000	0.386719	74	17_11_17_7316460
0.146484	-0.199219	0.747070	-0.843689	-0.721823	-0.403096	-0.140625	0.445313	0.398438	75	17_11_17_7477750
0.137695	-0.205078	0.758789	-0.853063	-0.721823	-0.403096	-0.164063	0.363281	0.421875	76	17_11_17_7639040
0.140625	-0.205078	0.747070	-0.853063	-0.721823	-0.403096	-0.164063	0.375000	0.457031	77	17_11_17_7800330
0.140625	-0.196289	0.750000	-0.843689	-0.721823	-0.403096	-0.187500	0.351563	0.421875	78	17_11_17_7961620
0.149414	-0.205078	0.747070	-0.853063	-0.721823	-0.403096	-0.164063	0.375000	0.433594	79	17_11_17_8122910
0.140625	-0.205078	0.752930	-0.853063	-0.731197	-0.403096	-0.187500	0.351563	0.421875	80	17_11_17_8284200
0.134766	-0.202148	0.761719	-0.862437	-0.731197	-0.403096	-0.105469	0.398438	0.421875	81	17_11_17_8445490
0.128906	-0.210938	0.758789	-0.843689	-0.721823	-0.403096	-0.164063	0.363281	0.433594	82	17_11_17_8606780
0.140625	-0.208008	0.755859	-0.862437	-0.731197	-0.412470	-0.187500	0.363281	0.421875	83	17_11_17_8768070
0.143555	-0.210938	0.755859	-0.853063	-0.731197	-0.412470	-0.187500	0.328125	0.421875	84	17_11_17_8929360
0.134766	-0.208008	0.758789	-0.853063	-0.721823	-0.403096	-0.175781	0.363281	0.410156	85	17_11_17_9090650
0.134766	-0.216797	0.758789	-0.843689	-0.721823	-0.412470	-0.199219	0.398438	0.410156	86	17_11_17_9251940
0.137695	-0.210938	0.747070	-0.853063	-0.731197	-0.412470	-0.187500	0.375000	0.386719	87	17_11_17_9413230
0.137695	-0.205078	0.750000	-0.853063	-0.721823	-0.412470	-0.023438	0.574219	0.386719	88	17_11_17_9574520
0.134766	-0.202148	0.755859	-0.853063	-0.731197	-0.412470	-0.140625	0.375000	0.398438	89	17_11_17_9735810
0.137695	-0.210938	0.758789	-0.853063	-0.721823	-0.412470	-0.187500	0.386719	0.480469	90	17_11_17_9897100
0.128906	-0.208008	0.747070	-0.853063	-0.721823	-0.403096	-0.187500	0.363281	0.503906	91	17_11_18_0058390
0.140625	-0.216797	0.747070	-0.853063	-0.731197	-0.403096	-0.234375	0.351563	0.433594	92	17_11_18_0219680
0.140625	-0.205078	0.752930	-0.843689	-0.731197	-0.403096	-0.175781	0.375000	0.375000	93	17_11_18_0380970
0.137695	-0.208008	0.752930	-0.853063	-0.731197	-0.403096	-0.117188	0.445313	0.363281	94	17_11_18_0542260
0.140625	-0.205078	0.747070	-0.862437	-0.721823	-0.412470	-0.093750	0.468750	0.421875	95	17_11_18_0703550
0.143555	-0.205078	0.750000	-0.853063	-0.731197	-0.412470	-0.199219	0.375000	0.433594	96	17_11_18_0864840
0.143555	-0.205078	0.747070	-0.853063	-0.731197	-0.403096	-0.199219	0.363281	0.445313	97	17_11_18_1026130
0.134766	-0.216797	0.747070	-0.853063	-0.731197	-0.403096	-0.164063	0.375000	0.503906	98	17_11_18_1187420
0.140625	-0.210938	0.761719	-0.843689	-0.731197	-0.403096	-0.093750	0.527344	0.457031	99	17_11_18_1348710
0.146484	-0.216797	0.752930	-0.853063	-0.731197	-0.403096	0.035156	0.703125	0.421875	100	17_11_18_1510000
0.143555	-0.210938	0.750000	-0.853063	-0.721823	-0.403096	-0.175781	0.398438	0.457031	101	17_11_18_1671290
0.137695	-0.210938	0.752930	-0.862437	-0.721823	-0.403096	-0.152344	0.632813	0.527344	102	17_11_18_1832580
0.143555	-0.205078	0.758789	-0.853063	-0.721823	-0.403096	-0.187500	0.375000	0.433594	103	17_11_18_1993870
0.140625	-0.205078	0.752930	-0.853063	-0.721823	-0.403096	-0.152344	0.351563	0.410156	104	17_11_18_2155160
0.146484	-0.205078	0.747070	-0.853063	-0.721823	-0.403096	-0.117188	0.433594	0.421875	105	17_11_18_2316450
0.137695	-0.202148	0.750000	-0.843689	-0.731197	-0.403096	-0.187500	0.363281	0.445313	106	17_11_18_2477740
0.134766	-0.219727	0.752930	-0.853063	-0.721823	-0.403096	-0.187500	0.363281	0.503906	107	17_11_18_2639030
0.140625	-0.213867	0.747070	-0.843689	-0.721823	-0.403096	-0.199219	0.363281	0.492188	108	17_11_18_2800320
0.143555	-0.202148	0.741211	-0.843689	-0.731197	-0.412470	-0.187500	0.375000	0.410156	109	17_11_18_2961610
0.143555	-0.210938	0.750000	-0.843689	-0.731197	-0.412470	-0.128906	0.398438	0.410156	110	17_11_18_3122900
0.146484	-0.208008	0.761719	-0.853063	-0.731197	-0.403096	-0.164063	0.375000	0.445313	111	17_11_18_3284190
0.143555	-0.210938	0.752930	-0.853063	-0.731197	-0.403096	-0.164063	0.351563	0.433594	112	17_11_18_3445480
0.140625	-0.205078	0.747070	-0.853063	-0.731197	-0.412470	-0.175781	0.339844	0.457031	113	17_11_18_3606770
0.152344	-0.208008	0.758789	-0.853063	-0.721823	-0.403096	-0.187500	0.339844	0.492188	114	17_11_18_3768060
0.143555	-0.202148	0.755859	-0.853063	-0.731197	-0.403096	-0.187500	0.363281	0.445313	115	17_11_18_3929350
0.137695	-0.216797	0.755859	-0.843689	-0.721823	-0.403096	-0.140625	0.351563	0.386719	116	17_11_18_4090640
0.140625	-0.216797	0.758789	-0.853063	-0.731197	-0.412470	-0.187500	0.351563	0.433594	117	17_11_18_4251930
0.134766	-0.196289	0.747070	-0.853063	-0.731197	-0.403096	-0.175781	0.339844	0.468750	118	17_11_18_4413220
0.131836	-0.205078	0.752930	-0.853063	-0.731197	-0.412470	-0.210938	0.386719	0.457031	119	17_11_18_4574510
0.146484	-0.213867	0.752930	-0.853063	-0.731197	-0.403096	-0.199219	0.375000	0.457031	120	17_11_18_4735800
0.143555	-0.216797	0.752930	-0.853063	-0.731197	-0.403096	-0.210938	0.351563	0.433594	121	17_11_18_4897090
0.140625	-0.205078	0.752930	-0.853063	-0.731197	-0.412470	-0.175781	0.398438	0.386719	122	17_11_18_5058380
0.140625	-0.213867	0.744141	-0.853063	-0.721823	-0.403096	-0.175781	0.328125	0.398438	123	17_11_18_5219670
0.140625	-0.205078	0.741211	-0.853063	-0.731197	-0.403096	-0.164063	0.386719	0.410156	124	17_11_18_5380960
0.134766	-0.208008	0.752930	-0.853063	-0.721823	-0.403096	-0.187500	0.375000	0.410156	125	17_11_18_5542250
0.146484	-0.202148	0.755859	-0.853063	-0.731197	-0.403096	-0.199219	0.375000	0.445313	126	17_11_18_5703540
0.137695	-0.210938	0.752930	-0.853063	-0.721823	-0.403096	-0.187500	0.363281	0.410156	127	17_11_18_5864830
0.131836	-0.222656	0.750000	-0.853063	-0.731197	-0.403096	-0.187500	0.375000	0.410156	128	17_11_18_6026120
0.140625	-0.216797	0.747070	-0.853063	-0.731197	-0.403096	-0.210938	0.375000	0.457031	129	17_11_18_6187410
0.143555	-0.216797	0.758789	-0.843689	-0.721823	-0.403096	-0.187500	0.375000	0.457031	130	17_11_18_6348700
0.146484	-0.208008	0.750000	-0.843689	-0.731197	-0.403096	-0.210938	0.375000	0.445313	131	17_11_18_6509990
0.134766	-0.208008	0.741211	-0.862437	-0.731197	-0.403096	-0.152344	0.410156	0.445313	132	17_11_18_6671280
0.140625	-0.216797	0.758789	-0.853063	-0.731197	-0.412470	-0.222656	0.375000	0.445313	133	17_11_18_6832570
0.152344	-0.208008	0.750000	-0.853063	-0.731197	-0.412470	-0.175781	0.375000	0.445313	134	17_11_18_6993860
0.131836	-0.196289	0.755859	-0.843689	-0.731197	-0.412470	-0.210938	0.363281	0.457031	135	17_11_18_7155150
0.152344	-0.205078	0.752930	-0.843689	-0.731197	-0.403096	-0.187500	0.351563	0.445313	136	17_11_18_7316440
0.149414	-0.208008	0.747070	-0.843689	-0.731197	-0.403096	-0.164063	0.375000	0.421875	137	17_11_18_7477730
0.143555	-0.199219	0.750000	-0.853063	-0.731197	-0.403096	-0.187500	0.363281	0.445313	138	17_11_18_7639020
0.146484	-0.193359	0.758789	-0.843689	-0.721823	-0.403096	-0.199219	0.339844	0.433594	139	17_11_18_7800310
0.149414	-0.208008	0.758789	-0.853063	-0.731197	-0.403096	-0.175781	0.375000	0.445313	140	17_11_18_7961600
0.134766	-0.208008	0.750000	-0.853063	-0.731197	-0.403096	0.000000	0.644531	0.480469	141	17_11_18_8122890
0.131836	-0.210938	0.758789	-0.853063	-0.712448	-0.412470	-0.187500	0.375000	0.457031	142	17_11_18_8284180
0.146484	-0.216797	0.750000	-0.853063	-0.731197	-0.403096	-0.117188	0.726563	0.492188	143	17_11_18_8445470
0.137695	-0.208008	0.750000	-0.843689	-0.721823	-0.412470	-0.210938	0.339844	0.433594	144	17_11_18_8606760
0.146484	-0.205078	0.750000	-0.853063	-0.721823	-0.403096	-0.187500	0.386719	0.527344	145	17_11_18_8768050
0.146484	-0.210938	0.752930	-0.853063	-0.731197	-0.403096	-0.175781	0.363281	0.480469	146	17_11_18_8929340
0.146484	-0.210938	0.750000	-0.853063	-0.721823	-0.403096	-0.199219	0.351563	0.433594	147	17_11_18_9090630
0.143555	-0.210938	0.750000	-0.853063	-0.721823	-0.403096	-0.187500	0.363281	0.457031	148	17_11_18_9251920
0.140625	-0.208008	0.752930	-0.853063	-0.721823	-0.403096	-0.152344	0.375000	0.468750	149	17_11_18_9413210
0.143555	-0.205078	0.750000	-0.853063	-0.721823	-0.403096	-0.187500	0.375000	0.468750	150	17_11_18_9574500
0.134766	-0.208008	0.752930	-0.853063	-0.721823	-0.403096	-0.199219	0.363281	0.480469	151	17_11_18_9735790
0.146484	-0.202148	0.750000	-0.843689	-0.731197	-0.403096	-0.210938	0.351563	0.410156	152	17_11_18_9897080
0.128906	-0.202148	0.752930	-0.853063	-0.731197	-0.403096	-0.152344	0.410156	0.386719	153	17_11_19_0058370
0.146484	-0.205078	0.747070	-0.853063	-0.731197	-0.403096	-0.105469	0.445313	0.386719	154	17_11_19_0219660
0.137695	-0.205078	0.752930	-0.843689	-0.731197	-0.403096	-0.175781	0.375000	0.410156	155	17_11_19_0380950
0.140625	-0.210938	0.755859	-0.843689	-0.721823	-0.403096	-0.187500	0.363281	0.433594	156	17_11_19_0542240
0.134766	-0.205078	0.747070	-0.853063	-0.721823	-0.403096	-0.187500	0.351563	0.515625	157	17_11_19_0703530
0.140625	-0.199219	0.758789	-0.834314	-0.721823	-0.403096	-0.187500	0.363281	0.503906	158	17_11_19_0864820
0.140625	-0.205078	0.755859	-0.853063	-0.731197	-0.403096	-0.210938	0.339844	0.468750	159	17_11_19_1026110
0.140625	-0.210938	0.752930	-0.843689	-0.721823	-0.403096	-0.199219	0.375000	0.445313	160	17_11_19_1187400
0.131836	-0.202148	0.758789	-0.843689	-0.721823	-0.403096	-0.187500	0.375000	0.421875	161	17_11_19_1348690
0.143555	-0.205078	0.758789	-0.843689	-0.721823	-0.403096	-0.187500	0.386719	0.445313	162	17_11_19_1509980
0.134766	-0.208008	0.755859	-0.853063	-0.731197	-0.403096	-0.164063	0.375000	0.445313	163	17_11_19_1671270
0.131836	-0.216797	0.750000	-0.853063	-0.731197	-0.412470	-0.164063	0.351563	0.398438	164	17_11_19_1832560
0.146484	-0.219727	0.750000	-0.843689	-0.731197	-0.403096	-0.199219	0.351563	0.445313	165	17_11_19_1993850
0.146484	-0.225586	0.741211	-0.843689	-0.731197	-0.403096	-0.187500	0.351563	0.468750	166	17_11_19_2155140
0.140625	-0.205078	0.750000	-0.853063	-0.731197	-0.412470	-0.187500	0.351563	0.421875	167	17_11_19_2316430
0.143555	-0.208008	0.750000	-0.853063	-0.721823	-0.403096	-0.140625	0.386719	0.421875	168	17_11_19_2477720
0.140625	-0.202148	0.747070	-0.843689	-0.721823	-0.403096	-0.187500	0.351563	0.421875	169	17_11_19_2639010
0.140625	-0.210938	0.752930	-0.843689	-0.731197	-0.412470	-0.187500	0.375000	0.386719	170	17_11_19_2800300
0.152344	-0.202148	0.758789	-0.853063	-0.731197	-0.412470	-0.187500	0.363281	0.375000	171	17_11_19_2961590
0.143555	-0.213867	0.747070	-0.843689	-0.721823	-0.403096	0.035156	0.621094	0.410156	172	17_11_19_3122880
0.146484	-0.208008	0.752930	-0.853063	-0.731197	-0.403096	-0.187500	0.363281	0.457031	173	17_11_19_3284170
0.146484	-0.205078	0.752930	-0.853063	-0.731197	-0.403096	-0.164063	0.398438	0.480469	174	17_11_19_3445460
0.137695	-0.208008	0.752930	-0.853063	-0.731197	-0.403096	-0.210938	0.363281	0.433594	175	17_11_19_3606750
0.143555	-0.205078	0.747070	-0.853063	-0.721823	-0.403096	-0.152344	0.410156	0.433594	176	17_11_19_3768040
0.152344	-0.208008	0.752930	-0.843689	-0.731197	-0.412470	-0.175781	0.328125	0.492188	177	17_11_19_3929330
0.131836	-0.210938	0.758789	-0.853063	-0.731197	-0.403096	-0.164063	0.375000	0.457031	178	17_11_19_4090620
0.140625	-0.205078	0.752930	-0.843689	-0.721823	-0.403096	-0.187500	0.375000	0.386719	179	17_11_19_4251910
0.134766	-0.213867	0.758789	-0.853063	-0.721823	-0.403096	-0.164063	0.375000	0.421875	180	17_11_19_4413200
0.137695	-0.208008	0.752930	-0.853063	-0.731197	-0.403096	-0.187500	0.363281	0.433594	181	17_11_19_4574490
0.134766	-0.205078	0.750000	-0.853063	-0.731197	-0.412470	-0.187500	0.351563	0.433594	182	17_11_19_4735780
0.140625	-0.210938	0.747070	-0.853063	-0.731197	-0.403096	-0.187500	0.375000	0.410156	183	17_11_19_4897070
0.149414	-0.208008	0.755859	-0.853063	-0.721823	-0.403096	-0.210938	0.375000	0.457031	184	17_11_19_5058360
0.146484	-0.216797	0.755859	-0.834314	-0.721823	-0.403096	-0.187500	0.375000	0.480469	185	17_11_19_5219650
0.143555	-0.202148	0.761719	-0.853063	-0.731197	-0.412470	-0.187500	0.375000	0.433594	186	17_11_19_5380940
0.155273	-0.199219	0.752930	-0.843689	-0.721823	-0.403096	-0.164063	0.375000	0.457031	187	17_11_19_5542230
0.140625	-0.219727	0.752930	-0.843689	-0.731197	-0.403096	-0.187500	0.375000	0.445313	188	17_11_19_5703520
0.134766	-0.213867	0.758789	-0.853063	-0.731197	-0.403096	-0.164063	0.375000	0.410156	189	17_11_19_5864810
0.140625	-0.202148	0.758789	-0.843689	-0.721823	-0.403096	-0.187500	0.363281	0.410156	190	17_11_19_6026100
0.128906	-0.213867	0.752930	-0.853063	-0.731197	-0.403096	-0.164063	0.375000	0.421875	191	17_11_19_6187390
0.137695	-0.210938	0.744141	-0.853063	-0.731197	-0.403096	-0.187500	0.375000	0.410156	192	17_11_19_6348680
0.128906	-0.210938	0.752930	-0.853063	-0.721823	-0.403096	-0.187500	0.351563	0.398438	193	17_11_19_6509970
0.134766	-0.208008	0.758789	-0.834314	-0.721823	-0.403096	-0.164063	0.363281	0.421875	194	17_11_19_6671260
0.140625	-0.202148	0.750000	-0.853063	-0.721823	-0.403096	-0.187500	0.351563	0.421875	195	17_11_19_6832550
0.134766	-0.205078	0.752930	-0.862437	-0.731197	-0.403096	-0.187500	0.386719	0.410156	196	17_11_19_6993840
0.134766	-0.193359	0.752930	-0.853063	-0.731197	-0.412470	-0.210938	0.375000	0.445313	197	17_11_19_7155130
0.131836	-0.205078	0.741211	-0.853063	-0.721823	-0.403096	-0.222656	0.375000	0.457031	198	17_11_19_7316420
0.146484	-0.208008	0.747070	-0.853063	-0.721823	-0.403096	-0.152344	0.375000	0.398438	199	17_11_19_7477710
0.152344	-0.199219	0.752930	-0.853063	-0.731197	-0.412470	-0.175781	0.375000	0.375000	200	17_11_19_7639000
0.137695	-0.208008	0.747070	-0.843689	-0.731197	-0.403096	-0.187500	0.363281	0.433594	201	17_11_19_7800290
0.143555	-0.208008	0.752930	-0.853063	-0.721823	-0.412470	-0.187500	0.339844	0.457031	202	17_11_19_7961580
0.143555	-0.225586	0.747070	-0.853063	-0.721823	-0.403096	-0.175781	0.351563	0.445313	203	17_11_19_8122870
0.146484	-0.208008	0.755859	-0.853063	-0.731197	-0.412470	0.035156	0.796875	0.492188	204	17_11_19_8284160
0.146484	-0.202148	0.758789	-0.843689	-0.721823	-0.403096	-0.187500	0.375000	0.492188	205	17_11_19_8445450
0.140625	-0.205078	0.750000	-0.862437	-0.721823	-0.412470	-0.199219	0.363281	0.421875	206	17_11_19_8606740
0.140625	-0.208008	0.758789	-0.853063	-0.721823	-0.403096	-0.199219	0.339844	0.480469	207	17_11_19_8768030
0.140625	-0.199219	0.750000	-0.843689	-0.721823	-0.403096	-0.199219	0.363281	0.457031	208	17_11_19_8929320
0.137695	-0.213867	0.752930	-0.853063	-0.731197	-0.412470	-0.187500	0.351563	0.410156	209	17_11_19_9090610
0.137695	-0.210938	0.747070	-0.853063	-0.731197	-0.412470	-0.175781	0.328125	0.421875	210	17_11_19_9251900
0.134766	-0.210938	0.752930	-0.853063	-0.731197	-0.412470	-0.164063	0.339844	0.421875	211	17_11_19_9413190
0.134766	-0.208008	0.758789	-0.853063	-0.721823	-0.403096	-0.199219	0.375000	0.421875	212	17_11_19_9574480
0.140625	-0.208008	0.752930	-0.853063	-0.721823	-0.403096	-0.199219	0.375000	0.375000	213	17_11_19_9735770
0.146484	-0.208008	0.744141	-0.853063	-0.731197	-0.403096	-0.187500	0.351563	0.410156	214	17_11_19_9897060
0.146484	-0.208008	0.752930	-0.853063	-0.731197	-0.403096	-0.187500	0.351563	0.421875	215	17_11_20_0058350
0.137695	-0.205078	0.750000	-0.843689	-0.721823	-0.403096	-0.187500	0.375000	0.410156	216	17_11_20_0219640
0.146484	-0.213867	0.747070	-0.853063	-0.731197	-0.403096	-0.187500	0.363281	0.386719	217	17_11_20_0380930
0.140625	-0.213867	0.747070	-0.853063	-0.721823	-0.403096	-0.187500	0.339844	0.410156	218	17_11_20_0542220
0.146484	-0.205078	0.755859	-0.843689	-0.721823	-0.403096	-0.187500	0.375000	0.445313	219	17_11_20_0703510
0.152344	-0.205078	0.747070	-0.853063	-0.731197	-0.403096	-0.199219	0.375000	0.503906	220	17_11_20_0864800
0.140625	-0.205078	0.747070	-0.853063	-0.731197	-0.403096	-0.175781	0.363281	0.503906	221	17_11_20_1026090
0.140625	-0.199219	0.755859	-0.853063	-0.731197	-0.403096	-0.199219	0.339844	0.468750	222	17_11_20_1187380
0.137695	-0.205078	0.758789	-0.843689	-0.731197	-0.403096	-0.187500	0.351563	0.480469	223	17_11_20_1348670
0.146484	-0.213867	0.747070	-0.853063	-0.731197	-0.403096	-0.187500	0.328125	0.445313	224	17_11_20_1509960
0.131836	-0.210938	0.761719	-0.843689	-0.721823	-0.412470	-0.187500	0.328125	0.445313	225	17_11_20_1671250
0.125977	-0.208008	0.750000	-0.843689	-0.721823	-0.403096	-0.164063	0.375000	0.457031	226	17_11_20_1832540
0.140625	-0.210938	0.752930	-0.843689	-0.721823	-0.403096	-0.187500	0.363281	0.468750	227	17_11_20_1993830
0.137695	-0.213867	0.752930	-0.843689	-0.721823	-0.403096	-0.152344	0.339844	0.445313	228	17_11_20_2155120
0.143555	-0.208008	0.741211	-0.843689	-0.731197	-0.412470	-0.152344	0.421875	0.433594	229	17_11_20_2316410
0.128906	-0.208008	0.747070	-0.853063	-0.721823	-0.403096	-0.187500	0.375000	0.433594	230	17_11_20_2477700
0.149414	-0.205078	0.752930	-0.853063	-0.721823	-0.403096	-0.199219	0.351563	0.398438	231	17_11_20_2638990
0.149414	-0.202148	0.758789	-0.843689	-0.712448	-0.403096	-0.175781	0.339844	0.375000	232	17_11_20_2800280
0.137695	-0.205078	0.758789	-0.853063	-0.731197	-0.403096	-0.164063	0.398438	0.433594	233	17_11_20_2961570
0.140625	-0.210938	0.747070	-0.853063	-0.731197	-0.412470	0.011719	0.621094	0.457031	234	17_11_20_3122860
0.143555	-0.202148	0.752930	-0.853063	-0.721823	-0.403096	-0.187500	0.375000	0.363281	235	17_11_20_3284150
0.140625	-0.205078	0.750000	-0.853063	-0.731197	-0.412470	-0.187500	0.363281	0.410156	236	17_11_20_3445440
0.146484	-0.213867	0.747070	-0.862437	-0.731197	-0.403096	-0.128906	0.445313	0.445313	237	17_11_20_3606730
0.149414	-0.205078	0.747070	-0.843689	-0.721823	-0.403096	-0.152344	0.363281	0.480469	238	17_11_20_3768020
0.140625	-0.208008	0.750000	-0.843689	-0.731197	-0.403096	-0.164063	0.339844	0.457031	239	17_11_20_3929310
0.137695	-0.213867	0.752930	-0.853063	-0.731197	-0.412470	-0.187500	0.316406	0.410156	240	17_11_20_4090600
0.140625	-0.199219	0.752930	-0.853063	-0.721823	-0.403096	-0.199219	0.339844	0.398438	241	17_11_20_4251890
0.134766	-0.213867	0.747070	-0.853063	-0.721823	-0.403096	-0.187500	0.328125	0.445313	242	17_11_20_4413180
0.131836	-0.210938	0.750000	-0.853063	-0.721823	-0.403096	-0.187500	0.375000	0.457031	243	17_11_20_4574470
0.140625	-0.208008	0.747070	-0.853063	-0.721823	-0.403096	-0.164063	0.375000	0.375000	244	17_11_20_4735760
0.140625	-0.216797	0.752930	-0.853063	-0.721823	-0.403096	-0.187500	0.375000	0.433594	245	17_11_20_4897050
0.149414	-0.208008	0.752930	-0.834314	-0.721823	-0.403096	-0.164063	0.375000	0.445313	246	17_11_20_5058340
0.140625	-0.205078	0.752930	-0.853063	-0.731197	-0.403096	-0.187500	0.339844	0.386719	247	17_11_20_5219630
0.131836	-0.202148	0.752930	-0.843689	-0.731197	-0.412470	-0.187500	0.328125	0.398438	248	17_11_20_5380920
0.143555	-0.205078	0.752930	-0.853063	-0.721823	-0.412470	-0.105469	0.410156	0.421875	249	17_11_20_5542210
0.146484	-0.205078	0.747070	-0.853063	-0.731197	-0.412470	-0.187500	0.375000	0.410156	250	17_11_20_5703500
0.146484	-0.213867	0.752930	-0.862437	-0.731197	-0.403096	-0.093750	0.492188	0.410156	251	17_11_20_5864790
0.134766	-0.210938	0.752930	-0.853063	-0.721823	-0.412470	-0.187500	0.375000	0.445313	252	17_11_20_6026080
0.140625	-0.213867	0.758789	-0.853063	-0.721823	-0.403096	-0.187500	0.351563	0.445313	253	17_11_20_6187370
0.146484	-0.216797	0.750000	-0.843689	-0.721823	-0.412470	-0.187500	0.316406	0.457031	254	17_11_20_6348660
0.140625	-0.216797	0.750000	-0.853063	-0.731197	-0.403096	-0.199219	0.316406	0.492188	255	17_11_20_6509950
0.140625	-0.216797	0.752930	-0.853063	-0.721823	-0.403096	-0.234375	0.351563	0.433594	256	17_11_20_6671240
0.140625	-0.210938	0.750000	-0.853063	-0.721823	-0.403096	-0.210938	0.375000	0.375000	257	17_11_20_6832530
0.140625	-0.213867	0.755859	-0.853063	-0.721823	-0.403096	-0.199219	0.398438	0.386719	258	17_11_20_6993820
0.137695	-0.210938	0.750000	-0.853063	-0.721823	-0.403096	-0.187500	0.351563	0.457031	259	17_11_20_7155110
0.146484	-0.210938	0.752930	-0.843689	-0.721823	-0.412470	-0.187500	0.328125	0.492188	260	17_11_20_7316400
0.134766	-0.208008	0.750000	-0.853063	-0.721823	-0.412470	-0.164063	0.386719	0.421875	261	17_11_20_7477690
0.137695	-0.213867	0.758789	-0.853063	-0.721823	-0.403096	-0.187500	0.386719	0.421875	262	17_11_20_7638980
0.146484	-0.208008	0.750000	-0.853063	-0.721823	-0.403096	-0.070313	0.562500	0.421875	263	17_11_20_7800270
0.146484	-0.199219	0.758789	-0.843689	-0.731197	-0.403096	-0.199219	0.351563	0.398438	264	17_11_20_7961560
0.140625	-0.208008	0.755859	-0.853063	-0.731197	-0.403096	-0.187500	0.339844	0.457031	265	17_11_20_8122850
0.137695	-0.205078	0.747070	-0.853063	-0.721823	-0.412470	-0.199219	0.351563	0.457031	266	17_11_20_8284140
0.134766	-0.205078	0.752930	-0.853063	-0.731197	-0.403096	-0.023438	0.773438	0.386719	267	17_11_20_8445430
0.146484	-0.202148	0.741211	-0.862437	-0.731197	-0.403096	-0.140625	0.714844	0.386719	268	17_11_20_8606720
0.146484	-0.205078	0.755859	-0.853063	-0.721823	-0.403096	-0.210938	0.351563	0.457031	269	17_11_20_8768010
0.140625	-0.199219	0.750000	-0.843689	-0.731197	-0.403096	-0.187500	0.363281	0.492188	270	17_11_20_8929300
0.131836	-0.213867	0.752930	-0.853063	-0.721823	-0.412470	-0.187500	0.375000	0.468750	271	17_11_20_9090590
0.125977	-0.213867	0.750000	-0.853063	-0.721823	-0.412470	-0.199219	0.363281	0.433594	272	17_11_20_9251880
0.149414	-0.208008	0.758789	-0.853063	-0.731197	-0.412470	-0.187500	0.363281	0.457031	273	17_11_20_9413170
0.149414	-0.199219	0.747070	-0.853063	-0.731197	-0.403096	-0.187500	0.339844	0.468750	274	17_11_20_9574460
0.140625	-0.205078	0.747070	-0.843689	-0.721823	-0.403096	-0.187500	0.351563	0.445313	275	17_11_20_9735750
0.146484	-0.208008	0.747070	-0.843689	-0.731197	-0.403096	-0.187500	0.351563	0.421875	276	17_11_20_9897040
0.143555	-0.216797	0.747070	-0.853063	-0.731197	-0.412470	-0.187500	0.328125	0.421875	277	17_11_21_0058330
0.128906	-0.208008	0.752930	-0.862437	-0.721823	-0.403096	-0.152344	0.410156	0.457031	278	17_11_21_0219620
0.134766	-0.216797	0.752930	-0.853063	-0.731197	-0.403096	-0.187500	0.328125	0.480469	279	17_11_21_0380910
0.146484	-0.210938	0.747070	-0.853063	-0.731197	-0.403096	-0.199219	0.351563	0.457031	280	17_11_21_0542200
0.137695	-0.210938	0.747070	-0.853063	-0.721823	-0.412470	-0.199219	0.375000	0.480469	281	17_11_21_0703490
0.137695	-0.210938	0.747070	-0.853063	-0.731197	-0.403096	-0.199219	0.375000	0.433594	282	17_11_21_0864780
0.143555	-0.216797	0.747070	-0.853063	-0.731197	-0.412470	-0.187500	0.375000	0.386719	283	17_11_21_1026070
0.143555	-0.208008	0.744141	-0.862437	-0.721823	-0.403096	-0.187500	0.386719	0.375000	284	17_11_21_1187360
0.134766	-0.210938	0.758789	-0.853063	-0.731197	-0.403096	-0.187500	0.375000	0.421875	285	17_11_21_1348650
0.149414	-0.213867	0.761719	-0.853063	-0.731197	-0.403096	-0.187500	0.363281	0.457031	286	17_11_21_1509940
0.140625	-0.205078	0.747070	-0.853063	-0.731197	-0.403096	0.000000	0.667969	0.433594	287	17_11_21_1671230
0.146484	-0.213867	0.758789	-0.862437	-0.731197	-0.412470	-0.175781	0.351563	0.398438	288	17_11_21_1832520
0.134766	-0.208008	0.750000	-0.843689	-0.731197	-0.412470	-0.187500	0.585938	0.492188	289	17_11_21_1993810
0.152344	-0.202148	0.755859	-0.853063	-0.721823	-0.412470	-0.187500	0.375000	0.457031	290	17_11_21_2155100
0.140625	-0.199219	0.747070	-0.853063	-0.731197	-0.412470	-0.164063	0.375000	0.410156	291	17_11_21_2316390
0.134766	-0.202148	0.752930	-0.862437	-0.731197	-0.403096	-0.105469	0.468750	0.445313	292	17_11_21_2477680
0.146484	-0.205078	0.758789	-0.853063	-0.731197	-0.412470	-0.187500	0.351563	0.410156	293	17_11_21_2638970
0.137695	-0.210938	0.747070	-0.853063	-0.731197	-0.403096	-0.187500	0.328125	0.421875	294	17_11_21_2800260
0.137695	-0.208008	0.750000	-0.853063	-0.731197	-0.403096	-0.152344	0.339844	0.468750	295	17_11_21_2961550
0.125977	-0.216797	0.750000	-0.843689	-0.721823	-0.412470	-0.082031	0.492188	0.457031	296	17_11_21_3122840
0.140625	-0.219727	0.747070	-0.853063	-0.731197	-0.403096	0.082031	0.738281	0.445313	297	17_11_21_3284130
0.134766	-0.208008	0.747070	-0.853063	-0.731197	-0.403096	-0.187500	0.351563	0.457031	298	17_11_21_3445420
0.143555	-0.216797	0.752930	-0.853063	-0.731197	-0.403096	-0.187500	0.375000	0.457031	299	17_11_21_3606710
0.137695	-0.208008	0.747070	-0.843689	-0.731197	-0.412470	-0.164063	0.375000	0.457031	300	17_11_21_3768000
0.140625	-0.210938	0.758789	-0.843689	-0.731197	-0.403096	-0.187500	0.363281	0.421875	301	17_11_21_3929290
0.140625	-0.205078	0.750000	-0.843689	-0.731197	-0.403096	-0.187500	0.351563	0.386719	302	17_11_21_4090580
0.140625	-0.208008	0.747070	-0.862437	-0.731197	-0.403096	-0.128906	0.468750	0.410156	303	17_11_21_4251870
0.146484	-0.216797	0.755859	-0.843689	-0.731197	-0.412470	-0.187500	0.351563	0.480469	304	17_11_21_4413160
0.149414	-0.219727	0.747070	-0.853063	-0.731197	-0.412470	-0.164063	0.328125	0.503906	305	17_11_21_4574450
0.158203	-0.205078	0.750000	-0.843689	-0.731197	-0.412470	-0.187500	0.339844	0.457031	306	17_11_21_4735740
0.152344	-0.208008	0.752930	-0.853063	-0.731197	-0.412470	-0.187500	0.351563	0.457031	307	17_11_21_4897030
0.143555	-0.216797	0.747070	-0.853063	-0.731197	-0.412470	-0.187500	0.375000	0.433594	308	17_11_21_5058320
0.134766	-0.205078	0.758789	-0.853063	-0.721823	-0.412470	-0.152344	0.363281	0.386719	309	17_11_21_5219610
0.143555	-0.210938	0.747070	-0.853063	-0.731197	-0.403096	-0.164063	0.328125	0.410156	310	17_11_21_5380900
0.140625	-0.205078	0.755859	-0.853063	-0.731197	-0.403096	-0.164063	0.363281	0.503906	311	17_11_21_5542190
0.131836	-0.216797	0.758789	-0.843689	-0.721823	-0.403096	-0.175781	0.375000	0.410156	312	17_11_21_5703480
0.140625	-0.205078	0.758789	-0.853063	-0.731197	-0.403096	-0.199219	0.351563	0.433594	313	17_11_21_5864770
0.131836	-0.199219	0.750000	-0.853063	-0.731197	-0.412470	-0.152344	0.304688	0.410156	314	17_11_21_6026060
0.137695	-0.210938	0.752930	-0.862437	-0.731197	-0.403096	0.000000	0.550781	0.398438	315	17_11_21_6187350
0.143555	-0.205078	0.750000	-0.843689	-0.731197	-0.403096	-0.175781	0.375000	0.445313	316	17_11_21_6348640
0.140625	-0.199219	0.750000	-0.853063	-0.731197	-0.403096	-0.199219	0.375000	0.445313	317	17_11_21_6509930
0.143555	-0.210938	0.752930	-0.853063	-0.731197	-0.412470	-0.210938	0.375000	0.410156	318	17_11_21_6671220
0.143555	-0.213867	0.755859	-0.853063	-0.731197	-0.403096	-0.199219	0.375000	0.433594	319	17_11_21_6832510
0.143555	-0.208008	0.747070	-0.834314	-0.721823	-0.403096	-0.187500	0.386719	0.421875	320	17_11_21_6993800
0.143555	-0.199219	0.750000	-0.853063	-0.721823	-0.403096	-0.187500	0.375000	0.410156	321	17_11_21_7155090
0.140625	-0.205078	0.758789	-0.862437	-0.731197	-0.403096	-0.187500	0.375000	0.445313	322	17_11_21_7316380
0.140625	-0.210938	0.752930	-0.843689	-0.731197	-0.403096	-0.187500	0.351563	0.468750	323	17_11_21_7477670
0.140625	-0.210938	0.755859	-0.853063	-0.721823	-0.403096	-0.117188	0.433594	0.492188	324	17_11_21_7638960
0.140625	-0.210938	0.758789	-0.853063	-0.721823	-0.412470	-0.187500	0.351563	0.457031	325	17_11_21_7800250
0.146484	-0.205078	0.747070	-0.853063	-0.731197	-0.403096	-0.187500	0.386719	0.410156	326	17_11_21_7961540
0.152344	-0.208008	0.758789	-0.843689	-0.721823	-0.412470	-0.187500	0.375000	0.445313	327	17_11_21_8122830
0.131836	-0.205078	0.752930	-0.853063	-0.731197	-0.403096	-0.187500	0.363281	0.503906	328	17_11_21_8284120
0.134766	-0.210938	0.758789	-0.843689	-0.731197	-0.421844	-0.199219	0.351563	0.480469	329	17_11_21_8445410
0.131836	-0.205078	0.752930	-0.853063	-0.721823	-0.403096	-0.105469	0.703125	0.492188	330	17_11_21_8606700
0.143555	-0.205078	0.750000	-0.853063	-0.731197	-0.412470	-0.187500	0.375000	0.468750	331	17_11_21_8767990
0.143555	-0.213867	0.758789	-0.853063	-0.731197	-0.403096	-0.164063	0.375000	0.421875	332	17_11_21_8929280
0.131836	-0.208008	0.752930	-0.853063	-0.721823	-0.403096	-0.117188	0.457031	0.410156	333	17_11_21_9090570
0.140625	-0.210938	0.752930	-0.853063	-0.731197	-0.403096	-0.152344	0.421875	0.457031	334	17_11_21_9251860
0.140625	-0.196289	0.747070	-0.853063	-0.731197	-0.403096	-0.187500	0.386719	0.445313	335	17_11_21_9413150
0.143555	-0.216797	0.752930	-0.862437	-0.721823	-0.403096	-0.035156	0.550781	0.421875	336	17_11_21_9574440
0.140625	-0.202148	0.752930	-0.853063	-0.731197	-0.412470	-0.187500	0.363281	0.445313	337	17_11_21_9735730
0.140625	-0.205078	0.755859	-0.853063	-0.731197	-0.403096	-0.187500	0.351563	0.468750	338	17_11_21_9897020
0.152344	-0.210938	0.758789	-0.853063	-0.731197	-0.403096	-0.187500	0.363281	0.445313	339	17_11_22_0058310
0.146484	-0.208008	0.741211	-0.843689	-0.731197	-0.403096	-0.175781	0.363281	0.445313	340	17_11_22_0219600
0.149414	-0.205078	0.752930	-0.853063	-0.721823	-0.412470	-0.187500	0.386719	0.445313	341	17_11_22_0380890
0.152344	-0.219727	0.758789	-0.853063	-0.731197	-0.403096	-0.210938	0.363281	0.410156	342	17_11_22_0542180
0.137695	-0.202148	0.758789	-0.843689	-0.731197	-0.403096	-0.187500	0.351563	0.480469	343	17_11_22_0703470
0.146484	-0.208008	0.758789	-0.853063	-0.721823	-0.403096	-0.210938	0.375000	0.492188	344	17_11_22_0864760
0.149414	-0.210938	0.750000	-0.853063	-0.721823	-0.412470	-0.058594	0.480469	0.421875	345	17_11_22_1026050
0.146484	-0.208008	0.747070	-0.853063	-0.731197	-0.403096	-0.199219	0.328125	0.410156	346	17_11_22_1187340
0.149414	-0.205078	0.752930	-0.853063	-0.731197	-0.403096	-0.140625	0.339844	0.445313	347	17_11_22_1348630
0.134766	-0.219727	0.755859	-0.843689	-0.721823	-0.403096	-0.187500	0.363281	0.457031	348	17_11_22_1509920
0.146484	-0.216797	0.755859	-0.853063	-0.721823	-0.403096	-0.187500	0.375000	0.445313	349	17_11_22_1671210
0.149414	-0.205078	0.747070	-0.853063	-0.731197	-0.412470	-0.187500	0.375000	0.410156	350	17_11_22_1832500
0.134766	-0.208008	0.747070	-0.853063	-0.731197	-0.403096	-0.187500	0.375000	0.480469	351	17_11_22_1993790
0.140625	-0.208008	0.750000	-0.843689	-0.731197	-0.403096	-0.187500	0.375000	0.457031	352	17_11_22_2155080
0.140625	-0.213867	0.752930	-0.853063	-0.731197	-0.403096	-0.164063	0.375000	0.410156	353	17_11_22_2316370
0.134766	-0.202148	0.752930	-0.853063	-0.731197	-0.403096	-0.128906	0.445313	0.480469	354	17_11_22_2477660
0.134766	-0.210938	0.750000	-0.853063	-0.721823	-0.412470	-0.199219	0.363281	0.480469	355	17_11_22_2638950
0.143555	-0.216797	0.750000	-0.853063	-0.731197	-0.403096	-0.187500	0.351563	0.445313	356	17_11_22_2800240
0.146484	-0.202148	0.758789	-0.853063	-0.731197	-0.403096	-0.164063	0.351563	0.386719	357	17_11_22_2961530
0.146484	-0.205078	0.752930	-0.853063	-0.731197	-0.403096	-0.199219	0.375000	0.375000	358	17_11_22_3122820
0.140625	-0.199219	0.755859	-0.843689	-0.731197	-0.403096	-0.222656	0.375000	0.421875	359	17_11_22_3284110
0.152344	-0.202148	0.758789	-0.843689	-0.731197	-0.403096	-0.210938	0.351563	0.480469	360	17_11_22_3445400
0.146484	-0.210938	0.747070	-0.853063	-0.731197	-0.403096	-0.187500	0.328125	0.457031	361	17_11_22_3606690
0.146484	-0.205078	0.755859	-0.843689	-0.721823	-0.403096	-0.164063	0.351563	0.433594	362	17_11_22_3767980
0.128906	-0.216797	0.747070	-0.853063	-0.731197	-0.412470	-0.128906	0.492188	0.433594	363	17_11_22_3929270
0.146484	-0.208008	0.752930	-0.853063	-0.731197	-0.403096	-0.187500	0.375000	0.398438	364	17_11_22_4090560
0.137695	-0.205078	0.750000	-0.853063	-0.731197	-0.412470	-0.187500	0.363281	0.480469	365	17_11_22_4251850
0.140625	-0.202148	0.750000	-0.853063	-0.731197	-0.412470	-0.187500	0.351563	0.503906	366	17_11_22_4413140
0.143555	-0.213867	0.750000	-0.843689	-0.721823	-0.403096	-0.210938	0.363281	0.410156	367	17_11_22_4574430
0.155273	-0.205078	0.747070	-0.853063	-0.731197	-0.403096	-0.210938	0.351563	0.375000	368	17_11_22_4735720
0.146484	-0.216797	0.750000	-0.862437	-0.731197	-0.403096	0.011719	0.597656	0.445313	369	17_11_22_4897010
0.143555	-0.216797	0.761719	-0.853063	-0.731197	-0.412470	-0.187500	0.375000	0.457031	370	17_11_22_5058300
0.140625	-0.208008	0.741211	-0.853063	-0.731197	-0.403096	-0.046875	0.738281	0.410156	371	17_11_22_5219590
0.137695	-0.210938	0.750000	-0.853063	-0.731197	-0.403096	-0.199219	0.351563	0.445313	372	17_11_22_5380880
0.137695	-0.208008	0.747070	-0.853063	-0.731197	-0.403096	-0.128906	0.562500	0.515625	373	17_11_22_5542170
0.146484	-0.210938	0.752930	-0.862437	-0.731197	-0.403096	-0.199219	0.351563	0.480469	374	17_11_22_5703460
0.140625	-0.213867	0.747070	-0.853063	-0.731197	-0.403096	-0.187500	0.351563	0.480469	375	17_11_22_5864750
0.140625	-0.208008	0.747070	-0.843689	-0.731197	-0.403096	-0.187500	0.328125	0.480469	376	17_11_22_6026040
0.134766	-0.210938	0.747070	-0.843689	-0.731197	-0.393721	-0.187500	0.351563	0.445313	377	17_11_22_6187330
0.137695	-0.210938	0.752930	-0.853063	-0.731197	-0.403096	-0.187500	0.375000	0.445313	378	17_11_22_6348620
0.137695	-0.205078	0.750000	-0.843689	-0.721823	-0.412470	-0.199219	0.375000	0.457031	379	17_11_22_6509910
0.152344	-0.216797	0.758789	-0.853063	-0.731197	-0.403096	-0.187500	0.363281	0.433594	380	17_11_22_6671200
0.152344	-0.216797	0.758789	-0.853063	-0.731197	-0.403096	-0.152344	0.363281	0.421875	381	17_11_22_6832490
0.155273	-0.202148	0.747070	-0.843689	-0.731197	-0.403096	-0.187500	0.351563	0.457031	382	17_11_22_6993780
0.146484	-0.205078	0.758789	-0.853063	-0.731197	-0.403096	-0.210938	0.351563	0.445313	383	17_11_22_7155070
0.140625	-0.208008	0.752930	-0.862437	-0.731197	-0.412470	-0.164063	0.363281	0.410156	384	17_11_22_7316360
0.140625	-0.210938	0.752930	-0.843689	-0.731197	-0.403096	-0.187500	0.363281	0.421875	385	17_11_22_7477650
0.146484	-0.208008	0.752930	-0.853063	-0.721823	-0.403096	-0.164063	0.375000	0.457031	386	17_11_22_7638940
0.140625	-0.205078	0.752930	-0.853063	-0.721823	-0.412470	-0.187500	0.386719	0.468750	387	17_11_22_7800230
0.149414	-0.216797	0.758789	-0.853063	-0.731197	-0.412470	-0.187500	0.375000	0.480469	388	17_11_22_7961520
0.143555	-0.199219	0.750000	-0.843689	-0.731197	-0.412470	-0.187500	0.375000	0.445313	389	17_11_22_8122810
0.149414	-0.205078	0.752930	-0.853063	-0.721823	-0.412470	0.035156	0.632813	0.457031	390	17_11_22_8284100
0.140625	-0.199219	0.761719	-0.853063	-0.721823	-0.403096	-0.164063	0.375000	0.515625	391	17_11_22_8445390
0.143555	-0.208008	0.758789	-0.843689	-0.721823	-0.403096	-0.164063	0.375000	0.480469	392	17_11_22_8606680
0.143555	-0.213867	0.752930	-0.853063	-0.731197	-0.403096	-0.187500	0.363281	0.421875	393	17_11_22_8767970
0.140625	-0.219727	0.758789	-0.843689	-0.731197	-0.412470	-0.187500	0.351563	0.421875	394	17_11_22_8929260
0.134766	-0.205078	0.744141	-0.843689	-0.731197	-0.403096	-0.187500	0.375000	0.457031	395	17_11_22_9090550
0.146484	-0.205078	0.758789	-0.843689	-0.721823	-0.403096	-0.187500	0.363281	0.445313	396	17_11_22_9251840
0.146484	-0.208008	0.747070	-0.853063	-0.731197	-0.403096	-0.187500	0.351563	0.445313	397	17_11_22_9413130
0.140625	-0.208008	0.758789	-0.853063	-0.721823	-0.403096	-0.222656	0.363281	0.445313	398	17_11_22_9574420
0.134766	-0.216797	0.741211	-0.853063	-0.721823	-0.403096	-0.187500	0.328125	0.445313	399	17_11_22_9735710
0.137695	-0.210938	0.752930	-0.853063	-0.721823	-0.412470	-0.175781	0.375000	0.468750	400	17_11_22_9897000
0.146484	-0.199219	0.758789	-0.853063	-0.731197	-0.403096	-0.187500	0.363281	0.445313	401	17_11_23_0058290
0.140625	-0.208008	0.755859	-0.853063	-0.731197	-0.403096	-0.187500	0.339844	0.445313	402	17_11_23_0219580
0.149414	-0.208008	0.747070	-0.843689	-0.731197	-0.403096	-0.152344	0.644531	0.492188	403	17_11_23_0380870
0.143555	-0.205078	0.755859	-0.853063	-0.731197	-0.403096	-0.199219	0.375000	0.457031	404	17_11_23_0542160
0.143555	-0.205078	0.747070	-0.853063	-0.731197	-0.403096	-0.199219	0.363281	0.503906	405	17_11_23_0703450
0.120117	-0.205078	0.752930	-0.853063	-0.731197	-0.412470	-0.187500	0.339844	0.503906	406	17_11_23_0864740
0.134766	-0.208008	0.744141	-0.843689	-0.721823	-0.403096	-0.210938	0.375000	0.445313	407	17_11_23_1026030
0.134766	-0.205078	0.758789	-0.853063	-0.731197	-0.403096	-0.222656	0.363281	0.433594	408	17_11_23_1187320
0.131836	-0.210938	0.758789	-0.843689	-0.731197	-0.403096	-0.105469	0.421875	0.503906	409	17_11_23_1348610
0.134766	-0.202148	0.747070	-0.853063	-0.731197	-0.403096	-0.046875	0.574219	0.492188	410	17_11_23_1509900
0.137695	-0.216797	0.758789	-0.853063	-0.731197	-0.412470	-0.187500	0.375000	0.421875	411	17_11_23_1671190
0.134766	-0.216797	0.750000	-0.843689	-0.731197	-0.412470	-0.187500	0.328125	0.386719	412	17_11_23_1832480
0.140625	-0.208008	0.750000	-0.843689	-0.731197	-0.403096	-0.199219	0.339844	0.398438	413	17_11_23_1993770
0.146484	-0.210938	0.747070	-0.853063	-0.731197	-0.412470	-0.164063	0.339844	0.433594	414	17_11_23_2155060
0.155273	-0.205078	0.741211	-0.853063	-0.731197	-0.403096	-0.187500	0.339844	0.421875	415	17_11_23_2316350
0.146484	-0.205078	0.750000	-0.843689	-0.731197	-0.403096	-0.187500	0.328125	0.386719	416	17_11_23_2477640
0.152344	-0.210938	0.750000	-0.853063	-0.740571	-0.403096	-0.187500	0.328125	0.410156	417	17_11_23_2638930
0.146484	-0.199219	0.755859	-0.853063	-0.731197	-0.393721	-0.210938	0.339844	0.421875	418	17_11_23_2800220
0.149414	-0.208008	0.750000	-0.843689	-0.721823	-0.403096	-0.140625	0.375000	0.421875	419	17_11_23_2961510
0.140625	-0.205078	0.755859	-0.843689	-0.731197	-0.403096	-0.187500	0.363281	0.445313	420	17_11_23_3122800
0.140625	-0.205078	0.752930	-0.862437	-0.731197	-0.403096	0.105469	0.714844	0.445313	421	17_11_23_3284090
0.143555	-0.208008	0.750000	-0.843689	-0.731197	-0.403096	-0.187500	0.351563	0.375000	422	17_11_23_3445380
0.143555	-0.205078	0.758789	-0.853063	-0.731197	-0.403096	-0.164063	0.375000	0.386719	423	17_11_23_3606670
0.140625	-0.210938	0.758789	-0.843689	-0.721823	-0.403096	-0.152344	0.656250	0.457031	424	17_11_23_3767960
0.131836	-0.202148	0.750000	-0.853063	-0.731197	-0.403096	-0.187500	0.375000	0.433594	425	17_11_23_3929250
0.128906	-0.193359	0.747070	-0.862437	-0.731197	-0.412470	-0.164063	0.375000	0.445313	426	17_11_23_4090540
0.137695	-0.208008	0.755859	-0.843689	-0.731197	-0.412470	-0.187500	0.363281	0.480469	427	17_11_23_4251830
0.140625	-0.202148	0.755859	-0.843689	-0.731197	-0.412470	-0.187500	0.375000	0.445313	428	17_11_23_4413120
0.146484	-0.208008	0.750000	-0.853063	-0.731197	-0.403096	-0.164063	0.351563	0.433594	429	17_11_23_4574410
0.137695	-0.216797	0.752930	-0.853063	-0.731197	-0.403096	-0.199219	0.363281	0.445313	430	17_11_23_4735700
0.137695	-0.213867	0.752930	-0.853063	-0.731197	-0.403096	-0.164063	0.328125	0.445313	431	17_11_23_4896990
0.143555	-0.213867	0.752930	-0.843689	-0.731197	-0.412470	-0.187500	0.339844	0.515625	432	17_11_23_5058280
0.155273	-0.213867	0.758789	-0.853063	-0.731197	-0.412470	-0.199219	0.375000	0.492188	433	17_11_23_5219570
0.149414	-0.208008	0.750000	-0.843689	-0.731197	-0.403096	-0.199219	0.375000	0.480469	434	17_11_23_5380860
0.149414	-0.213867	0.747070	-0.853063	-0.731197	-0.403096	-0.187500	0.550781	0.480469	435	17_11_23_5542150
0.140625	-0.208008	0.752930	-0.843689	-0.721823	-0.403096	-0.164063	0.328125	0.457031	436	17_11_23_5703440
0.143555	-0.210938	0.747070	-0.853063	-0.731197	-0.403096	-0.164063	0.363281	0.468750	437	17_11_23_5864730
0.140625	-0.202148	0.747070	-0.853063	-0.721823	-0.403096	-0.187500	0.351563	0.492188	438	17_11_23_6026020
0.146484	-0.202148	0.752930	-0.853063	-0.721823	-0.403096	-0.199219	0.375000	0.480469	439	17_11_23_6187310
0.140625	-0.210938	0.747070	-0.853063	-0.731197	-0.403096	-0.187500	0.375000	0.468750	440	17_11_23_6348600
0.134766	-0.205078	0.752930	-0.853063	-0.721823	-0.403096	-0.187500	0.363281	0.457031	441	17_11_23_6509890
0.137695	-0.208008	0.747070	-0.843689	-0.721823	-0.403096	-0.210938	0.328125	0.457031	442	17_11_23_6671180
0.128906	-0.208008	0.752930	-0.843689	-0.731197	-0.403096	-0.187500	0.351563	0.433594	443	17_11_23_6832470
0.140625	-0.208008	0.752930	-0.853063	-0.731197	-0.412470	-0.199219	0.375000	0.433594	444	17_11_23_6993760
0.128906	-0.210938	0.758789	-0.853063	-0.731197	-0.412470	-0.164063	0.398438	0.480469	445	17_11_23_7155050
0.134766	-0.205078	0.750000	-0.853063	-0.731197	-0.412470	-0.164063	0.351563	0.503906	446	17_11_23_7316340
0.134766	-0.210938	0.747070	-0.853063	-0.731197	-0.403096	-0.164063	0.316406	0.492188	447	17_11_23_7477630
0.137695	-0.210938	0.752930	-0.843689	-0.731197	-0.412470	-0.164063	0.339844	0.445313	448	17_11_23_7638920
0.143555	-0.213867	0.758789	-0.853063	-0.731197	-0.412470	-0.187500	0.375000	0.433594	449	17_11_23_7800210
0.143555	-0.208008	0.758789	-0.853063	-0.731197	-0.403096	-0.035156	0.539063	0.445313	450	17_11_23_7961500
0.146484	-0.208008	0.750000	-0.853063	-0.731197	-0.412470	-0.140625	0.375000	0.503906	451	17_11_23_8122790
0.143555	-0.213867	0.758789	-0.853063	-0.731197	-0.412470	-0.164063	0.363281	0.539063	452	17_11_23_8284080
0.149414	-0.205078	0.752930	-0.843689	-0.731197	-0.403096	-0.187500	0.351563	0.503906	453	17_11_23_8445370
0.140625	-0.208008	0.752930	-0.843689	-0.731197	-0.403096	-0.210938	0.363281	0.433594	454	17_11_23_8606660
0.149414	-0.205078	0.747070	-0.853063	-0.731197	-0.403096	-0.199219	0.644531	0.492188	455	17_11_23_8767950
0.140625	-0.205078	0.747070	-0.853063	-0.731197	-0.403096	-0.187500	0.339844	0.468750	456	17_11_23_8929240
0.140625	-0.216797	0.752930	-0.843689	-0.731197	-0.403096	-0.175781	0.363281	0.492188	457	17_11_23_9090530
0.137695	-0.208008	0.758789	-0.853063	-0.731197	-0.403096	-0.199219	0.375000	0.445313	458	17_11_23_9251820
0.137695	-0.216797	0.752930	-0.853063	-0.731197	-0.403096	-0.187500	0.375000	0.421875	459	17_11_23_9413110
0.140625	-0.205078	0.747070	-0.843689	-0.731197	-0.403096	-0.199219	0.375000	0.480469	460	17_11_23_9574400
0.140625	-0.205078	0.747070	-0.843689	-0.721823	-0.412470	-0.187500	0.375000	0.480469	461	17_11_23_9735690
0.143555	-0.205078	0.750000	-0.853063	-0.731197	-0.403096	-0.187500	0.375000	0.421875	462	17_11_23_9896980
0.134766	-0.199219	0.755859	-0.843689	-0.731197	-0.403096	-0.175781	0.363281	0.421875	463	17_11_24_0058270
0.134766	-0.205078	0.758789	-0.862437	-0.731197	-0.403096	0.000000	0.714844	0.386719	464	17_11_24_0219560
0.146484	-0.199219	0.755859	-0.853063	-0.731197	-0.412470	-0.187500	0.351563	0.398438	465	17_11_24_0380850
0.143555	-0.205078	0.747070	-0.853063	-0.731197	-0.412470	-0.187500	0.316406	0.433594	466	17_11_24_0542140
0.140625	-0.210938	0.758789	-0.853063	-0.731197	-0.412470	-0.164063	0.351563	0.445313	467	17_11_24_0703430
0.137695	-0.208008	0.747070	-0.843689	-0.731197	-0.412470	-0.187500	0.339844	0.480469	468	17_11_24_0864720
0.143555	-0.213867	0.747070	-0.843689	-0.721823	-0.403096	-0.164063	0.328125	0.445313	469	17_11_24_1026010
0.143555	-0.213867	0.741211	-0.862437	-0.731197	-0.412470	-0.164063	0.339844	0.468750	470	17_11_24_1187300
0.152344	-0.213867	0.750000	-0.843689	-0.731197	-0.412470	-0.152344	0.363281	0.468750	471	17_11_24_1348590
0.143555	-0.210938	0.750000	-0.843689	-0.731197	-0.403096	-0.175781	0.351563	0.445313	472	17_11_24_1509880
0.152344	-0.208008	0.752930	-0.853063	-0.731197	-0.412470	-0.187500	0.375000	0.410156	473	17_11_24_1671170
0.134766	-0.199219	0.752930	-0.853063	-0.731197	-0.403096	-0.187500	0.375000	0.398438	474	17_11_24_1832460
0.137695	-0.202148	0.747070	-0.843689	-0.721823	-0.403096	-0.187500	0.375000	0.433594	475	17_11_24_1993750
0.146484	-0.210938	0.750000	-0.853063	-0.731197	-0.412470	-0.187500	0.375000	0.480469	476	17_11_24_2155040
0.140625	-0.208008	0.758789	-0.853063	-0.731197	-0.403096	-0.175781	0.375000	0.515625	477	17_11_24_2316330
0.143555	-0.205078	0.741211	-0.853063	-0.731197	-0.403096	-0.187500	0.351563	0.421875	478	17_11_24_2477620
0.140625	-0.205078	0.750000	-0.853063	-0.721823	-0.412470	-0.187500	0.375000	0.386719	479	17_11_24_2638910
0.134766	-0.202148	0.758789	-0.853063	-0.731197	-0.412470	-0.210938	0.375000	0.421875	480	17_11_24_2800200
0.149414	-0.216797	0.764648	-0.843689	-0.731197	-0.403096	-0.187500	0.375000	0.480469	481	17_11_24_2961490
0.137695	-0.208008	0.750000	-0.843689	-0.731197	-0.403096	-0.187500	0.375000	0.457031	482	17_11_24_3122780
0.137695	-0.210938	0.750000	-0.843689	-0.731197	-0.412470	-0.164063	0.363281	0.410156	483	17_11_24_3284070
0.146484	-0.213867	0.758789	-0.853063	-0.731197	-0.412470	-0.164063	0.339844	0.433594	484	17_11_24_3445360
0.149414	-0.219727	0.755859	-0.843689	-0.721823	-0.403096	-0.187500	0.339844	0.433594	485	17_11_24_3606650
0.146484	-0.208008	0.752930	-0.843689	-0.731197	-0.403096	-0.199219	0.363281	0.398438	486	17_11_24_3767940
0.137695	-0.213867	0.755859	-0.843689	-0.731197	-0.403096	-0.187500	0.375000	0.386719	487	17_11_24_3929230
0.134766	-0.210938	0.750000	-0.853063	-0.731197	-0.403096	-0.210938	0.339844	0.398438	488	17_11_24_4090520
0.155273	-0.208008	0.741211	-0.843689	-0.731197	-0.403096	-0.164063	0.351563	0.445313	489	17_11_24_4251810
0.143555	-0.213867	0.755859	-0.853063	-0.731197	-0.412470	-0.187500	0.375000	0.433594	490	17_11_24_4413100
0.152344	-0.205078	0.752930	-0.853063	-0.731197	-0.412470	-0.164063	0.351563	0.375000	491	17_11_24_4574390
0.140625	-0.216797	0.761719	-0.853063	-0.721823	-0.412470	-0.082031	0.445313	0.410156	492	17_11_24_4735680
0.143555	-0.205078	0.758789	-0.853063	-0.731197	-0.403096	-0.187500	0.386719	0.386719	493	17_11_24_4896970
0.146484	-0.208008	0.752930	-0.843689	-0.731197	-0.403096	-0.187500	0.386719	0.421875	494	17_11_24_5058260
0.149414	-0.208008	0.752930	-0.853063	-0.731197	-0.412470	-0.199219	0.351563	0.445313	495	17_11_24_5219550
0.140625	-0.205078	0.755859	-0.853063	-0.731197	-0.403096	-0.187500	0.328125	0.457031	496	17_11_24_5380840
0.140625	-0.205078	0.747070	-0.853063	-0.721823	-0.403096	-0.187500	0.363281	0.480469	497	17_11_24_5542130
0.146484	-0.208008	0.741211	-0.843689	-0.731197	-0.403096	-0.140625	0.386719	0.457031	498	17_11_24_5703420
0.134766	-0.210938	0.755859	-0.843689	-0.731197	-0.412470	-0.187500	0.375000	0.421875	499	17_11_24_5864710
0.143555	-0.219727	0.755859	-0.853063	-0.731197	-0.403096	-0.175781	0.386719	0.433594	500	17_11_24_6026000
0.131836	-0.208008	0.750000	-0.853063	-0.731197	-0.412470	-0.175781	0.375000	0.503906	501	17_11_24_6187290
0.143555	-0.199219	0.758789	-0.843689	-0.731197	-0.412470	-0.117188	0.457031	0.492188	502	17_11_24_6348580
0.140625	-0.216797	0.752930	-0.853063	-0.731197	-0.403096	-0.187500	0.375000	0.433594	503	17_11_24_6509870
0.146484	-0.213867	0.747070	-0.853063	-0.731197	-0.403096	-0.187500	0.375000	0.433594	504	17_11_24_6671160
0.158203	-0.216797	0.758789	-0.853063	-0.721823	-0.403096	0.046875	0.679688	0.445313	505	17_11_24_6832450
0.137695	-0.205078	0.758789	-0.853063	-0.731197	-0.403096	-0.210938	0.363281	0.457031	506	17_11_24_6993740
0.140625	-0.210938	0.747070	-0.853063	-0.731197	-0.412470	-0.175781	0.351563	0.503906	507	17_11_24_7155030
0.146484	-0.210938	0.758789	-0.843689	-0.731197	-0.412470	-0.199219	0.375000	0.468750	508	17_11_24_7316320
0.152344	-0.205078	0.758789	-0.853063	-0.731197	-0.403096	-0.164063	0.351563	0.468750	509	17_11_24_7477610
0.140625	-0.210938	0.755859	-0.853063	-0.731197	-0.403096	-0.210938	0.375000	0.457031	510	17_11_24_7638900
0.140625	-0.216797	0.758789	-0.853063	-0.731197	-0.403096	-0.152344	0.351563	0.421875	511	17_11_24_7800190
0.149414	-0.210938	0.752930	-0.853063	-0.731197	-0.403096	-0.187500	0.375000	0.410156	512	17_11_24_7961480
0.143555	-0.205078	0.744141	-0.843689	-0.731197	-0.403096	-0.210938	0.363281	0.398438	513	17_11_24_8122770
0.134766	-0.205078	0.747070	-0.853063	-0.731197	-0.403096	-0.210938	0.339844	0.398438	514	17_11_24_8284060
0.140625	-0.205078	0.752930	-0.853063	-0.731197	-0.403096	-0.210938	0.339844	0.375000	515	17_11_24_8445350
0.134766	-0.213867	0.747070	-0.853063	-0.731197	-0.403096	-0.187500	0.351563	0.421875	516	17_11_24_8606640
0.134766	-0.205078	0.761719	-0.853063	-0.731197	-0.403096	-0.164063	0.339844	0.445313	517	17_11_24_8767930
0.143555	-0.199219	0.758789	-0.843689	-0.731197	-0.412470	-0.199219	0.585938	0.433594	518	17_11_24_8929220
0.140625	-0.205078	0.752930	-0.853063	-0.731197	-0.403096	-0.164063	0.316406	0.433594	519	17_11_24_9090510
0.137695	-0.210938	0.744141	-0.853063	-0.731197	-0.412470	-0.140625	0.339844	0.457031	520	17_11_24_9251800
0.140625	-0.208008	0.755859	-0.853063	-0.731197	-0.412470	-0.175781	0.363281	0.457031	521	17_11_24_9413090
0.131836	-0.202148	0.761719	-0.862437	-0.731197	-0.403096	-0.070313	0.468750	0.445313	522	17_11_24_9574380
0.143555	-0.222656	0.747070	-0.853063	-0.731197	-0.412470	-0.164063	0.328125	0.457031	523	17_11_24_9735670
0.146484	-0.205078	0.758789	-0.853063	-0.731197	-0.403096	-0.187500	0.375000	0.457031	524	17_11_24_9896960
0.158203	-0.210938	0.750000	-0.853063	-0.731197	-0.412470	-0.164063	0.375000	0.421875	525	17_11_25_0058250
0.149414	-0.208008	0.758789	-0.843689	-0.731197	-0.412470	-0.187500	0.375000	0.386719	526	17_11_25_0219540
0.146484	-0.208008	0.752930	-0.843689	-0.731197	-0.403096	-0.187500	0.375000	0.410156	527	17_11_25_0380830
0.146484	-0.208008	0.752930	-0.853063	-0.731197	-0.412470	-0.199219	0.375000	0.421875	528	17_11_25_0542120
0.134766	-0.210938	0.764648	-0.853063	-0.731197	-0.403096	-0.187500	0.375000	0.421875	529	17_11_25_0703410
0.140625	-0.210938	0.752930	-0.834314	-0.721823	-0.403096	-0.152344	0.375000	0.503906	530	17_11_25_0864700
0.146484	-0.208008	0.752930	-0.853063	-0.731197	-0.403096	-0.164063	0.375000	0.480469	531	17_11_25_1025990
0.137695	-0.213867	0.750000	-0.853063	-0.731197	-0.403096	-0.187500	0.375000	0.421875	532	17_11_25_1187280
0.140625	-0.205078	0.750000	-0.853063	-0.721823	-0.412470	-0.187500	0.375000	0.421875	533	17_11_25_1348570
0.137695	-0.193359	0.752930	-0.843689	-0.721823	-0.403096	-0.199219	0.328125	0.433594	534	17_11_25_1509860
0.134766	-0.210938	0.750000	-0.853063	-0.721823	-0.403096	-0.199219	0.328125	0.457031	535	17_11_25_1671150
0.140625	-0.208008	0.755859	-0.862437	-0.731197	-0.403096	0.023438	0.656250	0.433594	536	17_11_25_1832440
0.131836	-0.213867	0.752930	-0.853063	-0.721823	-0.440593	-0.187500	0.351563	0.421875	537	17_11_25_1993730
0.137695	-0.205078	0.752930	-0.843689	-0.731197	-0.412470	-0.187500	0.339844	0.433594	538	17_11_25_2155020
0.131836	-0.210938	0.741211	-0.853063	-0.731197	-0.403096	-0.222656	0.375000	0.421875	539	17_11_25_2316310
0.140625	-0.210938	0.758789	-0.853063	-0.731197	-0.403096	-0.187500	0.375000	0.480469	540	17_11_25_2477600
0.143555	-0.210938	0.750000	-0.862437	-0.731197	-0.403096	-0.164063	0.375000	0.492188	541	17_11_25_2638890
0.143555	-0.208008	0.747070	-0.853063	-0.731197	-0.412470	-0.199219	0.375000	0.457031	542	17_11_25_2800180
0.146484	-0.199219	0.752930	-0.843689	-0.731197	-0.403096	-0.187500	0.375000	0.480469	543	17_11_25_2961470
0.143555	-0.199219	0.747070	-0.843689	-0.731197	-0.403096	-0.210938	0.375000	0.503906	544	17_11_25_3122760
0.140625	-0.205078	0.758789	-0.843689	-0.731197	-0.412470	-0.187500	0.363281	0.480469	545	17_11_25_3284050
0.140625	-0.205078	0.755859	-0.853063	-0.721823	-0.412470	0.011719	0.621094	0.492188	546	17_11_25_3445340
0.146484	-0.199219	0.750000	-0.843689	-0.731197	-0.412470	-0.187500	0.351563	0.433594	547	17_11_25_3606630
0.125977	-0.205078	0.750000	-0.853063	-0.731197	-0.412470	-0.164063	0.339844	0.433594	548	17_11_25_3767920
0.134766	-0.216797	0.758789	-0.853063	-0.731197	-0.412470	-0.164063	0.679688	0.445313	549	17_11_25_3929210
0.146484	-0.199219	0.747070	-0.853063	-0.731197	-0.412470	-0.199219	0.386719	0.410156	550	17_11_25_4090500
0.131836	-0.210938	0.747070	-0.843689	-0.731197	-0.403096	-0.187500	0.375000	0.398438	551	17_11_25_4251790
0.137695	-0.216797	0.755859	-0.843689	-0.731197	-0.403096	-0.187500	0.375000	0.410156	552	17_11_25_4413080
0.137695	-0.208008	0.747070	-0.853063	-0.731197	-0.403096	-0.210938	0.363281	0.398438	553	17_11_25_4574370
0.140625	-0.205078	0.752930	-0.843689	-0.721823	-0.412470	-0.210938	0.339844	0.375000	554	17_11_25_4735660
0.149414	-0.205078	0.758789	-0.853063	-0.721823	-0.403096	-0.187500	0.375000	0.398438	555	17_11_25_4896950
0.140625	-0.219727	0.752930	-0.843689	-0.721823	-0.403096	-0.199219	0.375000	0.468750	556	17_11_25_5058240
0.140625	-0.202148	0.750000	-0.853063	-0.721823	-0.403096	-0.187500	0.375000	0.468750	557	17_11_25_5219530
0.146484	-0.205078	0.750000	-0.853063	-0.721823	-0.403096	-0.152344	0.375000	0.433594	558	17_11_25_5380820
0.140625	-0.208008	0.750000	-0.853063	-0.721823	-0.403096	-0.187500	0.386719	0.433594	559	17_11_25_5542110
0.146484	-0.210938	0.747070	-0.853063	-0.721823	-0.403096	-0.187500	0.386719	0.386719	560	17_11_25_5703400
0.146484	-0.210938	0.755859	-0.853063	-0.721823	-0.403096	-0.187500	0.375000	0.363281	561	17_11_25_5864690
0.137695	-0.205078	0.744141	-0.853063	-0.721823	-0.403096	-0.187500	0.363281	0.503906	562	17_11_25_6025980
0.137695	-0.199219	0.752930	-0.853063	-0.721823	-0.403096	-0.164063	0.351563	0.550781	563	17_11_25_6187270
0.146484	-0.210938	0.747070	-0.853063	-0.721823	-0.412470	-0.187500	0.375000	0.445313	564	17_11_25_6348560
0.158203	-0.208008	0.752930	-0.853063	-0.721823	-0.403096	-0.187500	0.375000	0.445313	565	17_11_25_6509850
0.146484	-0.208008	0.752930	-0.853063	-0.721823	-0.403096	-0.187500	0.375000	0.457031	566	17_11_25_6671140
0.134766	-0.202148	0.747070	-0.843689	-0.721823	-0.403096	-0.222656	0.375000	0.457031	567	17_11_25_6832430
0.134766	-0.208008	0.752930	-0.853063	-0.731197	-0.412470	-0.175781	0.363281	0.468750	568	17_11_25_6993720
0.143555	-0.216797	0.750000	-0.853063	-0.731197	-0.403096	-0.199219	0.351563	0.457031	569	17_11_25_7155010
0.137695	-0.205078	0.752930	-0.853063	-0.731197	-0.403096	-0.187500	0.375000	0.375000	570	17_11_25_7316300
0.146484	-0.202148	0.752930	-0.853063	-0.731197	-0.403096	-0.187500	0.386719	0.386719	571	17_11_25_7477590
0.146484	-0.202148	0.758789	-0.853063	-0.731197	-0.403096	-0.152344	0.421875	0.421875	572	17_11_25_7638880
0.143555	-0.205078	0.750000	-0.853063	-0.731197	-0.403096	-0.187500	0.363281	0.503906	573	17_11_25_7800170
0.140625	-0.205078	0.752930	-0.853063	-0.721823	-0.403096	-0.082031	0.492188	0.457031	574	17_11_25_7961460
0.137695	-0.205078	0.750000	-0.853063	-0.721823	-0.403096	-0.152344	0.351563	0.421875	575	17_11_25_8122750
0.140625	-0.208008	0.750000	-0.853063	-0.731197	-0.403096	-0.187500	0.351563	0.480469	576	17_11_25_8284040
0.134766	-0.208008	0.752930	-0.853063	-0.731197	-0.403096	-0.187500	0.363281	0.457031	577	17_11_25_8445330
0.137695	-0.205078	0.752930	-0.853063	-0.721823	-0.412470	-0.187500	0.375000	0.480469	578	17_11_25_8606620
0.131836	-0.202148	0.747070	-0.853063	-0.721823	-0.403096	-0.046875	0.714844	0.585938	579	17_11_25_8767910
0.140625	-0.205078	0.758789	-0.853063	-0.731197	-0.403096	-0.164063	0.375000	0.527344	580	17_11_25_8929200
0.137695	-0.199219	0.750000	-0.843689	-0.731197	-0.403096	-0.210938	0.375000	0.480469	581	17_11_25_9090490
0.140625	-0.216797	0.750000	-0.853063	-0.731197	-0.403096	-0.164063	0.375000	0.492188	582	17_11_25_9251780
0.140625	-0.208008	0.752930	-0.843689	-0.731197	-0.403096	-0.187500	0.375000	0.457031	583	17_11_25_9413070
0.140625	-0.205078	0.752930	-0.843689	-0.731197	-0.412470	-0.164063	0.375000	0.375000	584	17_11_25_9574360
0.134766	-0.210938	0.750000	-0.862437	-0.731197	-0.412470	-0.082031	0.480469	0.410156	585	17_11_25_9735650
0.131836	-0.216797	0.755859	-0.843689	-0.731197	-0.412470	-0.152344	0.328125	0.421875	586	17_11_25_9896940
0.140625	-0.208008	0.752930	-0.843689	-0.731197	-0.403096	-0.164063	0.375000	0.468750	587	17_11_26_0058230
0.152344	-0.205078	0.758789	-0.853063	-0.731197	-0.403096	-0.210938	0.386719	0.503906	588	17_11_26_0219520
0.143555	-0.199219	0.758789	-0.853063	-0.731197	-0.403096	-0.187500	0.375000	0.445313	589	17_11_26_0380810
0.143555	-0.213867	0.752930	-0.853063	-0.721823	-0.403096	-0.199219	0.363281	0.445313	590	17_11_26_0542100
0.152344	-0.210938	0.747070	-0.853063	-0.731197	-0.412470	-0.222656	0.351563	0.503906	591	17_11_26_0703390
0.146484	-0.208008	0.747070	-0.843689	-0.731197	-0.403096	-0.187500	0.328125	0.503906	592	17_11_26_0864680
0.140625	-0.202148	0.758789	-0.853063	-0.731197	-0.403096	-0.187500	0.316406	0.492188	593	17_11_26_1025970
0.149414	-0.210938	0.752930	-0.843689	-0.731197	-0.403096	-0.199219	0.375000	0.457031	594	17_11_26_1187260
0.149414	-0.210938	0.764648	-0.853063	-0.731197	-0.403096	-0.187500	0.375000	0.410156	595	17_11_26_1348550
0.140625	-0.202148	0.747070	-0.834314	-0.731197	-0.412470	-0.152344	0.445313	0.445313	596	17_11_26_1509840
0.140625	-0.205078	0.747070	-0.853063	-0.731197	-0.403096	-0.187500	0.363281	0.457031	597	17_11_26_1671130
0.134766	-0.210938	0.747070	-0.853063	-0.731197	-0.403096	-0.187500	0.363281	0.492188	598	17_11_26_1832420
0.146484	-0.205078	0.747070	-0.853063	-0.721823	-0.403096	-0.187500	0.351563	0.480469	599	17_11_26_1993710
0.137695	-0.216797	0.750000	-0.843689	-0.721823	-0.403096	-0.152344	0.351563	0.421875	600	17_11_26_2155000
0.140625	-0.216797	0.747070	-0.853063	-0.721823	-0.403096	-0.164063	0.621094	0.421875	601	17_11_26_2316290
0.146484	-0.205078	0.758789	-0.853063	-0.731197	-0.412470	-0.164063	0.375000	0.410156	602	17_11_26_2477580
0.134766	-0.205078	0.758789	-0.853063	-0.731197	-0.403096	-0.105469	0.433594	0.433594	603	17_11_26_2638870
0.137695	-0.210938	0.747070	-0.853063	-0.721823	-0.403096	-0.082031	0.457031	0.410156	604	17_11_26_2800160
0.146484	-0.210938	0.752930	-0.853063	-0.721823	-0.403096	-0.210938	0.375000	0.445313	605	17_11_26_2961450
0.140625	-0.196289	0.750000	-0.853063	-0.721823	-0.403096	-0.187500	0.363281	0.492188	606	17_11_26_3122740
0.149414	-0.210938	0.752930	-0.843689	-0.721823	-0.403096	-0.187500	0.328125	0.457031	607	17_11_26_3284030
0.143555	-0.208008	0.752930	-0.843689	-0.731197	-0.412470	-0.164063	0.351563	0.480469	608	17_11_26_3445320
0.146484	-0.205078	0.747070	-0.853063	-0.721823	-0.403096	0.070313	0.714844	0.433594	609	17_11_26_3606610
0.137695	-0.205078	0.752930	-0.853063	-0.731197	-0.412470	-0.187500	0.375000	0.398438	610	17_11_26_3767900
0.134766	-0.208008	0.750000	-0.853063	-0.731197	-0.412470	-0.187500	0.375000	0.410156	611	17_11_26_3929190
0.143555	-0.205078	0.747070	-0.853063	-0.721823	-0.412470	-0.199219	0.351563	0.410156	612	17_11_26_4090480
0.120117	-0.213867	0.755859	-0.853063	-0.731197	-0.403096	-0.187500	0.363281	0.433594	613	17_11_26_4251770
0.128906	-0.208008	0.752930	-0.853063	-0.731197	-0.403096	-0.187500	0.351563	0.468750	614	17_11_26_4413060
0.134766	-0.205078	0.755859	-0.853063	-0.721823	-0.412470	-0.128906	0.386719	0.433594	615	17_11_26_4574350
0.146484	-0.205078	0.747070	-0.843689	-0.731197	-0.412470	-0.175781	0.363281	0.398438	616	17_11_26_4735640
0.134766	-0.216797	0.755859	-0.862437	-0.731197	-0.412470	-0.011719	0.550781	0.410156	617	17_11_26_4896930
0.149414	-0.199219	0.752930	-0.853063	-0.731197	-0.403096	0.000000	0.609375	0.433594	618	17_11_26_5058220
0.143555	-0.205078	0.747070	-0.853063	-0.721823	-0.403096	-0.187500	0.375000	0.457031	619	17_11_26_5219510
0.137695	-0.190430	0.747070	-0.853063	-0.731197	-0.403096	-0.187500	0.375000	0.457031	620	17_11_26_5380800
0.140625	-0.208008	0.755859	-0.853063	-0.731197	-0.412470	-0.187500	0.375000	0.457031	621	17_11_26_5542090
0.140625	-0.208008	0.752930	-0.843689	-0.731197	-0.412470	-0.175781	0.375000	0.433594	622	17_11_26_5703380
0.146484	-0.210938	0.761719	-0.853063	-0.731197	-0.403096	-0.187500	0.375000	0.468750	623	17_11_26_5864670
0.146484	-0.210938	0.752930	-0.853063	-0.731197	-0.403096	-0.199219	0.375000	0.503906	624	17_11_26_6025960
0.140625	-0.199219	0.752930	-0.853063	-0.731197	-0.403096	-0.164063	0.363281	0.480469	625	17_11_26_6187250
0.140625	-0.205078	0.750000	-0.853063	-0.731197	-0.412470	-0.187500	0.351563	0.433594	626	17_11_26_6348540
0.140625	-0.199219	0.747070	-0.843689	-0.721823	-0.403096	-0.164063	0.339844	0.398438	627	17_11_26_6509830
0.131836	-0.208008	0.750000	-0.853063	-0.731197	-0.403096	-0.187500	0.363281	0.398438	628	17_11_26_6671120
0.149414	-0.208008	0.758789	-0.853063	-0.721823	-0.403096	-0.187500	0.351563	0.398438	629	17_11_26_6832410
0.143555	-0.210938	0.755859	-0.853063	-0.731197	-0.403096	-0.187500	0.339844	0.410156	630	17_11_26_6993700
0.146484	-0.208008	0.750000	-0.853063	-0.721823	-0.403096	-0.210938	0.363281	0.445313	631	17_11_26_7154990
0.146484	-0.213867	0.752930	-0.853063	-0.721823	-0.403096	-0.117188	0.667969	0.527344	632	17_11_26_7316280
0.137695	-0.205078	0.747070	-0.843689	-0.731197	-0.403096	-0.152344	0.363281	0.386719	633	17_11_26_7477570
0.137695	-0.208008	0.758789	-0.862437	-0.731197	-0.412470	-0.187500	0.339844	0.410156	634	17_11_26_7638860
0.137695	-0.205078	0.758789	-0.853063	-0.721823	-0.403096	-0.082031	0.398438	0.410156	635	17_11_26_7800150
0.134766	-0.208008	0.752930	-0.853063	-0.721823	-0.403096	-0.199219	0.351563	0.421875	636	17_11_26_7961440
0.140625	-0.208008	0.741211	-0.862437	-0.731197	-0.403096	-0.187500	0.375000	0.445313	637	17_11_26_8122730
0.128906	-0.208008	0.744141	-0.853063	-0.721823	-0.403096	-0.187500	0.363281	0.433594	638	17_11_26_8284020
0.140625	-0.205078	0.758789	-0.853063	-0.731197	-0.403096	-0.187500	0.363281	0.410156	639	17_11_26_8445310
0.134766	-0.210938	0.755859	-0.843689	-0.721823	-0.412470	-0.164063	0.351563	0.386719	640	17_11_26_8606600
0.140625	-0.205078	0.750000	-0.853063	-0.731197	-0.403096	-0.187500	0.339844	0.410156	641	17_11_26_8767890
0.137695	-0.202148	0.741211	-0.853063	-0.731197	-0.403096	-0.210938	0.375000	0.398438	642	17_11_26_8929180
0.140625	-0.205078	0.752930	-0.853063	-0.731197	-0.403096	-0.187500	0.375000	0.375000	643	17_11_26_9090470
0.140625	-0.205078	0.744141	-0.853063	-0.721823	-0.403096	-0.187500	0.351563	0.398438	644	17_11_26_9251760
0.140625	-0.213867	0.747070	-0.853063	-0.721823	-0.403096	-0.164063	0.304688	0.410156	645	17_11_26_9413050
0.125977	-0.202148	0.755859	-0.843689	-0.721823	-0.403096	-0.164063	0.351563	0.457031	646	17_11_26_9574340
0.137695	-0.205078	0.758789	-0.853063	-0.731197	-0.403096	-0.199219	0.375000	0.457031	647	17_11_26_9735630
0.149414	-0.208008	0.750000	-0.853063	-0.721823	-0.403096	-0.187500	0.363281	0.457031	648	17_11_26_9896920
0.146484	-0.216797	0.752930	-0.853063	-0.731197	-0.412470	-0.210938	0.339844	0.445313	649	17_11_27_0058210
0.134766	-0.208008	0.744141	-0.843689	-0.731197	-0.403096	-0.187500	0.363281	0.421875	650	17_11_27_0219500
0.134766	-0.199219	0.750000	-0.853063	-0.731197	-0.403096	-0.164063	0.386719	0.421875	651	17_11_27_0380790
0.146484	-0.202148	0.747070	-0.853063	-0.721823	-0.403096	-0.152344	0.351563	0.410156	652	17_11_27_0542080
0.140625	-0.210938	0.750000	-0.843689	-0.731197	-0.403096	-0.187500	0.339844	0.503906	653	17_11_27_0703370
0.146484	-0.205078	0.752930	-0.853063	-0.731197	-0.403096	-0.210938	0.351563	0.457031	654	17_11_27_0864660
0.149414	-0.205078	0.752930	-0.853063	-0.721823	-0.403096	-0.199219	0.351563	0.398438	655	17_11_27_1025950
0.143555	-0.205078	0.752930	-0.853063	-0.721823	-0.412470	-0.210938	0.375000	0.398438	656	17_11_27_1187240
0.143555	-0.205078	0.755859	-0.853063	-0.731197	-0.412470	-0.187500	0.363281	0.363281	657	17_11_27_1348530
0.143555	-0.205078	0.750000	-0.862437	-0.721823	-0.403096	-0.082031	0.492188	0.398438	658	17_11_27_1509820
0.155273	-0.208008	0.755859	-0.853063	-0.731197	-0.403096	-0.175781	0.363281	0.445313	659	17_11_27_1671110
0.134766	-0.210938	0.747070	-0.853063	-0.731197	-0.403096	-0.175781	0.351563	0.457031	660	17_11_27_1832400
0.140625	-0.213867	0.750000	-0.853063	-0.721823	-0.412470	-0.164063	0.375000	0.433594	661	17_11_27_1993690
0.134766	-0.210938	0.752930	-0.843689	-0.721823	-0.403096	-0.046875	0.574219	0.457031	662	17_11_27_2154980
0.131836	-0.205078	0.758789	-0.862437	-0.731197	-0.403096	-0.152344	0.644531	0.492188	663	17_11_27_2316270
0.128906	-0.205078	0.761719	-0.853063	-0.721823	-0.403096	-0.164063	0.351563	0.433594	664	17_11_27_2477560
0.134766	-0.205078	0.750000	-0.843689	-0.721823	-0.403096	-0.175781	0.375000	0.433594	665	17_11_27_2638850
0.146484	-0.210938	0.747070	-0.843689	-0.731197	-0.403096	-0.187500	0.375000	0.480469	666	17_11_27_2800140
0.134766	-0.210938	0.750000	-0.853063	-0.731197	-0.403096	-0.187500	0.375000	0.445313	667	17_11_27_2961430
0.137695	-0.205078	0.747070	-0.853063	-0.731197	-0.412470	-0.175781	0.375000	0.410156	668	17_11_27_3122720
0.134766	-0.208008	0.750000	-0.862437	-0.731197	-0.403096	-0.035156	0.574219	0.386719	669	17_11_27_3284010
0.143555	-0.205078	0.747070	-0.862437	-0.721823	-0.412470	-0.046875	0.539063	0.410156	670	17_11_27_3445300
0.146484	-0.205078	0.750000	-0.853063	-0.721823	-0.412470	-0.234375	0.351563	0.386719	671	17_11_27_3606590
0.137695	-0.202148	0.755859	-0.853063	-0.721823	-0.412470	-0.187500	0.351563	0.410156	672	17_11_27_3767880
0.134766	-0.205078	0.752930	-0.853063	-0.721823	-0.412470	-0.187500	0.339844	0.468750	673	17_11_27_3929170
0.134766	-0.208008	0.752930	-0.853063	-0.721823	-0.403096	-0.187500	0.363281	0.421875	674	17_11_27_4090460
0.140625	-0.205078	0.752930	-0.853063	-0.721823	-0.412470	-0.199219	0.375000	0.386719	675	17_11_27_4251750
0.134766	-0.208008	0.750000	-0.843689	-0.731197	-0.403096	-0.199219	0.375000	0.410156	676	17_11_27_4413040
0.134766	-0.213867	0.752930	-0.853063	-0.721823	-0.403096	-0.164063	0.375000	0.398438	677	17_11_27_4574330
0.146484	-0.205078	0.750000	-0.853063	-0.731197	-0.412470	-0.175781	0.375000	0.433594	678	17_11_27_4735620
0.143555	-0.213867	0.750000	-0.853063	-0.721823	-0.403096	-0.175781	0.386719	0.492188	679	17_11_27_4896910
0.134766	-0.202148	0.758789	-0.862437	-0.721823	-0.403096	0.000000	0.574219	0.468750	680	17_11_27_5058200
0.143555	-0.202148	0.752930	-0.853063	-0.721823	-0.403096	-0.187500	0.375000	0.445313	681	17_11_27_5219490
0.140625	-0.205078	0.744141	-0.843689	-0.721823	-0.403096	-0.210938	0.375000	0.445313	682	17_11_27_5380780
0.140625	-0.213867	0.758789	-0.853063	-0.721823	-0.403096	-0.023438	0.761719	0.410156	683	17_11_27_5542070
0.140625	-0.213867	0.755859	-0.843689	-0.721823	-0.403096	-0.164063	0.351563	0.398438	684	17_11_27_5703360
0.140625	-0.199219	0.750000	-0.853063	-0.721823	-0.403096	-0.187500	0.339844	0.398438	685	17_11_27_5864650
0.137695	-0.202148	0.752930	-0.853063	-0.721823	-0.403096	-0.210938	0.375000	0.398438	686	17_11_27_6025940
0.146484	-0.210938	0.750000	-0.853063	-0.721823	-0.403096	-0.164063	0.386719	0.433594	687	17_11_27_6187230
0.143555	-0.208008	0.750000	-0.853063	-0.731197	-0.412470	-0.187500	0.375000	0.457031	688	17_11_27_6348520
0.146484	-0.213867	0.758789	-0.853063	-0.731197	-0.412470	-0.175781	0.351563	0.445313	689	17_11_27_6509810
0.137695	-0.205078	0.747070	-0.853063	-0.731197	-0.412470	-0.164063	0.351563	0.433594	690	17_11_27_6671100
0.143555	-0.205078	0.758789	-0.853063	-0.731197	-0.403096	-0.187500	0.375000	0.398438	691	17_11_27_6832390
0.134766	-0.199219	0.747070	-0.843689	-0.721823	-0.412470	-0.187500	0.375000	0.433594	692	17_11_27_6993680
0.134766	-0.208008	0.747070	-0.853063	-0.721823	-0.412470	-0.187500	0.375000	0.421875	693	17_11_27_7154970
0.137695	-0.199219	0.752930	-0.853063	-0.731197	-0.403096	-0.187500	0.375000	0.363281	694	17_11_27_7316260
0.131836	-0.210938	0.747070	-0.843689	-0.721823	-0.412470	-0.187500	0.363281	0.421875	695	17_11_27_7477550
0.128906	-0.208008	0.750000	-0.843689	-0.731197	-0.412470	-0.199219	0.351563	0.433594	696	17_11_27_7638840
0.134766	-0.216797	0.750000	-0.853063	-0.721823	-0.412470	-0.175781	0.375000	0.386719	697	17_11_27_7800130
0.128906	-0.216797	0.752930	-0.853063	-0.731197	-0.412470	-0.199219	0.351563	0.421875	698	17_11_27_7961420
0.134766	-0.210938	0.752930	-0.853063	-0.731197	-0.412470	-0.210938	0.328125	0.433594	699	17_11_27_8122710
0.140625	-0.205078	0.752930	-0.862437	-0.731197	-0.412470	-0.187500	0.351563	0.386719	700	17_11_27_8284000
0.146484	-0.216797	0.747070	-0.853063	-0.731197	-0.412470	-0.187500	0.351563	0.398438	701	17_11_27_8445290
0.143555	-0.202148	0.752930	-0.853063	-0.731197	-0.412470	-0.187500	0.339844	0.457031	702	17_11_27_8606580
0.149414	-0.205078	0.752930	-0.853063	-0.731197	-0.412470	-0.187500	0.363281	0.457031	703	17_11_27_8767870
0.146484	-0.208008	0.747070	-0.853063	-0.731197	-0.412470	-0.187500	0.375000	0.433594	704	17_11_27_8929160
0.155273	-0.210938	0.755859	-0.853063	-0.731197	-0.412470	-0.199219	0.375000	0.433594	705	17_11_27_9090450
0.155273	-0.210938	0.758789	-0.853063	-0.731197	-0.412470	-0.187500	0.375000	0.398438	706	17_11_27_9251740
0.158203	-0.210938	0.747070	-0.853063	-0.721823	-0.412470	-0.199219	0.363281	0.398438	707	17_11_27_9413030
0.158203	-0.202148	0.750000	-0.853063	-0.721823	-0.403096	-0.164063	0.386719	0.480469	708	17_11_27_9574320
0.158203	-0.213867	0.750000	-0.843689	-0.721823	-0.403096	-0.164063	0.375000	0.527344	709	17_11_27_9735610
0.158203	-0.202148	0.752930	-0.853063	-0.712448	-0.403096	-0.199219	0.375000	0.468750	710	17_11_27_9896900
0.152344	-0.202148	0.752930	-0.853063	-0.712448	-0.403096	-0.164063	0.375000	0.457031	711	17_11_28_0058190
0.143555	-0.205078	0.747070	-0.853063	-0.721823	-0.403096	-0.140625	0.386719	0.468750	712	17_11_28_0219480
0.149414	-0.216797	0.750000	-0.853063	-0.721823	-0.393721	-0.199219	0.351563	0.421875	713	17_11_28_0380770
0.140625	-0.210938	0.750000	-0.853063	-0.712448	-0.403096	-0.187500	0.351563	0.398438	714	17_11_28_0542060
0.134766	-0.208008	0.747070	-0.853063	-0.721823	-0.403096	-0.187500	0.339844	0.421875	715	17_11_28_0703350
0.134766	-0.216797	0.755859	-0.843689	-0.721823	-0.403096	-0.164063	0.386719	0.457031	716	17_11_28_0864640
0.140625	-0.199219	0.747070	-0.853063	-0.721823	-0.403096	-0.164063	0.386719	0.445313	717	17_11_28_1025930
0.137695	-0.208008	0.750000	-0.862437	-0.721823	-0.403096	-0.164063	0.339844	0.398438	718	17_11_28_1187220
0.134766	-0.205078	0.752930	-0.853063	-0.721823	-0.403096	-0.175781	0.351563	0.410156	719	17_11_28_1348510
0.134766	-0.205078	0.755859	-0.853063	-0.721823	-0.403096	-0.175781	0.386719	0.468750	720	17_11_28_1509800
0.134766	-0.210938	0.755859	-0.843689	-0.721823	-0.403096	-0.152344	0.375000	0.492188	721	17_11_28_1671090
0.134766	-0.216797	0.758789	-0.853063	-0.731197	-0.412470	-0.164063	0.375000	0.480469	722	17_11_28_1832380
0.137695	-0.205078	0.752930	-0.862437	-0.721823	-0.412470	0.023438	0.621094	0.433594	723	17_11_28_1993670
0.131836	-0.205078	0.747070	-0.853063	-0.721823	-0.412470	-0.175781	0.375000	0.375000	724	17_11_28_2154960
0.140625	-0.216797	0.752930	-0.843689	-0.731197	-0.412470	-0.175781	0.375000	0.410156	725	17_11_28_2316250
0.128906	-0.208008	0.741211	-0.853063	-0.731197	-0.412470	-0.140625	0.421875	0.457031	726	17_11_28_2477540
0.143555	-0.213867	0.747070	-0.843689	-0.731197	-0.412470	-0.164063	0.363281	0.410156	727	17_11_28_2638830
0.146484	-0.202148	0.752930	-0.843689	-0.731197	-0.412470	-0.152344	0.351563	0.410156	728	17_11_28_2800120
0.152344	-0.205078	0.758789	-0.853063	-0.731197	-0.412470	-0.187500	0.351563	0.445313	729	17_11_28_2961410
0.152344	-0.213867	0.761719	-0.853063	-0.731197	-0.403096	-0.187500	0.375000	0.457031	730	17_11_28_3122700
0.155273	-0.205078	0.752930	-0.853063	-0.721823	-0.412470	-0.187500	0.375000	0.480469	731	17_11_28_3283990
0.155273	-0.210938	0.758789	-0.853063	-0.731197	-0.412470	-0.187500	0.375000	0.492188	732	17_11_28_3445280
0.155273	-0.208008	0.747070	-0.853063	-0.721823	-0.403096	-0.164063	0.386719	0.421875	733	17_11_28_3606570
0.155273	-0.213867	0.741211	-0.843689	-0.721823	-0.412470	-0.187500	0.363281	0.410156	734	17_11_28_3767860
0.158203	-0.213867	0.755859	-0.843689	-0.721823	-0.403096	-0.164063	0.351563	0.457031	735	17_11_28_3929150
0.149414	-0.210938	0.755859	-0.862437	-0.712448	-0.403096	-0.187500	0.375000	0.457031	736	17_11_28_4090440
0.149414	-0.202148	0.758789	-0.843689	-0.712448	-0.403096	-0.164063	0.375000	0.421875	737	17_11_28_4251730
0.155273	-0.202148	0.741211	-0.853063	-0.712448	-0.403096	-0.187500	0.375000	0.386719	738	17_11_28_4413020
0.152344	-0.210938	0.741211	-0.843689	-0.712448	-0.403096	-0.187500	0.375000	0.433594	739	17_11_28_4574310
0.155273	-0.178711	0.741211	-0.862437	-0.712448	-0.403096	-0.164063	0.375000	0.468750	740	17_11_28_4735600
0.164063	-0.190430	0.744141	-0.862437	-0.721823	-0.412470	-0.187500	0.363281	0.457031	741	17_11_28_4896890
0.161133	-0.213867	0.750000	-0.862437	-0.712448	-0.403096	0.011719	0.609375	0.445313	742	17_11_28_5058180
0.152344	-0.199219	0.747070	-0.853063	-0.703074	-0.393721	-0.222656	0.375000	0.457031	743	17_11_28_5219470
0.155273	-0.216797	0.750000	-0.853063	-0.703074	-0.384347	-0.164063	0.386719	0.445313	744	17_11_28_5380760
0.158203	-0.213867	0.735352	-0.862437	-0.693700	-0.384347	-0.187500	0.351563	0.410156	745	17_11_28_5542050
0.152344	-0.193359	0.755859	-0.862437	-0.693700	-0.384347	-0.128906	0.609375	0.574219	746	17_11_28_5703340
0.120117	-0.202148	0.770508	-0.843689	-0.703074	-0.384347	-0.152344	0.363281	0.492188	747	17_11_28_5864630
0.096680	-0.228516	0.773438	-0.843689	-0.712448	-0.384347	-0.164063	0.351563	0.457031	748	17_11_28_6025920
0.090820	-0.225586	0.770508	-0.853063	-0.731197	-0.384347	-0.164063	0.351563	0.433594	749	17_11_28_6187210
0.125977	-0.216797	0.764648	-0.862437	-0.731197	-0.393721	-0.199219	0.375000	0.445313	750	17_11_28_6348500
0.128906	-0.205078	0.744141	-0.853063	-0.721823	-0.403096	-0.175781	0.375000	0.480469	751	17_11_28_6509790
0.140625	-0.196289	0.729492	-0.862437	-0.712448	-0.393721	-0.187500	0.386719	0.433594	752	17_11_28_6671080
0.128906	-0.199219	0.735352	-0.853063	-0.712448	-0.393721	-0.164063	0.375000	0.433594	753	17_11_28_6832370
0.123047	-0.196289	0.747070	-0.843689	-0.712448	-0.403096	-0.070313	0.492188	0.480469	754	17_11_28_6993660
0.120117	-0.216797	0.755859	-0.853063	-0.712448	-0.403096	-0.187500	0.375000	0.445313	755	17_11_28_7154950
0.114258	-0.210938	0.758789	-0.853063	-0.721823	-0.403096	-0.187500	0.375000	0.445313	756	17_11_28_7316240
0.105469	-0.210938	0.758789	-0.843689	-0.731197	-0.412470	-0.187500	0.363281	0.421875	757	17_11_28_7477530
0.123047	-0.210938	0.758789	-0.862437	-0.740571	-0.403096	-0.187500	0.433594	0.457031	758	17_11_28_7638820
0.120117	-0.193359	0.758789	-0.853063	-0.740571	-0.412470	-0.187500	0.375000	0.492188	759	17_11_28_7800110
0.134766	-0.210938	0.750000	-0.853063	-0.740571	-0.412470	-0.152344	0.339844	0.480469	760	17_11_28_7961400
0.134766	-0.210938	0.744141	-0.843689	-0.721823	-0.412470	-0.187500	0.351563	0.433594	761	17_11_28_8122690
0.128906	-0.196289	0.747070	-0.853063	-0.721823	-0.412470	-0.187500	0.375000	0.410156	762	17_11_28_8283980
0.140625	-0.202148	0.738281	-0.853063	-0.731197	-0.412470	-0.187500	0.363281	0.410156	763	17_11_28_8445270
0.131836	-0.208008	0.758789	-0.853063	-0.731197	-0.412470	-0.011719	0.550781	0.468750	764	17_11_28_8606560
0.137695	-0.205078	0.752930	-0.853063	-0.731197	-0.412470	-0.175781	0.386719	0.480469	765	17_11_28_8767850
0.134766	-0.208008	0.747070	-0.843689	-0.731197	-0.412470	-0.187500	0.351563	0.480469	766	17_11_28_8929140
0.134766	-0.199219	0.752930	-0.843689	-0.731197	-0.412470	-0.187500	0.375000	0.468750	767	17_11_28_9090430
0.125977	-0.205078	0.747070	-0.853063	-0.740571	-0.412470	-0.187500	0.363281	0.445313	768	17_11_28_9251720
0.134766	-0.205078	0.758789	-0.853063	-0.731197	-0.412470	-0.187500	0.363281	0.410156	769	17_11_28_9413010
0.140625	-0.202148	0.750000	-0.853063	-0.731197	-0.412470	-0.117188	0.445313	0.375000	770	17_11_28_9574300
0.140625	-0.208008	0.747070	-0.843689	-0.731197	-0.412470	-0.175781	0.363281	0.410156	771	17_11_28_9735590
0.140625	-0.208008	0.755859	-0.862437	-0.731197	-0.412470	-0.070313	0.480469	0.457031	772	17_11_28_9896880
0.128906	-0.213867	0.752930	-0.853063	-0.731197	-0.412470	-0.046875	0.539063	0.433594	773	17_11_29_0058170
0.140625	-0.202148	0.747070	-0.843689	-0.731197	-0.412470	-0.152344	0.363281	0.492188	774	17_11_29_0219460
0.152344	-0.210938	0.752930	-0.853063	-0.731197	-0.412470	-0.187500	0.351563	0.515625	775	17_11_29_0380750
0.143555	-0.210938	0.747070	-0.843689	-0.721823	-0.412470	-0.187500	0.375000	0.468750	776	17_11_29_0542040
0.134766	-0.213867	0.747070	-0.843689	-0.721823	-0.412470	-0.199219	0.375000	0.445313	777	17_11_29_0703330
0.137695	-0.205078	0.755859	-0.853063	-0.731197	-0.412470	-0.175781	0.375000	0.457031	778	17_11_29_0864620
0.152344	-0.205078	0.758789	-0.843689	-0.731197	-0.412470	-0.164063	0.375000	0.433594	779	17_11_29_1025910
0.146484	-0.213867	0.758789	-0.853063	-0.721823	-0.412470	-0.175781	0.375000	0.457031	780	17_11_29_1187200
0.143555	-0.208008	0.752930	-0.853063	-0.731197	-0.403096	-0.187500	0.363281	0.468750	781	17_11_29_1348490
0.140625	-0.216797	0.758789	-0.862437	-0.731197	-0.412470	-0.082031	0.503906	0.468750	782	17_11_29_1509780
0.140625	-0.205078	0.747070	-0.853063	-0.721823	-0.403096	-0.210938	0.363281	0.457031	783	17_11_29_1671070
0.146484	-0.205078	0.744141	-0.853063	-0.721823	-0.403096	-0.164063	0.351563	0.457031	784	17_11_29_1832360
0.149414	-0.205078	0.750000	-0.853063	-0.721823	-0.403096	-0.152344	0.386719	0.468750	785	17_11_29_1993650
0.137695	-0.205078	0.747070	-0.853063	-0.721823	-0.403096	0.046875	0.656250	0.492188	786	17_11_29_2154940
0.137695	-0.208008	0.758789	-0.853063	-0.731197	-0.403096	-0.187500	0.339844	0.503906	787	17_11_29_2316230
0.134766	-0.210938	0.752930	-0.853063	-0.721823	-0.403096	-0.199219	0.375000	0.468750	788	17_11_29_2477520
0.134766	-0.208008	0.752930	-0.862437	-0.721823	-0.403096	-0.105469	0.562500	0.468750	789	17_11_29_2638810
0.137695	-0.202148	0.755859	-0.853063	-0.721823	-0.412470	-0.199219	0.363281	0.433594	790	17_11_29_2800100
0.131836	-0.199219	0.752930	-0.862437	-0.731197	-0.403096	-0.175781	0.375000	0.386719	791	17_11_29_2961390
0.140625	-0.213867	0.758789	-0.853063	-0.721823	-0.403096	-0.187500	0.375000	0.410156	792	17_11_29_3122680
0.128906	-0.205078	0.755859	-0.853063	-0.721823	-0.403096	-0.187500	0.386719	0.433594	793	17_11_29_3283970
0.131836	-0.208008	0.750000	-0.853063	-0.721823	-0.412470	-0.140625	0.386719	0.445313	794	17_11_29_3445260
0.134766	-0.208008	0.750000	-0.853063	-0.721823	-0.403096	-0.164063	0.351563	0.457031	795	17_11_29_3606550
0.131836	-0.202148	0.752930	-0.853063	-0.721823	-0.412470	-0.187500	0.375000	0.457031	796	17_11_29_3767840
0.134766	-0.208008	0.755859	-0.843689	-0.721823	-0.412470	-0.187500	0.375000	0.386719	797	17_11_29_3929130
0.134766	-0.208008	0.758789	-0.843689	-0.721823	-0.403096	-0.187500	0.375000	0.386719	798	17_11_29_4090420
0.131836	-0.208008	0.752930	-0.853063	-0.721823	-0.403096	-0.187500	0.351563	0.433594	799	17_11_29_4251710
0.134766	-0.205078	0.750000	-0.862437	-0.731197	-0.403096	-0.175781	0.363281	0.421875	800	17_11_29_4413000
0.134766	-0.199219	0.752930	-0.843689	-0.721823	-0.403096	-0.199219	0.328125	0.410156	801	17_11_29_4574290
0.140625	-0.208008	0.752930	-0.853063	-0.721823	-0.403096	-0.187500	0.339844	0.421875	802	17_11_29_4735580
0.131836	-0.205078	0.747070	-0.853063	-0.731197	-0.412470	-0.187500	0.375000	0.457031	803	17_11_29_4896870
0.131836	-0.208008	0.752930	-0.853063	-0.731197	-0.412470	-0.058594	0.527344	0.457031	804	17_11_29_5058160
0.131836	-0.202148	0.750000	-0.843689	-0.731197	-0.403096	-0.187500	0.375000	0.410156	805	17_11_29_5219450
0.134766	-0.199219	0.747070	-0.843689	-0.721823	-0.403096	-0.187500	0.375000	0.433594	806	17_11_29_5380740
0.128906	-0.205078	0.752930	-0.853063	-0.731197	-0.403096	-0.164063	0.375000	0.492188	807	17_11_29_5542030
0.134766	-0.213867	0.758789	-0.862437	-0.731197	-0.403096	-0.058594	0.726563	0.480469	808	17_11_29_5703320
0.137695	-0.208008	0.755859	-0.853063	-0.731197	-0.403096	-0.175781	0.585938	0.503906	809	17_11_29_5864610
0.140625	-0.193359	0.752930	-0.853063	-0.731197	-0.403096	-0.187500	0.351563	0.457031	810	17_11_29_6025900
0.128906	-0.205078	0.761719	-0.853063	-0.731197	-0.403096	-0.164063	0.363281	0.421875	811	17_11_29_6187190
0.134766	-0.222656	0.750000	-0.853063	-0.731197	-0.403096	-0.187500	0.351563	0.457031	812	17_11_29_6348480
0.131836	-0.208008	0.755859	-0.843689	-0.721823	-0.403096	-0.164063	0.386719	0.468750	813	17_11_29_6509770
0.134766	-0.205078	0.758789	-0.853063	-0.731197	-0.412470	-0.187500	0.386719	0.421875	814	17_11_29_6671060
0.123047	-0.210938	0.752930	-0.853063	-0.721823	-0.403096	-0.164063	0.363281	0.410156	815	17_11_29_6832350
0.137695	-0.216797	0.750000	-0.843689	-0.731197	-0.412470	-0.164063	0.363281	0.398438	816	17_11_29_6993640
0.137695	-0.205078	0.750000	-0.853063	-0.731197	-0.412470	-0.210938	0.363281	0.421875	817	17_11_29_7154930
0.137695	-0.210938	0.750000	-0.862437	-0.731197	-0.412470	0.000000	0.796875	0.468750	818	17_11_29_7316220
0.131836	-0.205078	0.750000	-0.853063	-0.731197	-0.412470	-0.175781	0.363281	0.445313	819	17_11_29_7477510
0.140625	-0.205078	0.758789	-0.843689	-0.731197	-0.412470	-0.187500	0.375000	0.457031	820	17_11_29_7638800
0.140625	-0.205078	0.747070	-0.853063	-0.731197	-0.412470	-0.187500	0.363281	0.480469	821	17_11_29_7800090
0.134766	-0.205078	0.758789	-0.853063	-0.731197	-0.412470	-0.187500	0.363281	0.468750	822	17_11_29_7961380
0.131836	-0.208008	0.747070	-0.853063	-0.721823	-0.412470	-0.187500	0.375000	0.421875	823	17_11_29_8122670
0.137695	-0.205078	0.758789	-0.853063	-0.731197	-0.412470	-0.175781	0.375000	0.480469	824	17_11_29_8283960
0.134766	-0.199219	0.758789	-0.843689	-0.731197	-0.403096	-0.187500	0.375000	0.492188	825	17_11_29_8445250
0.140625	-0.208008	0.758789	-0.843689	-0.721823	-0.403096	-0.199219	0.351563	0.398438	826	17_11_29_8606540
0.137695	-0.202148	0.741211	-0.853063	-0.731197	-0.403096	-0.210938	0.328125	0.410156	827	17_11_29_8767830
0.134766	-0.208008	0.752930	-0.853063	-0.731197	-0.403096	-0.187500	0.351563	0.421875	828	17_11_29_8929120
0.134766	-0.202148	0.752930	-0.853063	-0.721823	-0.412470	-0.152344	0.351563	0.421875	829	17_11_29_9090410
0.140625	-0.205078	0.747070	-0.843689	-0.731197	-0.403096	-0.152344	0.351563	0.421875	830	17_11_29_9251700
0.140625	-0.213867	0.752930	-0.853063	-0.721823	-0.403096	-0.152344	0.375000	0.445313	831	17_11_29_9412990
0.131836	-0.202148	0.747070	-0.853063	-0.721823	-0.403096	-0.187500	0.363281	0.480469	832	17_11_29_9574280
0.134766	-0.213867	0.752930	-0.853063	-0.731197	-0.403096	-0.128906	0.375000	0.480469	833	17_11_29_9735570
0.137695	-0.213867	0.752930	-0.862437	-0.721823	-0.403096	-0.035156	0.503906	0.433594	834	17_11_29_9896860
0.134766	-0.199219	0.758789	-0.853063	-0.731197	-0.403096	-0.082031	0.445313	0.386719	835	17_11_30_0058150
0.131836	-0.216797	0.755859	-0.862437	-0.731197	-0.403096	-0.152344	0.351563	0.410156	836	17_11_30_0219440
0.131836	-0.196289	0.747070	-0.862437	-0.731197	-0.412470	0.105469	0.726563	0.468750	837	17_11_30_0380730
0.134766	-0.210938	0.752930	-0.853063	-0.721823	-0.412470	-0.187500	0.351563	0.480469	838	17_11_30_0542020
0.134766	-0.208008	0.750000	-0.862437	-0.731197	-0.412470	-0.011719	0.738281	0.480469	839	17_11_30_0703310
0.137695	-0.208008	0.752930	-0.853063	-0.731197	-0.412470	-0.187500	0.375000	0.398438	840	17_11_30_0864600
0.140625	-0.208008	0.752930	-0.843689	-0.721823	-0.412470	-0.187500	0.363281	0.410156	841	17_11_30_1025890
0.140625	-0.208008	0.752930	-0.862437	-0.731197	-0.412470	-0.140625	0.398438	0.410156	842	17_11_30_1187180
0.111328	-0.213867	0.758789	-0.862437	-0.731197	-0.403096	-0.164063	0.375000	0.398438	843	17_11_30_1348470
0.140625	-0.202148	0.747070	-0.853063	-0.721823	-0.403096	-0.187500	0.375000	0.457031	844	17_11_30_1509760
0.131836	-0.208008	0.747070	-0.853063	-0.731197	-0.412470	-0.187500	0.375000	0.457031	845	17_11_30_1671050
0.131836	-0.216797	0.752930	-0.853063	-0.721823	-0.412470	-0.187500	0.375000	0.421875	846	17_11_30_1832340
0.140625	-0.208008	0.752930	-0.843689	-0.731197	-0.403096	-0.187500	0.375000	0.421875	847	17_11_30_1993630
0.143555	-0.210938	0.747070	-0.853063	-0.731197	-0.403096	-0.187500	0.363281	0.445313	848	17_11_30_2154920
0.125977	-0.205078	0.758789	-0.853063	-0.721823	-0.403096	-0.187500	0.351563	0.421875	849	17_11_30_2316210
0.131836	-0.205078	0.744141	-0.843689	-0.721823	-0.403096	-0.234375	0.375000	0.410156	850	17_11_30_2477500
0.134766	-0.205078	0.752930	-0.862437	-0.731197	-0.403096	-0.175781	0.550781	0.457031	851	17_11_30_2638790
0.134766	-0.208008	0.750000	-0.853063	-0.731197	-0.412470	-0.187500	0.363281	0.445313	852	17_11_30_2800080
0.146484	-0.205078	0.752930	-0.853063	-0.731197	-0.412470	-0.175781	0.351563	0.457031	853	17_11_30_2961370
0.140625	-0.210938	0.747070	-0.843689	-0.731197	-0.412470	-0.164063	0.363281	0.433594	854	17_11_30_3122660
0.137695	-0.208008	0.758789	-0.862437	-0.731197	-0.412470	-0.187500	0.351563	0.398438	855	17_11_30_3283950
0.137695	-0.205078	0.755859	-0.853063	-0.731197	-0.412470	-0.175781	0.375000	0.433594	856	17_11_30_3445240
0.131836	-0.210938	0.750000	-0.853063	-0.721823	-0.403096	-0.187500	0.375000	0.410156	857	17_11_30_3606530
0.134766	-0.208008	0.750000	-0.853063	-0.731197	-0.403096	-0.199219	0.375000	0.398438	858	17_11_30_3767820
0.123047	-0.205078	0.747070	-0.862437	-0.731197	-0.403096	0.011719	0.820313	0.539063	859	17_11_30_3929110
0.134766	-0.208008	0.752930	-0.853063	-0.731197	-0.412470	-0.175781	0.375000	0.457031	860	17_11_30_4090400
0.128906	-0.213867	0.747070	-0.853063	-0.731197	-0.403096	-0.164063	0.351563	0.375000	861	17_11_30_4251690
0.134766	-0.202148	0.752930	-0.843689	-0.731197	-0.412470	-0.187500	0.421875	0.492188	862	17_11_30_4412980
0.120117	-0.210938	0.758789	-0.853063	-0.731197	-0.403096	-0.175781	0.363281	0.457031	863	17_11_30_4574270
0.134766	-0.210938	0.750000	-0.862437	-0.731197	-0.403096	-0.199219	0.339844	0.363281	864	17_11_30_4735560
0.134766	-0.202148	0.744141	-0.853063	-0.731197	-0.412470	-0.187500	0.363281	0.445313	865	17_11_30_4896850
0.123047	-0.202148	0.750000	-0.843689	-0.731197	-0.403096	-0.187500	0.328125	0.468750	866	17_11_30_5058140
0.131836	-0.208008	0.750000	-0.862437	-0.731197	-0.403096	-0.175781	0.363281	0.457031	867	17_11_30_5219430
0.128906	-0.208008	0.747070	-0.853063	-0.731197	-0.403096	-0.164063	0.375000	0.515625	868	17_11_30_5380720
0.134766	-0.199219	0.750000	-0.853063	-0.731197	-0.412470	0.023438	0.773438	0.468750	869	17_11_30_5542010
0.134766	-0.213867	0.755859	-0.862437	-0.731197	-0.403096	0.000000	0.796875	0.457031	870	17_11_30_5703300
0.131836	-0.210938	0.755859	-0.853063	-0.731197	-0.403096	-0.187500	0.351563	0.480469	871	17_11_30_5864590
0.140625	-0.202148	0.752930	-0.853063	-0.731197	-0.412470	-0.187500	0.363281	0.468750	872	17_11_30_6025880
0.143555	-0.199219	0.747070	-0.853063	-0.731197	-0.403096	-0.152344	0.328125	0.457031	873	17_11_30_6187170
0.117188	-0.210938	0.752930	-0.862437	-0.721823	-0.403096	-0.105469	0.445313	0.457031	874	17_11_30_6348460
0.146484	-0.202148	0.747070	-0.853063	-0.721823	-0.412470	-0.140625	0.410156	0.468750	875	17_11_30_6509750
0.134766	-0.205078	0.758789	-0.862437	-0.731197	-0.412470	-0.187500	0.351563	0.433594	876	17_11_30_6671040
0.134766	-0.205078	0.752930	-0.871812	-0.731197	-0.403096	-0.035156	0.550781	0.433594	877	17_11_30_6832330
0.131836	-0.208008	0.747070	-0.843689	-0.731197	-0.403096	-0.199219	0.375000	0.433594	878	17_11_30_6993620
0.146484	-0.205078	0.741211	-0.862437	-0.731197	-0.403096	0.093750	0.726563	0.457031	879	17_11_30_7154910
0.134766	-0.202148	0.750000	-0.853063	-0.731197	-0.412470	-0.199219	0.351563	0.421875	880	17_11_30_7316200
0.134766	-0.213867	0.747070	-0.862437	-0.731197	-0.412470	-0.164063	0.410156	0.398438	881	17_11_30_7477490
0.146484	-0.208008	0.752930	-0.853063	-0.731197	-0.412470	-0.164063	0.351563	0.410156	882	17_11_30_7638780
0.128906	-0.199219	0.747070	-0.853063	-0.731197	-0.412470	-0.128906	0.457031	0.457031	883	17_11_30_7800070
0.131836	-0.199219	0.758789	-0.853063	-0.731197	-0.403096	-0.164063	0.363281	0.375000	884	17_11_30_7961360
0.128906	-0.205078	0.747070	-0.862437	-0.731197	-0.403096	-0.187500	0.351563	0.468750	885	17_11_30_8122650
0.134766	-0.199219	0.738281	-0.853063	-0.731197	-0.403096	-0.199219	0.375000	0.468750	886	17_11_30_8283940
0.128906	-0.208008	0.761719	-0.824940	-0.731197	-0.403096	-0.187500	0.375000	0.410156	887	17_11_30_8445230
0.134766	-0.208008	0.750000	-0.853063	-0.731197	-0.412470	-0.187500	0.375000	0.386719	888	17_11_30_8606520
0.143555	-0.213867	0.752930	-0.862437	-0.731197	-0.412470	-0.152344	0.375000	0.398438	889	17_11_30_8767810
0.125977	-0.205078	0.747070	-0.843689	-0.731197	-0.412470	-0.175781	0.351563	0.457031	890	17_11_30_8929100
0.134766	-0.216797	0.750000	-0.853063	-0.731197	-0.403096	-0.175781	0.339844	0.457031	891	17_11_30_9090390
0.134766	-0.202148	0.752930	-0.853063	-0.731197	-0.412470	-0.210938	0.304688	0.457031	892	17_11_30_9251680
0.131836	-0.205078	0.747070	-0.853063	-0.731197	-0.403096	-0.152344	0.375000	0.445313	893	17_11_30_9412970
0.131836	-0.208008	0.747070	-0.843689	-0.731197	-0.403096	-0.187500	0.363281	0.386719	894	17_11_30_9574260
0.143555	-0.213867	0.738281	-0.853063	-0.731197	-0.403096	-0.175781	0.351563	0.363281	895	17_11_30_9735550
0.140625	-0.208008	0.747070	-0.853063	-0.731197	-0.412470	-0.210938	0.375000	0.386719	896	17_11_30_9896840
0.128906	-0.208008	0.758789	-0.862437	-0.731197	-0.403096	-0.023438	0.585938	0.433594	897	17_11_31_0058130
0.128906	-0.199219	0.755859	-0.853063	-0.731197	-0.403096	-0.152344	0.386719	0.445313	898	17_11_31_0219420
0.131836	-0.205078	0.750000	-0.853063	-0.731197	-0.403096	-0.187500	0.375000	0.468750	899	17_11_31_0380710
0.120117	-0.199219	0.752930	-0.853063	-0.731197	-0.412470	-0.152344	0.351563	0.433594	900	17_11_31_0542000
0.114258	-0.199219	0.752930	-0.853063	-0.721823	-0.412470	-0.187500	0.328125	0.410156	901	17_11_31_0703290
0.125977	-0.208008	0.758789	-0.853063	-0.712448	-0.412470	-0.175781	0.363281	0.457031	902	17_11_31_0864580
0.117188	-0.199219	0.752930	-0.853063	-0.721823	-0.421844	-0.164063	0.351563	0.445313	903	17_11_31_1025870
0.125977	-0.208008	0.747070	-0.843689	-0.731197	-0.421844	-0.187500	0.375000	0.457031	904	17_11_31_1187160
0.120117	-0.205078	0.744141	-0.853063	-0.731197	-0.421844	-0.187500	0.386719	0.515625	905	17_11_31_1348450
0.123047	-0.202148	0.735352	-0.853063	-0.731197	-0.421844	-0.222656	0.351563	0.468750	906	17_11_31_1509740
0.123047	-0.213867	0.747070	-0.853063	-0.740571	-0.421844	-0.187500	0.328125	0.445313	907	17_11_31_1671030
0.134766	-0.208008	0.744141	-0.843689	-0.740571	-0.421844	-0.222656	0.351563	0.410156	908	17_11_31_1832320
0.128906	-0.196289	0.750000	-0.853063	-0.749946	-0.421844	-0.164063	0.375000	0.410156	909	17_11_31_1993610
0.131836	-0.202148	0.752930	-0.843689	-0.740571	-0.421844	-0.210938	0.363281	0.445313	910	17_11_31_2154900
0.134766	-0.208008	0.747070	-0.853063	-0.740571	-0.421844	0.035156	0.714844	0.433594	911	17_11_31_2316190
0.134766	-0.208008	0.758789	-0.853063	-0.740571	-0.421844	-0.187500	0.375000	0.410156	912	17_11_31_2477480
0.131836	-0.210938	0.761719	-0.853063	-0.731197	-0.421844	-0.152344	0.609375	0.410156	913	17_11_31_2638770
0.120117	-0.208008	0.764648	-0.853063	-0.731197	-0.421844	-0.187500	0.339844	0.433594	914	17_11_31_2800060
0.128906	-0.222656	0.758789	-0.843689	-0.731197	-0.431219	-0.152344	0.339844	0.433594	915	17_11_31_2961350
0.123047	-0.216797	0.758789	-0.853063	-0.731197	-0.431219	-0.187500	0.375000	0.468750	916	17_11_31_3122640
0.105469	-0.225586	0.752930	-0.853063	-0.731197	-0.440593	-0.187500	0.375000	0.492188	917	17_11_31_3283930
0.093750	-0.216797	0.761719	-0.853063	-0.740571	-0.440593	-0.152344	0.351563	0.457031	918	17_11_31_3445220
0.067383	-0.228516	0.779297	-0.853063	-0.768694	-0.440593	-0.187500	0.316406	0.445313	919	17_11_31_3606510
0.055664	-0.231445	0.796875	-0.853063	-0.796817	-0.459342	-0.175781	0.339844	0.433594	920	17_11_31_3767800
0.035156	-0.243164	0.832031	-0.843689	-0.834314	-0.459342	-0.187500	0.363281	0.445313	921	17_11_31_3929090
0.038086	-0.266602	0.855469	-0.843689	-0.862437	-0.468716	-0.164063	0.363281	0.421875	922	17_11_31_4090380
0.046875	-0.263672	0.875977	-0.862437	-0.899935	-0.496839	-0.187500	0.375000	0.398438	923	17_11_31_4251670
0.029297	-0.249023	0.873047	-0.881186	-0.956181	-0.506213	-0.199219	0.375000	0.457031	924	17_11_31_4412960
0.073242	-0.237305	0.890625	-0.890560	-1.012426	-0.468716	-0.199219	0.375000	0.457031	925	17_11_31_4574250
0.155273	-0.231445	0.840820	-0.899935	-1.049924	-0.421844	-0.199219	0.375000	0.410156	926	17_11_31_4735540
0.216797	-0.125977	0.714844	-0.899935	-1.031175	-0.403096	-0.199219	0.375000	0.468750	927	17_11_31_4896830
0.257813	-0.093750	0.650391	-0.881186	-0.974929	-0.403096	-0.187500	0.375000	0.515625	928	17_11_31_5058120
0.219727	-0.140625	0.662109	-0.890560	-0.909309	-0.421844	-0.046875	0.585938	0.480469	929	17_11_31_5219410
0.196289	-0.181641	0.670898	-0.890560	-0.918683	-0.421844	-0.187500	0.375000	0.433594	930	17_11_31_5380700
0.199219	-0.140625	0.653320	-0.899935	-0.946806	-0.403096	-0.222656	0.375000	0.421875	931	17_11_31_5541990
0.237305	-0.134766	0.647461	-0.899935	-0.956181	-0.403096	-0.023438	0.726563	0.457031	932	17_11_31_5703280
0.190430	-0.158203	0.641602	-0.871812	-0.974929	-0.412470	-0.164063	0.363281	0.480469	933	17_11_31_5864570
0.222656	-0.158203	0.638672	-0.853063	-1.012426	-0.393721	-0.199219	0.328125	0.503906	934	17_11_31_6025860
0.287109	-0.158203	0.635742	-0.843689	-1.040549	-0.393721	-0.234375	0.351563	0.515625	935	17_11_31_6187150
0.342773	-0.161133	0.659180	-0.843689	-1.012426	-0.384347	-0.246094	0.363281	0.457031	936	17_11_31_6348440
0.392578	-0.169922	0.682617	-0.834314	-0.984304	-0.384347	-0.152344	0.433594	0.457031	937	17_11_31_6509730
0.395508	-0.169922	0.697266	-0.806191	-0.956181	-0.384347	-0.269531	0.375000	0.503906	938	17_11_31_6671020
0.410156	-0.175781	0.694336	-0.806191	-0.937432	-0.374973	-0.234375	0.351563	0.480469	939	17_11_31_6832310
0.448242	-0.169922	0.688477	-0.806191	-0.899935	-0.365598	-0.246094	0.375000	0.457031	940	17_11_31_6993600
0.433594	-0.169922	0.703125	-0.796817	-0.853063	-0.365598	-0.269531	0.351563	0.480469	941	17_11_31_7154890
0.416016	-0.158203	0.700195	-0.796817	-0.806191	-0.393721	-0.035156	0.691406	0.527344	942	17_11_31_7316180
0.386719	-0.155273	0.691406	-0.768694	-0.768694	-0.365598	-0.257813	0.375000	0.433594	943	17_11_31_7477470
0.372070	-0.164063	0.673828	-0.768694	-0.740571	-0.384347	-0.210938	0.421875	0.433594	944	17_11_31_7638760
0.375000	-0.164063	0.688477	-0.740571	-0.703074	-0.393721	-0.246094	0.386719	0.421875	945	17_11_31_7800050
0.354492	-0.164063	0.670898	-0.721823	-0.684325	-0.393721	-0.257813	0.386719	0.433594	946	17_11_31_7961340
0.325195	-0.184570	0.647461	-0.712448	-0.674951	-0.384347	-0.281250	0.363281	0.433594	947	17_11_31_8122630
0.345703	-0.190430	0.726563	-0.731197	-0.656202	-0.374973	-0.269531	0.328125	0.410156	948	17_11_31_8283920
0.278320	-0.316406	0.840820	-0.778068	-0.609331	-0.393721	-0.246094	0.398438	0.433594	949	17_11_31_8445210
0.234375	-0.310547	0.911133	-0.824940	-0.618705	-0.412470	-0.070313	0.527344	0.480469	950	17_11_31_8606500
0.169922	-0.331055	1.001953	-0.843689	-0.590582	-0.449967	-0.269531	0.304688	0.421875	951	17_11_31_8767790
0.111328	-0.322266	0.937500	-0.862437	-0.656202	-0.478090	-0.058594	0.644531	0.492188	952	17_11_31_8929080
0.216797	-0.234375	0.823242	-0.871812	-0.731197	-0.468716	-0.234375	0.386719	0.457031	953	17_11_31_9090370
0.357422	-0.196289	0.738281	-0.862437	-0.731197	-0.459342	-0.257813	0.363281	0.445313	954	17_11_31_9251660
0.386719	-0.169922	0.647461	-0.862437	-0.674951	-0.449967	-0.257813	0.398438	0.410156	955	17_11_31_9412950
0.363281	-0.161133	0.612305	-0.853063	-0.656202	-0.431219	-0.269531	0.375000	0.386719	956	17_11_31_9574240
0.316406	-0.181641	0.618164	-0.853063	-0.637454	-0.431219	-0.210938	0.351563	0.410156	957	17_11_31_9735530
0.257813	-0.181641	0.682617	-0.843689	-0.637454	-0.440593	-0.257813	0.328125	0.410156	958	17_11_31_9896820
0.257813	-0.205078	0.785156	-0.843689	-0.656202	-0.459342	-0.257813	0.363281	0.398438	959	17_11_32_0058110
0.298828	-0.190430	0.829102	-0.806191	-0.628079	-0.478090	-0.105469	0.527344	0.445313	960	17_11_32_0219400
0.380859	-0.181641	0.817383	-0.740571	-0.609331	-0.478090	-0.257813	0.375000	0.433594	961	17_11_32_0380690
0.380859	-0.210938	0.770508	-0.721823	-0.562459	-0.478090	-0.246094	0.398438	0.433594	962	17_11_32_0541980
0.389648	-0.240234	0.682617	-0.749946	-0.553085	-0.459342	-0.222656	0.410156	0.445313	963	17_11_32_0703270
0.451172	-0.272461	0.714844	-0.768694	-0.562459	-0.421844	-0.234375	0.386719	0.457031	964	17_11_32_0864560
0.477539	-0.287109	0.770508	-0.740571	-0.543711	-0.403096	-0.210938	0.398438	0.445313	965	17_11_32_1025850
0.416016	-0.366211	0.758789	-0.731197	-0.524962	-0.365598	-0.210938	0.386719	0.433594	966	17_11_32_1187140
0.328125	-0.325195	0.750000	-0.712448	-0.543711	-0.337475	-0.234375	0.410156	0.421875	967	17_11_32_1348430
0.275391	-0.290039	0.744141	-0.731197	-0.562459	-0.299978	-0.257813	0.421875	0.410156	968	17_11_32_1509720
0.251953	-0.325195	0.750000	-0.693700	-0.562459	-0.299978	-0.199219	0.398438	0.445313	969	17_11_32_1671010
0.175781	-0.360352	0.764648	-0.693700	-0.543711	-0.299978	-0.234375	0.386719	0.457031	970	17_11_32_1832300
0.052734	-0.380859	0.741211	-0.693700	-0.524962	-0.299978	-0.187500	0.398438	0.492188	971	17_11_32_1993590
0.076172	-0.383789	0.738281	-0.703074	-0.543711	-0.309353	-0.246094	0.351563	0.457031	972	17_11_32_2154880
0.131836	-0.383789	0.738281	-0.703074	-0.524962	-0.337475	-0.199219	0.386719	0.410156	973	17_11_32_2316170
0.155273	-0.336914	0.758789	-0.674951	-0.524962	-0.356224	-0.082031	0.773438	0.480469	974	17_11_32_2477460
0.128906	-0.278320	0.732422	-0.665577	-0.543711	-0.346850	-0.222656	0.398438	0.468750	975	17_11_32_2638750
0.105469	-0.287109	0.717773	-0.656202	-0.581208	-0.328101	-0.234375	0.421875	0.457031	976	17_11_32_2800040
0.067383	-0.354492	0.708984	-0.637454	-0.628079	-0.337475	-0.210938	0.410156	0.457031	977	17_11_32_2961330
0.052734	-0.407227	0.711914	-0.637454	-0.693700	-0.356224	-0.128906	0.492188	0.457031	978	17_11_32_3122620
0.114258	-0.430664	0.714844	-0.628079	-0.731197	-0.365598	-0.117188	0.457031	0.492188	979	17_11_32_3283910
0.228516	-0.416016	0.711914	-0.628079	-0.731197	-0.356224	-0.187500	0.351563	0.457031	980	17_11_32_3445200
0.295898	-0.407227	0.717773	-0.618705	-0.703074	-0.346850	-0.222656	0.445313	0.410156	981	17_11_32_3606490
0.310547	-0.407227	0.703125	-0.628079	-0.656202	-0.318727	0.000000	0.621094	0.445313	982	17_11_32_3767780
0.366211	-0.418945	0.691406	-0.628079	-0.628079	-0.309353	-0.222656	0.339844	0.457031	983	17_11_32_3929070
0.360352	-0.427734	0.697266	-0.599956	-0.581208	-0.299978	-0.222656	0.386719	0.445313	984	17_11_32_4090360
0.322266	-0.442383	0.688477	-0.581208	-0.553085	-0.281230	-0.210938	0.457031	0.457031	985	17_11_32_4251650
0.272461	-0.457031	0.688477	-0.571833	-0.553085	-0.253107	-0.187500	0.421875	0.468750	986	17_11_32_4412940
0.237305	-0.477539	0.653320	-0.581208	-0.571833	-0.224984	-0.222656	0.468750	0.480469	987	17_11_32_4574230
0.240234	-0.486328	0.650391	-0.590582	-0.581208	-0.206235	-0.164063	0.527344	0.503906	988	17_11_32_4735520
0.249023	-0.486328	0.647461	-0.581208	-0.581208	-0.196861	-0.152344	0.457031	0.468750	989	17_11_32_4896810
0.240234	-0.486328	0.621094	-0.581208	-0.553085	-0.196861	-0.023438	0.585938	0.503906	990	17_11_32_5058100
0.205078	-0.503906	0.624023	-0.553085	-0.543711	-0.206235	-0.187500	0.398438	0.539063	991	17_11_32_5219390
0.199219	-0.506836	0.609375	-0.553085	-0.506213	-0.215609	-0.117188	0.503906	0.503906	992	17_11_32_5380680
0.146484	-0.509766	0.600586	-0.534336	-0.478090	-0.224984	-0.234375	0.398438	0.503906	993	17_11_32_5541970
0.096680	-0.527344	0.568359	-0.524962	-0.487465	-0.224984	-0.035156	0.726563	0.527344	994	17_11_32_5703260
0.099609	-0.539063	0.553711	-0.515588	-0.524962	-0.234358	-0.222656	0.398438	0.480469	995	17_11_32_5864550
0.102539	-0.533203	0.550781	-0.515588	-0.562459	-0.243732	-0.199219	0.351563	0.480469	996	17_11_32_6025840
0.128906	-0.533203	0.541992	-0.506213	-0.581208	-0.253107	-0.222656	0.421875	0.515625	997	17_11_32_6187130
0.120117	-0.541992	0.541992	-0.487465	-0.609331	-0.253107	-0.257813	0.445313	0.503906	998	17_11_32_6348420
0.146484	-0.533203	0.550781	-0.487465	-0.618705	-0.262481	-0.199219	0.433594	0.503906	999	17_11_32_6509710
0.134766	-0.518555	0.539063	-0.468716	-0.637454	-0.262481	-0.222656	0.433594	0.515625	1000	17_11_32_6671000
0.128906	-0.536133	0.503906	-0.449967	-0.646828	-0.271855	-0.152344	0.480469	0.527344	1001	17_11_32_6832290
0.096680	-0.550781	0.492188	-0.449967	-0.674951	-0.281230	-0.222656	0.445313	0.527344	1002	17_11_32_6993580
0.064453	-0.556641	0.489258	-0.431219	-0.684325	-0.290604	-0.199219	0.480469	0.527344	1003	17_11_32_7154870
0.067383	-0.539063	0.480469	-0.421844	-0.721823	-0.309353	-0.246094	0.398438	0.574219	1004	17_11_32_7316160
0.073242	-0.512695	0.471680	-0.431219	-0.740571	-0.318727	-0.210938	0.351563	0.574219	1005	17_11_32_7477450
0.093750	-0.506836	0.483398	-0.412470	-0.749946	-0.337475	-0.222656	0.351563	0.539063	1006	17_11_32_7638740
0.099609	-0.509766	0.486328	-0.431219	-0.731197	-0.365598	-0.234375	0.421875	0.539063	1007	17_11_32_7800030
0.120117	-0.506836	0.506836	-0.440593	-0.712448	-0.384347	-0.187500	0.480469	0.550781	1008	17_11_32_7961320
0.131836	-0.495117	0.492188	-0.431219	-0.693700	-0.393721	-0.210938	0.421875	0.550781	1009	17_11_32_8122610
0.137695	-0.480469	0.500977	-0.449967	-0.656202	-0.403096	-0.246094	0.445313	0.550781	1010	17_11_32_8283900
0.128906	-0.483398	0.489258	-0.459342	-0.628079	-0.431219	-0.210938	0.398438	0.562500	1011	17_11_32_8445190
0.076172	-0.483398	0.509766	-0.487465	-0.609331	-0.449967	-0.210938	0.410156	0.562500	1012	17_11_32_8606480
0.114258	-0.480469	0.477539	-0.478090	-0.628079	-0.449967	-0.187500	0.386719	0.562500	1013	17_11_32_8767770
0.213867	-0.477539	0.512695	-0.506213	-0.609331	-0.431219	-0.246094	0.410156	0.539063	1014	17_11_32_8929060
0.202148	-0.503906	0.483398	-0.515588	-0.581208	-0.440593	-0.210938	0.351563	0.550781	1015	17_11_32_9090350
0.210938	-0.515625	0.483398	-0.534336	-0.534336	-0.431219	-0.199219	0.398438	0.562500	1016	17_11_32_9251640
0.205078	-0.527344	0.465820	-0.562459	-0.487465	-0.440593	-0.210938	0.316406	0.574219	1017	17_11_32_9412930
0.149414	-0.553711	0.439453	-0.581208	-0.506213	-0.440593	-0.199219	0.375000	0.585938	1018	17_11_32_9574220
0.158203	-0.574219	0.413086	-0.581208	-0.543711	-0.440593	-0.269531	0.433594	0.609375	1019	17_11_32_9735510
0.143555	-0.618164	0.369141	-0.590582	-0.543711	-0.431219	-0.210938	0.410156	0.609375	1020	17_11_32_9896800
0.152344	-0.632813	0.298828	-0.599956	-0.543711	-0.431219	-0.199219	0.410156	0.597656	1021	17_11_33_0058090
0.117188	-0.650391	0.287109	-0.618705	-0.524962	-0.449967	-0.199219	0.386719	0.597656	1022	17_11_33_0219380
0.038086	-0.685547	0.246094	-0.618705	-0.543711	-0.449967	-0.222656	0.398438	0.621094	1023	17_11_33_0380670
0.041016	-0.703125	0.213867	-0.637454	-0.599956	-0.449967	-0.199219	0.375000	0.609375	1024	17_11_33_0541960
0.055664	-0.732422	0.202148	-0.609331	-0.665577	-0.459342	-0.222656	0.351563	0.597656	1025	17_11_33_0703250
0.108398	-0.747070	0.164063	-0.599956	-0.703074	-0.459342	-0.199219	0.339844	0.621094	1026	17_11_33_0864540
0.155273	-0.761719	0.140625	-0.590582	-0.693700	-0.449967	-0.164063	0.609375	0.738281	1027	17_11_33_1025830
0.216797	-0.755859	0.137695	-0.599956	-0.693700	-0.449967	-0.199219	0.410156	0.609375	1028	17_11_33_1187120
0.228516	-0.773438	0.125977	-0.590582	-0.665577	-0.440593	-0.187500	0.398438	0.621094	1029	17_11_33_1348410
0.216797	-0.764648	0.120117	-0.581208	-0.656202	-0.421844	-0.222656	0.386719	0.632813	1030	17_11_33_1509700
0.219727	-0.776367	0.087891	-0.562459	-0.609331	-0.421844	-0.222656	0.398438	0.632813	1031	17_11_33_1670990
0.187500	-0.770508	0.079102	-0.553085	-0.590582	-0.412470	-0.222656	0.375000	0.656250	1032	17_11_33_1832280
0.178711	-0.747070	0.079102	-0.534336	-0.581208	-0.403096	-0.222656	0.398438	0.667969	1033	17_11_33_1993570
0.128906	-0.714844	0.096680	-0.543711	-0.562459	-0.393721	-0.210938	0.433594	0.679688	1034	17_11_33_2154860
0.076172	-0.706055	0.082031	-0.524962	-0.515588	-0.412470	-0.222656	0.363281	0.703125	1035	17_11_33_2316150
0.011719	-0.706055	0.105469	-0.524962	-0.543711	-0.421844	-0.175781	0.421875	0.703125	1036	17_11_33_2477440
0.008789	-0.685547	0.152344	-0.515588	-0.590582	-0.412470	-0.210938	0.468750	0.667969	1037	17_11_33_2638730
0.005859	-0.685547	0.143555	-0.496839	-0.628079	-0.403096	-0.222656	0.421875	0.656250	1038	17_11_33_2800020
0.046875	-0.650391	0.175781	-0.506213	-0.656202	-0.412470	-0.199219	0.410156	0.656250	1039	17_11_33_2961310
0.064453	-0.667969	0.202148	-0.506213	-0.646828	-0.421844	-0.199219	0.375000	0.679688	1040	17_11_33_3122600
0.032227	-0.676758	0.193359	-0.515588	-0.637454	-0.440593	-0.222656	0.398438	0.691406	1041	17_11_33_3283890
0.084961	-0.673828	0.210938	-0.515588	-0.628079	-0.431219	-0.164063	0.480469	0.691406	1042	17_11_33_3445180
0.131836	-0.761719	0.193359	-0.515588	-0.590582	-0.421844	-0.222656	0.433594	0.679688	1043	17_11_33_3606470
0.125977	-0.673828	0.161133	-0.534336	-0.562459	-0.421844	-0.222656	0.445313	0.714844	1044	17_11_33_3767760
0.137695	-0.673828	0.134766	-0.524962	-0.524962	-0.412470	-0.199219	0.445313	0.738281	1045	17_11_33_3929050
0.108398	-0.676758	0.102539	-0.524962	-0.506213	-0.412470	-0.234375	0.410156	0.761719	1046	17_11_33_4090340
0.117188	-0.703125	0.108398	-0.524962	-0.506213	-0.412470	-0.199219	0.398438	0.785156	1047	17_11_33_4251630
0.052734	-0.729492	0.090820	-0.515588	-0.468716	-0.403096	-0.234375	0.445313	0.761719	1048	17_11_33_4412920
0.108398	-0.723633	0.114258	-0.506213	-0.487465	-0.384347	-0.222656	0.445313	0.726563	1049	17_11_33_4574210
0.131836	-0.717773	0.102539	-0.534336	-0.506213	-0.393721	-0.234375	0.492188	0.761719	1050	17_11_33_4735500
0.146484	-0.779297	0.064453	-0.543711	-0.487465	-0.384347	-0.210938	0.386719	0.773438	1051	17_11_33_4896790
0.140625	-0.723633	0.061523	-0.543711	-0.506213	-0.403096	-0.128906	0.527344	0.785156	1052	17_11_33_5058080
0.152344	-0.726563	0.008789	-0.534336	-0.478090	-0.403096	-0.234375	0.468750	0.820313	1053	17_11_33_5219370
0.125977	-0.747070	0.000000	-0.543711	-0.496839	-0.412470	-0.210938	0.468750	0.796875	1054	17_11_33_5380660
0.152344	-0.747070	0.038086	-0.581208	-0.524962	-0.403096	-0.246094	0.457031	0.796875	1055	17_11_33_5541950
0.146484	-0.720703	0.017578	-0.599956	-0.515588	-0.393721	-0.257813	0.492188	0.796875	1056	17_11_33_5703240
0.143555	-0.723633	0.035156	-0.618705	-0.543711	-0.403096	-0.269531	0.445313	0.773438	1057	17_11_33_5864530
0.187500	-0.732422	0.067383	-0.637454	-0.543711	-0.393721	-0.222656	0.410156	0.796875	1058	17_11_33_6025820
0.158203	-0.773438	0.149414	-0.684325	-0.534336	-0.393721	-0.269531	0.515625	0.843750	1059	17_11_33_6187110
0.117188	-0.958008	0.266602	-0.703074	-0.524962	-0.412470	-0.257813	0.339844	0.796875	1060	17_11_33_6348400
0.208008	-1.010742	0.416016	-0.806191	-0.524962	-0.393721	-0.234375	0.386719	0.785156	1061	17_11_33_6509690
0.348633	-0.981445	0.577148	-0.965555	-0.431219	-0.328101	-0.269531	0.398438	0.761719	1062	17_11_33_6670980
0.498047	-1.031250	0.691406	-1.199913	-0.346850	-0.309353	-0.257813	0.386719	0.773438	1063	17_11_33_6832270
0.644531	-0.925781	0.717773	-1.518640	-0.290604	-0.271855	-0.234375	0.398438	0.808594	1064	17_11_33_6993560
0.547852	-0.741211	0.486328	-1.565511	-0.243732	-0.215609	-0.281250	0.339844	0.785156	1065	17_11_33_7154850
0.354492	-0.840820	0.222656	-1.453019	-0.187486	-0.234358	-0.269531	0.398438	0.796875	1066	17_11_33_7316140
0.307617	-0.996094	-0.014648	-1.396774	-0.056246	-0.337475	-0.269531	0.398438	0.761719	1067	17_11_33_7477430
0.333984	-1.207031	-0.272461	-1.462394	0.009374	-0.421844	-0.292969	0.445313	0.738281	1068	17_11_33_7638720
0.164063	-1.212891	-0.515625	-1.631132	-0.159363	-0.459342	-0.281250	0.667969	0.820313	1069	17_11_33_7800010
0.105469	-1.136719	-0.571289	-1.790495	-0.459342	-0.384347	-0.316406	0.398438	0.738281	1070	17_11_33_7961300
0.287109	-1.004883	-0.372070	-1.893613	-0.646828	-0.299978	-0.269531	0.433594	0.703125	1071	17_11_33_8122590
0.375000	-0.840820	-0.187500	-1.856115	-0.646828	-0.271855	-0.199219	0.492188	0.691406	1072	17_11_33_8283880
0.363281	-0.788086	-0.120117	-1.762372	-0.562459	-0.281230	-0.328125	0.410156	0.667969	1073	17_11_33_8445170
0.243164	-0.735352	-0.161133	-1.631132	-0.496839	-0.281230	-0.304688	0.445313	0.656250	1074	17_11_33_8606460
0.210938	-0.685547	-0.213867	-1.499891	-0.506213	-0.271855	-0.292969	0.445313	0.632813	1075	17_11_33_8767750
0.199219	-0.585938	-0.249023	-1.406148	-0.553085	-0.290604	-0.257813	0.410156	0.621094	1076	17_11_33_8929040
0.193359	-0.536133	-0.251953	-1.331153	-0.609331	-0.309353	-0.304688	0.363281	0.609375	1077	17_11_33_9090330
0.164063	-0.483398	-0.260742	-1.237410	-0.656202	-0.337475	-0.304688	0.445313	0.609375	1078	17_11_33_9251620
0.169922	-0.454102	-0.269531	-1.143667	-0.703074	-0.365598	-0.292969	0.386719	0.597656	1079	17_11_33_9412910
0.196289	-0.424805	-0.266602	-1.040549	-0.721823	-0.384347	-0.257813	0.585938	0.691406	1080	17_11_33_9574200
0.240234	-0.427734	-0.254883	-0.937432	-0.703074	-0.393721	-0.316406	0.445313	0.597656	1081	17_11_33_9735490
0.298828	-0.459961	-0.225586	-0.918683	-0.656202	-0.403096	-0.269531	0.421875	0.597656	1082	17_11_33_9896780
0.325195	-0.454102	-0.193359	-0.928058	-0.553085	-0.431219	-0.304688	0.386719	0.597656	1083	17_11_34_0058070
0.331055	-0.413086	-0.146484	-0.946806	-0.412470	-0.478090	-0.269531	0.351563	0.585938	1084	17_11_34_0219360
0.398438	-0.445313	-0.082031	-0.937432	-0.215609	-0.515588	-0.316406	0.398438	0.609375	1085	17_11_34_0380650
0.418945	-0.580078	0.032227	-0.918683	0.000000	-0.543711	-0.269531	0.433594	0.597656	1086	17_11_34_0541940
0.290039	-0.711914	0.125977	-0.881186	0.149989	-0.590582	-0.292969	0.351563	0.574219	1087	17_11_34_0703230
0.070313	-0.650391	0.190430	-0.731197	0.206235	-0.590582	-0.269531	0.375000	0.574219	1088	17_11_34_0864520
-0.093750	-0.650391	0.448242	-0.562459	0.281230	-0.618705	-0.269531	0.433594	0.585938	1089	17_11_34_1025810
-0.328125	-0.735352	0.697266	-0.553085	0.215609	-0.759320	-0.281250	0.410156	0.574219	1090	17_11_34_1187100
-0.500977	-0.609375	0.711914	-0.496839	-0.290604	-0.731197	-0.246094	0.398438	0.574219	1091	17_11_34_1348390
-0.281250	-0.802734	0.626953	-0.440593	-0.974929	-0.496839	-0.281250	0.468750	0.597656	1092	17_11_34_1509680
0.084961	-0.826172	0.471680	-0.693700	-1.293656	-0.206235	-0.257813	0.433594	0.585938	1093	17_11_34_1670970
0.260742	-0.679688	0.143555	-0.778068	-1.574886	-0.187486	-0.257813	0.398438	0.574219	1094	17_11_34_1832260
0.401367	-1.113281	0.043945	-0.478090	-1.659254	-0.346850	-0.257813	0.433594	0.609375	1095	17_11_34_1993550
1.347656	-1.497070	0.161133	-0.524962	-1.293656	-0.299978	-0.105469	0.550781	0.656250	1096	17_11_34_2154840
0.840820	-1.075195	0.518555	-1.143667	-0.759320	-0.337475	-0.292969	0.457031	0.597656	1097	17_11_34_2316130
-0.131836	-0.550781	0.594727	-0.956181	-0.749946	-0.496839	-0.269531	0.433594	0.597656	1098	17_11_34_2477420
-0.395508	0.005859	-0.208008	-0.328101	-0.918683	-0.637454	-0.304688	0.445313	0.585938	1099	17_11_34_2638710
0.357422	-0.708984	-0.717773	-0.393721	-0.543711	-0.609331	-0.281250	0.468750	0.597656	1100	17_11_34_2800000
0.544922	-0.814453	-0.181641	-0.834314	-0.271855	-0.609331	-0.234375	0.386719	0.597656	1101	17_11_34_2961290
0.213867	-0.521484	-0.161133	-0.543711	-0.009374	-0.571833	-0.269531	0.328125	0.585938	1102	17_11_34_3122580
-0.292969	-0.638672	-0.295898	-0.337475	-0.159363	-0.487465	-0.246094	0.386719	0.621094	1103	17_11_34_3283870
-0.383789	-0.735352	-0.316406	-0.318727	-0.534336	-0.403096	-0.222656	0.398438	0.656250	1104	17_11_34_3445160
-0.111328	-0.682617	-0.202148	-0.393721	-0.824940	-0.346850	-0.269531	0.398438	0.656250	1105	17_11_34_3606450
0.090820	-0.641602	-0.102539	-0.328101	-0.918683	-0.384347	-0.269531	0.375000	0.644531	1106	17_11_34_3767740
0.246094	-0.685547	-0.058594	-0.299978	-0.759320	-0.431219	-0.246094	0.445313	0.644531	1107	17_11_34_3929030
0.298828	-0.662109	0.011719	-0.318727	-0.506213	-0.449967	-0.246094	0.480469	0.691406	1108	17_11_34_4090320
0.301758	-0.580078	0.143555	-0.224984	-0.356224	-0.459342	-0.246094	0.433594	0.691406	1109	17_11_34_4251610
0.313477	-0.591797	0.266602	-0.056246	-0.384347	-0.487465	-0.199219	0.492188	0.691406	1110	17_11_34_4412900
0.295898	-0.773438	0.301758	-0.009374	-0.365598	-0.543711	-0.187500	0.515625	0.656250	1111	17_11_34_4574190
0.108398	-1.001953	0.187500	-0.196861	-0.318727	-0.562459	-0.246094	0.421875	0.726563	1112	17_11_34_4735480
-0.184570	-1.031250	0.002930	-0.599956	-0.459342	-0.571833	-0.246094	0.386719	0.703125	1113	17_11_34_4896770
-0.205078	-0.770508	-0.076172	-0.806191	-0.637454	-0.562459	-0.257813	0.445313	0.714844	1114	17_11_34_5058060
-0.035156	-0.629883	-0.082031	-0.693700	-0.712448	-0.496839	-0.246094	0.445313	0.667969	1115	17_11_34_5219350
0.087891	-0.571289	-0.149414	-0.581208	-0.637454	-0.431219	-0.234375	0.457031	0.679688	1116	17_11_34_5380640
0.146484	-0.580078	-0.275391	-0.543711	-0.515588	-0.403096	-0.257813	0.457031	0.691406	1117	17_11_34_5541930
0.172852	-0.656250	-0.333984	-0.590582	-0.534336	-0.421844	-0.234375	0.445313	0.691406	1118	17_11_34_5703220
0.199219	-0.659180	-0.257813	-0.674951	-0.618705	-0.459342	-0.234375	0.421875	0.691406	1119	17_11_34_5864510
