sensor_ID	2796
Accel_X	Accel_Y	Accel_Z	Roll	Pitch	Yaw	Mag_X	Mag_Y	Mag_Z	Count	SysTime
0.878658	0.380261	0.295236	-0.007531	-0.004707	-0.005962	-0.821777	-0.647217	-0.293457	0	17_29_10_7520000
0.878658	0.380261	0.295236	-0.000941	0.002824	-0.000628	-0.821777	-0.647217	-0.293457	1	17_29_10_7600000
0.878658	0.380261	0.295236	-0.002824	0.002196	-0.012551	-0.821777	-0.647217	-0.293457	2	17_29_10_7680000
0.878445	0.380261	0.295450	-0.012865	0.008786	-0.009099	-0.821777	-0.647217	-0.293579	3	17_29_10_7760000
0.878445	0.380261	0.295450	-0.007844	0.003138	0.006275	-0.821655	-0.647217	-0.293701	4	17_29_10_7840000
0.878445	0.380261	0.295450	0.003138	-0.002510	-0.003138	-0.821655	-0.647217	-0.293701	5	17_29_10_7920000
0.878445	0.380261	0.295450	-0.006903	-0.001255	-0.003138	-0.821655	-0.647217	-0.293701	6	17_29_10_8000000
0.878445	0.380261	0.295450	-0.023219	-0.000628	-0.000628	-0.821655	-0.647217	-0.293701	7	17_29_10_8080000
0.878445	0.380047	0.295663	-0.020709	0.000314	0.007217	-0.821777	-0.647095	-0.293823	8	17_29_10_8160000
0.878445	0.380047	0.295663	0.000314	0.006589	-0.001255	-0.821777	-0.647095	-0.293823	9	17_29_10_8240000
0.878445	0.380047	0.295663	-0.007844	-0.000628	0.008158	-0.821777	-0.647095	-0.293945	10	17_29_10_8320000
0.878445	0.380047	0.295663	-0.017885	-0.002824	0.003765	-0.821777	-0.646973	-0.293945	11	17_29_10_8400000
0.878445	0.379833	0.295663	-0.009413	-0.019140	-0.000628	-0.821777	-0.646973	-0.293945	12	17_29_10_8480000
0.878658	0.379833	0.295663	-0.006275	-0.013806	0.003452	-0.821899	-0.646851	-0.293823	13	17_29_10_8560000
0.878658	0.379833	0.295663	-0.001883	0.003765	0.003138	-0.821899	-0.646851	-0.293823	14	17_29_10_8640000
0.878658	0.379833	0.295663	0.001569	0.010668	-0.005020	-0.821899	-0.646851	-0.293945	15	17_29_10_8720000
0.878658	0.379833	0.295663	0.007217	-0.003452	0.004393	-0.821899	-0.646851	-0.293823	16	17_29_10_8800000
0.878658	0.379833	0.295663	0.011610	-0.009413	0.006589	-0.821899	-0.646851	-0.293823	17	17_29_10_8880000
0.878658	0.379833	0.295450	0.003765	-0.008472	0.009727	-0.822021	-0.646851	-0.293701	18	17_29_10_8960000
0.878658	0.379833	0.295450	0.007844	-0.010982	0.003138	-0.822021	-0.646729	-0.293579	19	17_29_10_9040000
0.878658	0.379620	0.295450	-0.000628	-0.005020	0.008472	-0.822144	-0.646729	-0.293457	20	17_29_10_9120000
0.878658	0.379620	0.295450	-0.013492	0.002824	0.005334	-0.822144	-0.646729	-0.293579	21	17_29_10_9200000
0.878658	0.379620	0.295450	0.007844	-0.003452	-0.004393	-0.822144	-0.646729	-0.293579	22	17_29_10_9280000
0.878658	0.379620	0.295450	-0.002196	0.005334	-0.008158	-0.822144	-0.646729	-0.293457	23	17_29_10_9360000
0.878658	0.379620	0.295450	-0.011296	0.010982	0.003138	-0.822144	-0.646729	-0.293579	24	17_29_10_9440000
0.878658	0.379620	0.295663	-0.013179	0.010355	-0.007531	-0.822144	-0.646729	-0.293701	25	17_29_10_9520000
0.878658	0.379620	0.295663	-0.003765	-0.002824	-0.006275	-0.822021	-0.646729	-0.293823	26	17_29_10_9600000
0.878658	0.379620	0.295663	-0.008786	-0.009727	-0.005962	-0.822021	-0.646729	-0.293701	27	17_29_10_9680000
0.878658	0.379620	0.295663	-0.003138	-0.008472	0.002196	-0.822021	-0.646729	-0.293701	28	17_29_10_9760000
0.878658	0.379620	0.295663	-0.002510	0.007844	-0.007844	-0.822021	-0.646729	-0.293701	29	17_29_10_9840000
0.878658	0.379833	0.295663	0.003138	-0.005334	-0.009099	-0.822021	-0.646729	-0.293701	30	17_29_10_9920000
0.878658	0.379833	0.295663	0.019454	-0.001569	-0.007531	-0.822021	-0.646851	-0.293701	31	17_29_11_0000000
0.878658	0.379833	0.295663	0.002196	0.010982	-0.009099	-0.821899	-0.646973	-0.293579	32	17_29_11_0080000
0.878445	0.379833	0.295663	-0.018826	-0.009727	-0.008786	-0.821899	-0.646973	-0.293701	33	17_29_11_0160000
0.878445	0.380047	0.295663	-0.022906	-0.017885	-0.010355	-0.821899	-0.646973	-0.293701	34	17_29_11_0240000
0.878445	0.380047	0.295663	-0.009099	-0.010982	-0.008472	-0.821899	-0.646973	-0.293579	35	17_29_11_0320000
0.878658	0.380047	0.295663	-0.007217	-0.013806	0.005962	-0.821899	-0.646973	-0.293579	36	17_29_11_0400000
0.878658	0.379833	0.295663	-0.008158	-0.002824	0.000000	-0.821899	-0.646973	-0.293579	37	17_29_11_0480000
0.878658	0.379833	0.295663	-0.005334	-0.002196	0.008158	-0.822021	-0.646851	-0.293579	38	17_29_11_0560000
0.878658	0.379833	0.295663	-0.016316	-0.007531	0.003765	-0.822021	-0.646851	-0.293579	39	17_29_11_0640000
0.878658	0.379833	0.295663	-0.014747	-0.001569	0.002196	-0.822021	-0.646729	-0.293579	40	17_29_11_0720000
0.878658	0.379620	0.295663	-0.004707	-0.006903	0.004707	-0.822021	-0.646729	-0.293701	41	17_29_11_0800000
0.878658	0.379620	0.295663	-0.005962	-0.008786	0.005334	-0.822144	-0.646606	-0.293579	42	17_29_11_0880000
0.878658	0.379620	0.295663	-0.006903	0.001569	-0.002510	-0.822144	-0.646606	-0.293579	43	17_29_11_0960000
0.878658	0.379620	0.295663	0.006589	0.003452	-0.014434	-0.822144	-0.646729	-0.293579	44	17_29_11_1040000
0.878658	0.379833	0.295663	0.001255	-0.003452	-0.007217	-0.822021	-0.646729	-0.293579	45	17_29_11_1120000
0.878658	0.379833	0.295663	-0.009099	0.003138	-0.004393	-0.822021	-0.646729	-0.293579	46	17_29_11_1200000
0.878658	0.379833	0.295663	-0.002824	-0.004707	-0.004707	-0.822021	-0.646851	-0.293579	47	17_29_11_1280000
0.878658	0.379833	0.295663	0.002196	0.002510	-0.005962	-0.822021	-0.646851	-0.293579	48	17_29_11_1360000
0.878658	0.379833	0.295663	0.007217	0.006589	-0.002510	-0.822021	-0.646851	-0.293579	49	17_29_11_1440000
0.878658	0.379833	0.295663	0.006589	0.003765	0.001569	-0.822021	-0.646851	-0.293579	50	17_29_11_1520000
0.878658	0.379833	0.295663	-0.012237	-0.011610	0.001255	-0.822021	-0.646851	-0.293579	51	17_29_11_1600000
0.878658	0.379833	0.295663	-0.017885	-0.004393	0.002196	-0.822021	-0.646851	-0.293579	52	17_29_11_1680000
0.878658	0.379620	0.295663	-0.003452	-0.003452	0.012237	-0.822021	-0.646729	-0.293579	53	17_29_11_1760000
0.878658	0.379620	0.295663	-0.017258	0.007217	-0.004079	-0.822144	-0.646729	-0.293701	54	17_29_11_1840000
0.878658	0.379620	0.295877	-0.003452	-0.004393	-0.004393	-0.822021	-0.646729	-0.293701	55	17_29_11_1920000
0.878658	0.379620	0.295663	0.013806	-0.016316	0.002196	-0.822144	-0.646729	-0.293579	56	17_29_11_2000000
0.878658	0.379620	0.295663	0.008158	-0.003765	0.005648	-0.822144	-0.646729	-0.293457	57	17_29_11_2080000
0.878658	0.379620	0.295663	0.005648	0.001255	0.004393	-0.822144	-0.646729	-0.293457	58	17_29_11_2160000
0.878658	0.379620	0.295663	-0.006275	0.003138	-0.008472	-0.822144	-0.646729	-0.293457	59	17_29_11_2240000
0.878658	0.379620	0.295663	-0.004707	0.007217	-0.006275	-0.822144	-0.646729	-0.293457	60	17_29_11_2320000
0.878658	0.379620	0.295663	-0.008472	-0.013806	-0.003138	-0.822144	-0.646729	-0.293457	61	17_29_11_2400000
0.878658	0.379620	0.295663	0.006903	-0.001883	-0.008158	-0.822144	-0.646729	-0.293457	62	17_29_11_2480000
0.878658	0.379833	0.295663	-0.000314	-0.005020	-0.006589	-0.822144	-0.646851	-0.293457	63	17_29_11_2560000
0.878658	0.379833	0.295663	0.009099	-0.010355	0.002196	-0.822144	-0.646851	-0.293335	64	17_29_11_2640000
0.878658	0.379833	0.295450	-0.009727	-0.007531	0.001569	-0.822144	-0.646851	-0.293213	65	17_29_11_2720000
0.878658	0.379620	0.295663	-0.017571	0.000628	0.002196	-0.822144	-0.646729	-0.293335	66	17_29_11_2800000
0.878658	0.379620	0.295663	0.003765	-0.004393	0.001569	-0.822144	-0.646729	-0.293335	67	17_29_11_2880000
0.878658	0.379620	0.295450	0.006589	-0.002510	0.010982	-0.822266	-0.646729	-0.293213	68	17_29_11_2960000
0.878658	0.379620	0.295450	0.009099	-0.006903	-0.005334	-0.822266	-0.646729	-0.293213	69	17_29_11_3040000
0.878658	0.379620	0.295450	-0.002824	-0.007217	-0.002824	-0.822266	-0.646729	-0.293091	70	17_29_11_3120000
0.878658	0.379620	0.295450	0.005648	-0.000314	0.007217	-0.822266	-0.646729	-0.293091	71	17_29_11_3200000
0.878658	0.379620	0.295450	0.000314	-0.001569	-0.005020	-0.822266	-0.646729	-0.293091	72	17_29_11_3280000
0.878658	0.379620	0.295450	0.000941	-0.000314	-0.003138	-0.822266	-0.646729	-0.292969	73	17_29_11_3360000
0.878658	0.379620	0.295450	-0.009727	0.001255	-0.002510	-0.822266	-0.646729	-0.293091	74	17_29_11_3440000
0.878658	0.379620	0.295450	-0.003138	0.002510	-0.007531	-0.822266	-0.646729	-0.293091	75	17_29_11_3520000
0.878658	0.379620	0.295450	-0.007217	0.002510	-0.000941	-0.822266	-0.646729	-0.293091	76	17_29_11_3600000
0.878658	0.379620	0.295450	-0.003138	-0.007844	-0.004707	-0.822266	-0.646729	-0.293091	77	17_29_11_3680000
0.878658	0.379620	0.295663	0.010982	0.013806	0.007217	-0.822266	-0.646729	-0.293091	78	17_29_11_3760000
0.878658	0.379620	0.295663	0.014120	0.008158	0.001569	-0.822266	-0.646729	-0.293091	79	17_29_11_3840000
0.878658	0.379620	0.295663	0.010041	0.002824	0.003452	-0.822266	-0.646729	-0.293091	80	17_29_11_3920000
0.878658	0.379620	0.295663	0.003765	-0.002824	-0.004393	-0.822266	-0.646729	-0.292969	81	17_29_11_4000000
0.878658	0.379620	0.295663	-0.008786	0.002510	-0.004393	-0.822266	-0.646851	-0.292969	82	17_29_11_4080000
0.878658	0.379620	0.295663	-0.022592	-0.000941	-0.004393	-0.822266	-0.646851	-0.293091	83	17_29_11_4160000
0.878658	0.379620	0.295663	-0.007844	-0.008472	0.001883	-0.822266	-0.646729	-0.293091	84	17_29_11_4240000
0.878658	0.379620	0.295663	-0.006903	-0.005020	-0.008786	-0.822266	-0.646729	-0.293091	85	17_29_11_4320000
0.878658	0.379620	0.295663	-0.016316	-0.005648	-0.005962	-0.822266	-0.646729	-0.293091	86	17_29_11_4400000
0.878658	0.379620	0.295663	-0.015689	-0.004393	-0.004393	-0.822144	-0.646729	-0.293213	87	17_29_11_4480000
0.878658	0.379620	0.295663	0.002510	-0.004079	0.005334	-0.822266	-0.646729	-0.293213	88	17_29_11_4560000
0.878658	0.379620	0.295663	-0.007217	-0.001255	-0.001883	-0.822266	-0.646729	-0.293213	89	17_29_11_4640000
0.878658	0.379620	0.295877	-0.008472	0.009099	0.002196	-0.822266	-0.646729	-0.293213	90	17_29_11_4720000
0.878658	0.379620	0.295877	-0.018199	-0.001569	0.000314	-0.822266	-0.646729	-0.293335	91	17_29_11_4800000
0.878658	0.379406	0.295877	-0.007531	-0.001255	0.002196	-0.822266	-0.646606	-0.293335	92	17_29_11_4880000
0.878658	0.379406	0.295877	-0.001883	0.000941	0.005020	-0.822266	-0.646606	-0.293335	93	17_29_11_4960000
0.878658	0.379406	0.295877	0.001883	-0.001255	0.003765	-0.822266	-0.646606	-0.293335	94	17_29_11_5040000
0.878658	0.379406	0.295877	-0.008786	-0.006589	-0.006903	-0.822266	-0.646606	-0.293335	95	17_29_11_5120000
0.878658	0.379406	0.295877	-0.009727	0.000000	0.004393	-0.822266	-0.646484	-0.293335	96	17_29_11_5200000
0.878658	0.379406	0.295877	-0.012551	-0.002196	0.005962	-0.822388	-0.646484	-0.293457	97	17_29_11_5280000
0.878658	0.379406	0.295877	-0.001883	-0.009413	-0.010041	-0.822388	-0.646484	-0.293335	98	17_29_11_5360000
0.878658	0.379406	0.295877	-0.007531	0.004707	-0.006903	-0.822388	-0.646484	-0.293335	99	17_29_11_5440000
0.878658	0.379406	0.296091	-0.013179	0.013806	-0.004079	-0.822266	-0.646484	-0.293457	100	17_29_11_5520000
0.878658	0.379406	0.296091	-0.019768	0.006903	0.009727	-0.822266	-0.646484	-0.293579	101	17_29_11_5600000
0.878658	0.379192	0.296304	-0.010668	-0.004079	0.006275	-0.822266	-0.646362	-0.293701	102	17_29_11_5680000
0.878658	0.379192	0.296304	-0.016003	0.006903	-0.000628	-0.822388	-0.646362	-0.293823	103	17_29_11_5760000
0.878658	0.379192	0.296304	-0.013179	0.008158	0.003138	-0.822388	-0.646240	-0.293945	104	17_29_11_5840000
0.878658	0.379192	0.296518	-0.011923	0.000000	-0.006589	-0.822388	-0.646240	-0.293945	105	17_29_11_5920000
0.878658	0.379192	0.296518	-0.007844	0.006589	-0.008158	-0.822266	-0.646240	-0.294067	106	17_29_11_6000000
0.878658	0.379192	0.296518	0.012551	0.005648	0.002196	-0.822266	-0.646240	-0.294067	107	17_29_11_6080000
0.878658	0.379192	0.296518	0.007217	-0.005334	-0.001883	-0.822266	-0.646362	-0.293945	108	17_29_11_6160000
0.878658	0.379192	0.296518	-0.006275	-0.002510	-0.002510	-0.822266	-0.646362	-0.293945	109	17_29_11_6240000
0.878658	0.379192	0.296518	0.004079	-0.006589	-0.005962	-0.822266	-0.646362	-0.293945	110	17_29_11_6320000
0.878658	0.379192	0.296518	0.011923	0.004079	-0.001883	-0.822266	-0.646362	-0.293823	111	17_29_11_6400000
0.878445	0.379192	0.296518	-0.001255	0.009413	0.001255	-0.822266	-0.646362	-0.293945	112	17_29_11_6480000
0.878445	0.379192	0.296518	-0.016003	-0.004079	-0.003452	-0.822266	-0.646362	-0.293945	113	17_29_11_6560000
0.878445	0.379192	0.296518	0.007217	0.000941	-0.004079	-0.822266	-0.646362	-0.293945	114	17_29_11_6640000
0.878445	0.379192	0.296731	-0.007217	0.007531	-0.007531	-0.822144	-0.646484	-0.293945	115	17_29_11_6720000
0.878445	0.379192	0.296731	0.002510	-0.000314	-0.004079	-0.822144	-0.646484	-0.293945	116	17_29_11_6800000
0.878445	0.379406	0.296731	0.000000	0.011296	-0.002824	-0.822144	-0.646484	-0.294067	117	17_29_11_6880000
0.878445	0.379406	0.296731	-0.001883	0.009413	-0.001883	-0.822144	-0.646484	-0.294067	118	17_29_11_6960000
0.878445	0.379406	0.296731	0.002510	-0.007844	-0.002824	-0.822144	-0.646484	-0.294067	119	17_29_11_7040000
0.878445	0.379406	0.296731	-0.007217	-0.004079	0.004393	-0.822144	-0.646484	-0.294067	120	17_29_11_7120000
0.878445	0.379192	0.296731	-0.000314	0.005334	0.008158	-0.822144	-0.646484	-0.294067	121	17_29_11_7200000
0.878445	0.379192	0.296945	-0.005648	-0.005020	-0.005962	-0.822144	-0.646362	-0.294067	122	17_29_11_7280000
0.878445	0.379192	0.296731	-0.007217	-0.006589	-0.012237	-0.822144	-0.646484	-0.294067	123	17_29_11_7360000
0.878445	0.379406	0.296731	-0.003452	-0.000941	-0.012551	-0.822144	-0.646484	-0.294067	124	17_29_11_7440000
0.878445	0.379406	0.296731	0.004079	-0.001255	-0.005020	-0.822021	-0.646606	-0.294067	125	17_29_11_7520000
0.878445	0.379406	0.296731	-0.011610	-0.011923	-0.000314	-0.822021	-0.646606	-0.293945	126	17_29_11_7600000
0.878445	0.379406	0.296731	0.004079	-0.012237	0.007531	-0.822144	-0.646484	-0.293945	127	17_29_11_7680000
0.878445	0.379406	0.296731	-0.008158	-0.019140	0.004079	-0.822144	-0.646484	-0.293823	128	17_29_11_7760000
0.878445	0.379192	0.296518	-0.000941	-0.015061	0.001255	-0.822266	-0.646484	-0.293701	129	17_29_11_7840000
0.878445	0.379192	0.296518	-0.002196	-0.017571	-0.003765	-0.822266	-0.646484	-0.293579	130	17_29_11_7920000
0.878658	0.379406	0.296304	-0.001883	-0.018513	-0.005020	-0.822266	-0.646484	-0.293457	131	17_29_11_8000000
0.878658	0.379406	0.296304	-0.000628	-0.000941	-0.002510	-0.822266	-0.646484	-0.293457	132	17_29_11_8080000
0.878658	0.379406	0.296304	0.011923	-0.002824	-0.004079	-0.822266	-0.646484	-0.293457	133	17_29_11_8160000
0.878658	0.379406	0.296304	0.009413	-0.008158	-0.007531	-0.822266	-0.646606	-0.293335	134	17_29_11_8240000
0.878658	0.379406	0.296091	0.008472	-0.001883	-0.010668	-0.822266	-0.646729	-0.293213	135	17_29_11_8320000
0.878445	0.379620	0.296091	0.001569	-0.004707	-0.002824	-0.822266	-0.646729	-0.293213	136	17_29_11_8400000
0.878445	0.379620	0.296091	0.004393	-0.000314	-0.005962	-0.822266	-0.646729	-0.293091	137	17_29_11_8480000
0.878445	0.379620	0.296091	-0.005334	0.008472	-0.002196	-0.822144	-0.646729	-0.293091	138	17_29_11_8560000
0.878445	0.379620	0.296304	-0.012865	0.001883	-0.001569	-0.822144	-0.646729	-0.293213	139	17_29_11_8640000
0.878445	0.379620	0.296304	-0.017571	0.003138	-0.005334	-0.822144	-0.646729	-0.293335	140	17_29_11_8720000
0.878445	0.379620	0.296304	0.000000	-0.005020	-0.003765	-0.822144	-0.646729	-0.293335	141	17_29_11_8800000
0.878445	0.379620	0.296304	-0.001883	-0.009413	-0.007844	-0.822144	-0.646729	-0.293335	142	17_29_11_8880000
0.878445	0.379620	0.296304	-0.002196	0.008472	-0.008472	-0.822144	-0.646851	-0.293335	143	17_29_11_8960000
0.878445	0.379620	0.296304	0.010041	0.004079	0.001569	-0.822021	-0.646851	-0.293335	144	17_29_11_9040000
0.878445	0.379620	0.296304	0.007844	0.013179	0.014120	-0.822144	-0.646851	-0.293335	145	17_29_11_9120000
0.878445	0.379620	0.296518	-0.000628	0.001883	0.001569	-0.822144	-0.646729	-0.293335	146	17_29_11_9200000
0.878445	0.379620	0.296518	-0.002824	-0.005334	0.000314	-0.822144	-0.646729	-0.293335	147	17_29_11_9280000
0.878445	0.379620	0.296518	-0.005962	0.000941	0.002196	-0.822144	-0.646729	-0.293335	148	17_29_11_9360000
0.878445	0.379620	0.296518	0.001883	-0.008786	0.000000	-0.822144	-0.646729	-0.293335	149	17_29_11_9440000
0.878445	0.379620	0.296518	-0.012237	0.013179	-0.002510	-0.822144	-0.646729	-0.293335	150	17_29_11_9520000
0.878445	0.379620	0.296518	-0.007217	0.001255	-0.006903	-0.822144	-0.646729	-0.293335	151	17_29_11_9600000
0.878445	0.379620	0.296518	-0.008472	0.007844	-0.008158	-0.822144	-0.646729	-0.293457	152	17_29_11_9680000
0.878445	0.379620	0.296731	-0.005648	-0.008472	-0.008472	-0.822021	-0.646729	-0.293457	153	17_29_11_9760000
0.878231	0.379620	0.296731	-0.004707	0.000941	-0.006903	-0.822021	-0.646729	-0.293457	154	17_29_11_9840000
0.878231	0.379620	0.296731	-0.014120	-0.001883	-0.008158	-0.822021	-0.646851	-0.293457	155	17_29_11_9920000
0.878231	0.379620	0.296731	-0.000628	0.008158	-0.003138	-0.822021	-0.646851	-0.293579	156	17_29_12_0000000
0.878231	0.379620	0.296731	0.007217	0.005334	0.001883	-0.821899	-0.646851	-0.293579	157	17_29_12_0080000
0.878231	0.379620	0.296731	0.001883	0.006903	-0.007217	-0.821899	-0.646851	-0.293579	158	17_29_12_0160000
0.878231	0.379620	0.296731	-0.001569	-0.000314	-0.003138	-0.821899	-0.646851	-0.293579	159	17_29_12_0240000
0.878231	0.379620	0.296945	0.001883	0.006903	0.001569	-0.821899	-0.646851	-0.293579	160	17_29_12_0320000
0.878231	0.379620	0.296945	0.010355	-0.000628	0.001255	-0.821899	-0.646851	-0.293579	161	17_29_12_0400000
0.878231	0.379833	0.296945	-0.000628	0.003452	-0.008472	-0.821899	-0.646851	-0.293579	162	17_29_12_0480000
0.878231	0.379620	0.296945	-0.015689	-0.001255	0.006903	-0.821899	-0.646851	-0.293579	163	17_29_12_0560000
0.878231	0.379620	0.296945	-0.019454	-0.001569	0.005648	-0.821899	-0.646851	-0.293701	164	17_29_12_0640000
0.878231	0.379620	0.296945	0.011610	-0.002196	-0.008472	-0.821899	-0.646851	-0.293701	165	17_29_12_0720000
0.878231	0.379620	0.296945	0.010982	0.001255	-0.008786	-0.821899	-0.646851	-0.293579	166	17_29_12_0800000
0.878231	0.379620	0.296945	0.000941	-0.003138	0.004707	-0.821899	-0.646851	-0.293579	167	17_29_12_0880000
0.878231	0.379620	0.296945	-0.012865	-0.003138	-0.000628	-0.821899	-0.646851	-0.293579	168	17_29_12_0960000
0.878231	0.379620	0.296945	0.003765	0.005020	-0.005334	-0.821899	-0.646851	-0.293579	169	17_29_12_1040000
0.878231	0.379620	0.296945	-0.013179	0.000000	0.002510	-0.821899	-0.646851	-0.293579	170	17_29_12_1120000
0.878231	0.379620	0.296945	-0.005020	0.001255	0.003765	-0.821899	-0.646851	-0.293701	171	17_29_12_1200000
0.878231	0.379620	0.297159	0.004393	0.002824	-0.000314	-0.821899	-0.646851	-0.293701	172	17_29_12_1280000
0.878231	0.379620	0.297159	-0.002824	0.003452	-0.005962	-0.821899	-0.646851	-0.293701	173	17_29_12_1360000
0.878231	0.379620	0.297159	-0.013492	0.002824	-0.014120	-0.821899	-0.646851	-0.293701	174	17_29_12_1440000
0.878018	0.379620	0.297159	-0.006589	0.006903	-0.003138	-0.821777	-0.646851	-0.293823	175	17_29_12_1520000
0.878018	0.379620	0.297372	-0.014120	-0.000628	0.007844	-0.821777	-0.646851	-0.293823	176	17_29_12_1600000
0.878231	0.379620	0.297372	-0.012865	-0.003138	0.002510	-0.821899	-0.646851	-0.293945	177	17_29_12_1680000
0.878018	0.379620	0.297372	-0.004393	-0.005020	-0.007844	-0.821899	-0.646729	-0.293945	178	17_29_12_1760000
0.878018	0.379620	0.297372	-0.005020	0.013179	-0.001569	-0.821777	-0.646851	-0.293945	179	17_29_12_1840000
0.878018	0.379620	0.297372	0.010355	0.003765	-0.002824	-0.821777	-0.646851	-0.293945	180	17_29_12_1920000
0.878018	0.379620	0.297372	-0.002196	-0.003765	-0.007844	-0.821777	-0.646851	-0.293945	181	17_29_12_2000000
0.878018	0.379620	0.297372	-0.006903	-0.002196	-0.002824	-0.821777	-0.646851	-0.293945	182	17_29_12_2080000
0.878018	0.379620	0.297372	-0.001569	0.001569	0.005334	-0.821777	-0.646851	-0.293945	183	17_29_12_2160000
0.878018	0.379620	0.297372	-0.005962	0.002824	-0.001569	-0.821777	-0.646851	-0.293945	184	17_29_12_2240000
0.878018	0.379620	0.297586	-0.008472	-0.004079	-0.003765	-0.821777	-0.646851	-0.294067	185	17_29_12_2320000
0.878018	0.379620	0.297586	-0.001883	0.004079	-0.003765	-0.821777	-0.646851	-0.294067	186	17_29_12_2400000
0.878018	0.379620	0.297586	-0.001569	-0.009099	-0.000941	-0.821777	-0.646851	-0.294067	187	17_29_12_2480000
0.878018	0.379620	0.297586	0.003452	0.001255	-0.002510	-0.821777	-0.646851	-0.293945	188	17_29_12_2560000
0.878018	0.379620	0.297586	-0.002824	-0.000941	0.000628	-0.821777	-0.646851	-0.293945	189	17_29_12_2640000
0.878018	0.379620	0.297586	-0.003138	-0.004393	-0.005648	-0.821777	-0.646851	-0.293945	190	17_29_12_2720000
0.878018	0.379620	0.297586	0.000314	0.006903	-0.008786	-0.821777	-0.646851	-0.293945	191	17_29_12_2800000
0.878018	0.379833	0.297586	-0.001883	-0.011923	-0.008472	-0.821655	-0.646973	-0.293945	192	17_29_12_2880000
0.878018	0.379833	0.297372	0.003138	-0.007844	0.006275	-0.821777	-0.646973	-0.293823	193	17_29_12_2960000
0.878018	0.379833	0.297372	0.008158	-0.003138	0.004079	-0.821777	-0.646973	-0.293823	194	17_29_12_3040000
0.878018	0.379620	0.297372	-0.004079	-0.006903	0.008158	-0.821777	-0.646851	-0.293701	195	17_29_12_3120000
0.878018	0.379620	0.297372	0.010982	-0.011610	-0.008472	-0.821899	-0.646851	-0.293701	196	17_29_12_3200000
0.878018	0.379833	0.297159	-0.000628	-0.005020	-0.008158	-0.821777	-0.646973	-0.293579	197	17_29_12_3280000
0.878018	0.379833	0.297159	-0.006275	-0.002510	-0.008158	-0.821777	-0.646973	-0.293579	198	17_29_12_3360000
0.878018	0.379833	0.297159	0.004079	-0.003138	0.002196	-0.821777	-0.646973	-0.293579	199	17_29_12_3440000
0.878018	0.379833	0.297159	0.000941	-0.002196	-0.002196	-0.821777	-0.646973	-0.293457	200	17_29_12_3520000
0.878018	0.379833	0.297159	0.017571	0.006589	0.000628	-0.821777	-0.646973	-0.293457	201	17_29_12_3600000
0.878018	0.379833	0.297159	-0.000628	0.005334	0.005962	-0.821777	-0.646973	-0.293457	202	17_29_12_3680000
0.878018	0.379833	0.297372	-0.006903	-0.003452	-0.005648	-0.821777	-0.646973	-0.293457	203	17_29_12_3760000
0.878018	0.379833	0.297372	-0.013179	-0.008786	0.004393	-0.821899	-0.646973	-0.293457	204	17_29_12_3840000
0.878018	0.379620	0.297159	-0.002824	-0.003138	0.007844	-0.821899	-0.646973	-0.293457	205	17_29_12_3920000
0.878018	0.379620	0.297159	-0.006275	-0.004393	-0.000628	-0.821899	-0.646851	-0.293457	206	17_29_12_4000000
0.878018	0.379620	0.297372	0.002196	0.009099	0.010355	-0.821899	-0.646851	-0.293457	207	17_29_12_4080000
0.878231	0.379620	0.297159	0.010041	-0.010982	-0.002510	-0.822021	-0.646851	-0.293457	208	17_29_12_4160000
0.878231	0.379620	0.297159	0.010982	-0.005020	-0.002824	-0.822021	-0.646851	-0.293335	209	17_29_12_4240000
0.878231	0.379620	0.297159	0.005648	-0.005020	-0.000941	-0.822021	-0.646851	-0.293213	210	17_29_12_4320000
0.878231	0.379620	0.297159	-0.006275	0.004079	0.005334	-0.822021	-0.646851	-0.293213	211	17_29_12_4400000
0.878231	0.379620	0.297159	0.002824	0.005334	0.005334	-0.822021	-0.646851	-0.293213	212	17_29_12_4480000
0.878231	0.379620	0.297159	-0.000628	-0.000314	0.005962	-0.822021	-0.646851	-0.293213	213	17_29_12_4560000
0.878231	0.379620	0.297159	0.004707	0.014120	-0.000941	-0.822021	-0.646851	-0.293335	214	17_29_12_4640000
0.878018	0.379620	0.297372	0.001569	0.015375	0.000628	-0.822021	-0.646851	-0.293335	215	17_29_12_4720000
0.878018	0.379620	0.297372	-0.004079	0.007844	0.007844	-0.822021	-0.646729	-0.293457	216	17_29_12_4800000
0.878018	0.379406	0.297372	0.006275	0.000628	0.007844	-0.822021	-0.646729	-0.293457	217	17_29_12_4880000
0.878018	0.379406	0.297586	-0.007531	0.013492	0.005334	-0.822144	-0.646606	-0.293457	218	17_29_12_4960000
0.878018	0.379406	0.297586	-0.005020	0.005962	0.001255	-0.822144	-0.646606	-0.293579	219	17_29_12_5040000
0.878018	0.379406	0.297586	-0.000941	-0.009099	0.007217	-0.822144	-0.646606	-0.293579	220	17_29_12_5120000
0.878231	0.379406	0.297586	-0.011923	-0.007844	-0.005648	-0.822144	-0.646606	-0.293579	221	17_29_12_5200000
0.878231	0.379406	0.297586	-0.006903	-0.004707	-0.002196	-0.822144	-0.646606	-0.293579	222	17_29_12_5280000
0.878231	0.379406	0.297586	-0.000314	0.002196	-0.000628	-0.822144	-0.646606	-0.293579	223	17_29_12_5360000
0.878231	0.379406	0.297586	0.008786	-0.006903	-0.003765	-0.822144	-0.646606	-0.293457	224	17_29_12_5440000
0.878231	0.379406	0.297586	0.005962	-0.005020	0.002510	-0.822144	-0.646606	-0.293457	225	17_29_12_5520000
0.878231	0.379406	0.297372	0.012237	-0.014747	0.004079	-0.822266	-0.646606	-0.293335	226	17_29_12_5600000
0.878231	0.379406	0.297372	0.004079	-0.010982	0.001883	-0.822266	-0.646606	-0.293213	227	17_29_12_5680000
0.878231	0.379406	0.297159	0.001255	-0.009099	-0.001569	-0.822266	-0.646606	-0.293091	228	17_29_12_5760000
0.878231	0.379406	0.297159	-0.004393	-0.007531	0.003765	-0.822388	-0.646606	-0.292969	229	17_29_12_5840000
0.878231	0.379406	0.297159	0.009413	0.007531	-0.005962	-0.822388	-0.646606	-0.292969	230	17_29_12_5920000
0.878231	0.379406	0.297159	0.007217	-0.001883	-0.007844	-0.822266	-0.646606	-0.292969	231	17_29_12_6000000
0.878231	0.379406	0.297159	-0.005648	-0.005020	-0.002196	-0.822266	-0.646729	-0.292969	232	17_29_12_6080000
0.878231	0.379406	0.297159	0.008786	0.000000	-0.005334	-0.822266	-0.646729	-0.292847	233	17_29_12_6160000
0.878231	0.379406	0.297159	0.010041	-0.009099	0.002510	-0.822266	-0.646729	-0.292847	234	17_29_12_6240000
0.878231	0.379406	0.297159	-0.000628	-0.006275	-0.010041	-0.822266	-0.646729	-0.292725	235	17_29_12_6320000
0.878231	0.379620	0.297159	0.003452	0.003138	0.003765	-0.822266	-0.646729	-0.292725	236	17_29_12_6400000
0.878231	0.379406	0.297159	0.004079	0.000628	0.006275	-0.822266	-0.646729	-0.292725	237	17_29_12_6480000
0.878231	0.379406	0.297159	-0.016316	-0.000314	0.007844	-0.822388	-0.646729	-0.292725	238	17_29_12_6560000
0.878231	0.379406	0.297159	0.002196	-0.002510	0.001569	-0.822388	-0.646606	-0.292725	239	17_29_12_6640000
0.878231	0.379406	0.296945	-0.001883	-0.017258	0.003765	-0.822388	-0.646606	-0.292725	240	17_29_12_6720000
0.878231	0.379406	0.296945	0.001255	-0.013492	-0.002510	-0.822510	-0.646606	-0.292603	241	17_29_12_6800000
0.878231	0.379406	0.296945	0.001883	-0.006589	-0.008158	-0.822510	-0.646606	-0.292480	242	17_29_12_6880000
0.878445	0.379406	0.296945	0.003765	0.003138	0.010982	-0.822510	-0.646606	-0.292480	243	17_29_12_6960000
0.878445	0.379406	0.296945	-0.010982	0.001883	-0.003452	-0.822510	-0.646606	-0.292480	244	17_29_12_7040000
0.878445	0.379406	0.296945	-0.006275	-0.010041	-0.003452	-0.822510	-0.646606	-0.292480	245	17_29_12_7120000
0.878445	0.379192	0.296945	-0.008472	-0.005962	0.005334	-0.822510	-0.646606	-0.292480	246	17_29_12_7200000
0.878445	0.379192	0.296945	-0.018199	-0.012237	0.007217	-0.822632	-0.646484	-0.292480	247	17_29_12_7280000
0.878445	0.379192	0.296945	-0.001255	-0.002510	-0.001883	-0.822632	-0.646484	-0.292480	248	17_29_12_7360000
0.878445	0.379192	0.296945	-0.004707	-0.004393	0.000000	-0.822632	-0.646484	-0.292480	249	17_29_12_7440000
0.878445	0.379192	0.296945	-0.015061	-0.006903	-0.001883	-0.822632	-0.646362	-0.292480	250	17_29_12_7520000
0.878445	0.379192	0.296945	-0.009099	0.001569	0.007531	-0.822632	-0.646362	-0.292480	251	17_29_12_7600000
0.878445	0.378979	0.296945	0.013179	-0.007844	-0.000314	-0.822754	-0.646362	-0.292480	252	17_29_12_7680000
0.878445	0.378979	0.296731	0.004707	-0.005334	0.004079	-0.822754	-0.646362	-0.292358	253	17_29_12_7760000
0.878445	0.378979	0.296731	0.007531	-0.009727	-0.002824	-0.822754	-0.646362	-0.292236	254	17_29_12_7840000
0.878445	0.378979	0.296731	0.006275	-0.012865	0.006903	-0.822754	-0.646362	-0.292114	255	17_29_12_7920000
0.878658	0.378979	0.296518	-0.008158	-0.010982	0.001569	-0.822876	-0.646362	-0.292114	256	17_29_12_8000000
0.878658	0.378979	0.296518	-0.006275	-0.002824	-0.005648	-0.822876	-0.646362	-0.292114	257	17_29_12_8080000
0.878658	0.378979	0.296518	0.006275	-0.002510	0.000314	-0.822876	-0.646362	-0.291992	258	17_29_12_8160000
0.878658	0.378979	0.296518	0.004707	-0.005962	0.002510	-0.822876	-0.646362	-0.291992	259	17_29_12_8240000
0.878658	0.378979	0.296518	-0.005020	-0.003452	0.002510	-0.822876	-0.646362	-0.291992	260	17_29_12_8320000
0.878658	0.378979	0.296518	-0.004079	-0.001569	-0.004079	-0.822876	-0.646362	-0.291992	261	17_29_12_8400000
0.878658	0.378979	0.296518	0.007844	-0.008786	0.000628	-0.822876	-0.646362	-0.291870	262	17_29_12_8480000
0.878658	0.378979	0.296518	-0.001255	-0.002510	0.002196	-0.822998	-0.646362	-0.291870	263	17_29_12_8560000
0.878658	0.378979	0.296518	0.009099	0.000314	0.002510	-0.822998	-0.646362	-0.291748	264	17_29_12_8640000
0.878658	0.378979	0.296518	-0.016944	0.004393	-0.004707	-0.822998	-0.646240	-0.291870	265	17_29_12_8720000
0.878658	0.378979	0.296518	-0.012551	-0.004707	0.002824	-0.822998	-0.646240	-0.291870	266	17_29_12_8800000
0.878658	0.378979	0.296518	0.011923	-0.003452	-0.000941	-0.822998	-0.646240	-0.291870	267	17_29_12_8880000
0.878658	0.378979	0.296518	0.016003	0.005648	0.002510	-0.822998	-0.646240	-0.291748	268	17_29_12_8960000
0.878658	0.378979	0.296518	0.013492	-0.002510	0.001255	-0.822998	-0.646240	-0.291748	269	17_29_12_9040000
0.878658	0.378979	0.296304	-0.006589	-0.001883	0.010668	-0.822998	-0.646240	-0.291748	270	17_29_12_9120000
0.878658	0.378979	0.296304	0.010982	-0.010982	0.002196	-0.823120	-0.646240	-0.291626	271	17_29_12_9200000
0.878658	0.378979	0.296304	-0.000314	0.007217	0.009727	-0.823120	-0.646240	-0.291626	272	17_29_12_9280000
0.878658	0.378765	0.296304	0.010982	0.003138	0.001255	-0.823120	-0.646118	-0.291626	273	17_29_12_9360000
0.878658	0.378765	0.296304	0.002196	0.008472	0.006903	-0.823120	-0.646118	-0.291626	274	17_29_12_9440000
0.878658	0.378765	0.296518	-0.006903	0.007531	0.002196	-0.823120	-0.646118	-0.291626	275	17_29_12_9520000
0.878658	0.378765	0.296518	-0.012865	-0.007531	-0.003138	-0.823120	-0.646118	-0.291748	276	17_29_12_9600000
0.878658	0.378765	0.296518	-0.009413	-0.008472	0.006275	-0.823242	-0.646118	-0.291748	277	17_29_12_9680000
0.878658	0.378765	0.296518	-0.014120	-0.002824	0.000628	-0.823242	-0.645996	-0.291748	278	17_29_12_9760000
0.878658	0.378552	0.296518	0.000314	0.003452	0.011923	-0.823242	-0.645996	-0.291748	279	17_29_12_9840000
0.878658	0.378552	0.296518	-0.000628	-0.006275	-0.013806	-0.823242	-0.645996	-0.291748	280	17_29_12_9920000
0.878658	0.378552	0.296518	0.004707	0.001883	-0.001883	-0.823242	-0.645996	-0.291748	281	17_29_13_0000000
0.878658	0.378552	0.296518	-0.003765	0.008472	0.007844	-0.823242	-0.645996	-0.291748	282	17_29_13_0080000
0.878658	0.378552	0.296518	-0.013806	-0.009099	-0.001255	-0.823242	-0.645874	-0.291748	283	17_29_13_0160000
0.878658	0.378552	0.296518	-0.003765	-0.013179	-0.002824	-0.823242	-0.645874	-0.291748	284	17_29_13_0240000
0.878872	0.378552	0.296518	0.005334	-0.005020	-0.001883	-0.823364	-0.645996	-0.291626	285	17_29_13_0320000
0.878872	0.378552	0.296518	0.004707	-0.000314	0.001569	-0.823364	-0.645996	-0.291626	286	17_29_13_0400000
0.878872	0.378552	0.296518	0.004079	-0.001569	0.010982	-0.823364	-0.645874	-0.291626	287	17_29_13_0480000
0.878872	0.378552	0.296518	-0.001883	0.001569	0.000314	-0.823364	-0.645874	-0.291504	288	17_29_13_0560000
0.878872	0.378552	0.296518	-0.011923	-0.002824	-0.007217	-0.823364	-0.645874	-0.291626	289	17_29_13_0640000
0.878872	0.378552	0.296518	0.010355	0.006275	-0.006275	-0.823364	-0.645874	-0.291626	290	17_29_13_0720000
0.878658	0.378552	0.296518	0.010355	0.007531	0.004707	-0.823364	-0.645996	-0.291626	291	17_29_13_0800000
0.878658	0.378552	0.296518	0.017885	0.009413	-0.001569	-0.823364	-0.645996	-0.291504	292	17_29_13_0880000
0.878658	0.378552	0.296518	0.012237	-0.010982	0.004393	-0.823364	-0.645996	-0.291504	293	17_29_13_0960000
0.878658	0.378552	0.296518	0.005020	0.001255	-0.003452	-0.823364	-0.645996	-0.291382	294	17_29_13_1040000
0.878658	0.378765	0.296518	-0.004079	-0.009099	-0.004079	-0.823364	-0.645996	-0.291382	295	17_29_13_1120000
0.878872	0.378552	0.296518	-0.000941	-0.004707	0.002824	-0.823364	-0.645996	-0.291260	296	17_29_13_1200000
0.878872	0.378552	0.296518	-0.005020	0.001883	0.005962	-0.823364	-0.645996	-0.291260	297	17_29_13_1280000
0.878872	0.378552	0.296518	-0.016630	-0.002510	0.004079	-0.823486	-0.645874	-0.291382	298	17_29_13_1360000
0.878872	0.378552	0.296518	-0.006589	-0.012865	0.000314	-0.823486	-0.645874	-0.291382	299	17_29_13_1440000
0.878872	0.378552	0.296304	0.006589	-0.006903	0.002824	-0.823486	-0.645874	-0.291260	300	17_29_13_1520000
0.878872	0.378552	0.296304	-0.000941	-0.004707	0.006589	-0.823486	-0.645874	-0.291260	301	17_29_13_1600000
0.878872	0.378338	0.296304	-0.005334	-0.012865	0.002510	-0.823608	-0.645752	-0.291138	302	17_29_13_1680000
0.878872	0.378338	0.296304	0.013492	-0.004707	0.002196	-0.823608	-0.645752	-0.291138	303	17_29_13_1760000
0.878872	0.378338	0.296304	-0.002196	-0.005962	0.001883	-0.823608	-0.645752	-0.291016	304	17_29_13_1840000
0.878872	0.378338	0.296304	0.000000	-0.000628	-0.000314	-0.823608	-0.645752	-0.291016	305	17_29_13_1920000
0.878872	0.378338	0.296091	0.014747	-0.008786	-0.001255	-0.823608	-0.645752	-0.290894	306	17_29_13_2000000
0.879086	0.378338	0.296091	0.011610	-0.004079	0.006275	-0.823730	-0.645752	-0.290894	307	17_29_13_2080000
0.879086	0.378338	0.296091	-0.001883	-0.004079	0.006903	-0.823730	-0.645752	-0.290771	308	17_29_13_2160000
0.879086	0.378338	0.296091	-0.009727	0.000941	-0.005648	-0.823730	-0.645752	-0.290771	309	17_29_13_2240000
0.879086	0.378338	0.296091	-0.000628	-0.003765	-0.002824	-0.823730	-0.645752	-0.290771	310	17_29_13_2320000
0.879086	0.378338	0.296091	-0.001569	-0.010041	0.005962	-0.823730	-0.645752	-0.290771	311	17_29_13_2400000
0.879086	0.378338	0.296091	0.003138	0.001255	0.006275	-0.823853	-0.645752	-0.290771	312	17_29_13_2480000
0.879086	0.378338	0.296091	0.009413	-0.004393	0.000314	-0.823853	-0.645630	-0.290649	313	17_29_13_2560000
0.879086	0.378338	0.296091	0.006589	0.008786	0.002824	-0.823853	-0.645752	-0.290649	314	17_29_13_2640000
0.879086	0.378338	0.295877	0.015689	-0.005648	0.004393	-0.823853	-0.645752	-0.290527	315	17_29_13_2720000
0.879086	0.378338	0.295877	0.006589	-0.003765	-0.010355	-0.823853	-0.645752	-0.290527	316	17_29_13_2800000
0.879086	0.378338	0.295877	-0.009727	-0.006903	-0.004079	-0.823853	-0.645752	-0.290405	317	17_29_13_2880000
0.879086	0.378338	0.295877	-0.004707	0.003138	-0.006589	-0.823853	-0.645752	-0.290527	318	17_29_13_2960000
0.879086	0.378338	0.295877	0.001569	-0.000628	-0.001883	-0.823853	-0.645752	-0.290527	319	17_29_13_3040000
0.879086	0.378338	0.295877	-0.004393	-0.003452	-0.004707	-0.823853	-0.645874	-0.290527	320	17_29_13_3120000
0.879086	0.378338	0.295877	-0.012237	-0.002196	0.005648	-0.823853	-0.645752	-0.290527	321	17_29_13_3200000
0.879086	0.378338	0.295877	-0.016944	-0.011923	0.010355	-0.823853	-0.645752	-0.290527	322	17_29_13_3280000
0.879086	0.378124	0.295877	-0.014434	-0.012865	0.001883	-0.823975	-0.645630	-0.290527	323	17_29_13_3360000
0.879086	0.378124	0.295877	-0.012551	-0.001883	0.004079	-0.823975	-0.645630	-0.290527	324	17_29_13_3440000
0.879086	0.378124	0.295877	0.002824	-0.007844	-0.002824	-0.823975	-0.645508	-0.290527	325	17_29_13_3520000
0.879086	0.378124	0.295877	-0.000314	-0.007217	-0.005648	-0.823975	-0.645630	-0.290405	326	17_29_13_3600000
0.879086	0.378124	0.295877	0.005334	0.000941	0.004079	-0.823975	-0.645630	-0.290405	327	17_29_13_3680000
0.879086	0.378124	0.295877	0.007531	-0.003765	-0.000314	-0.823975	-0.645630	-0.290405	328	17_29_13_3760000
0.879086	0.378124	0.295877	0.000628	-0.009727	0.009413	-0.824097	-0.645508	-0.290283	329	17_29_13_3840000
0.879299	0.378124	0.295663	0.000628	-0.008786	0.006275	-0.824097	-0.645508	-0.290283	330	17_29_13_3920000
0.879299	0.378124	0.295663	-0.015061	-0.003765	-0.000628	-0.824097	-0.645508	-0.290283	331	17_29_13_4000000
0.879299	0.378124	0.295663	0.003765	-0.002510	-0.012237	-0.824097	-0.645508	-0.290283	332	17_29_13_4080000
0.879086	0.378124	0.295663	-0.007217	0.000628	-0.006903	-0.824097	-0.645508	-0.290283	333	17_29_13_4160000
0.879299	0.378124	0.295663	-0.003765	-0.010668	0.002824	-0.824097	-0.645508	-0.290161	334	17_29_13_4240000
0.879299	0.378124	0.295663	-0.007844	-0.003452	0.006589	-0.824097	-0.645508	-0.290161	335	17_29_13_4320000
0.879299	0.377911	0.295663	-0.013179	0.001569	0.007844	-0.824219	-0.645386	-0.290283	336	17_29_13_4400000
0.879299	0.377911	0.295877	0.000941	0.002196	0.010982	-0.824219	-0.645386	-0.290283	337	17_29_13_4480000
0.879299	0.377911	0.295877	-0.005334	-0.002510	0.003765	-0.824219	-0.645264	-0.290283	338	17_29_13_4560000
0.879299	0.377911	0.295877	-0.003452	-0.001883	-0.000314	-0.824219	-0.645264	-0.290283	339	17_29_13_4640000
0.879299	0.377911	0.295877	-0.006275	-0.001883	-0.004079	-0.824219	-0.645264	-0.290283	340	17_29_13_4720000
0.879299	0.377911	0.295877	-0.005648	-0.004707	0.005648	-0.824341	-0.645264	-0.290283	341	17_29_13_4800000
0.879299	0.377697	0.295877	0.000628	-0.005334	0.006589	-0.824341	-0.645142	-0.290283	342	17_29_13_4880000
0.879299	0.377697	0.295663	0.004079	-0.003765	0.003765	-0.824341	-0.645142	-0.290161	343	17_29_13_4960000
0.879299	0.377697	0.295663	0.007531	-0.010355	0.000628	-0.824463	-0.645142	-0.290161	344	17_29_13_5040000
0.879299	0.377697	0.295663	0.002510	-0.006275	-0.000941	-0.824463	-0.645142	-0.290039	345	17_29_13_5120000
0.879299	0.377697	0.295663	0.002824	0.006903	0.009099	-0.824463	-0.645142	-0.290039	346	17_29_13_5200000
0.879299	0.377697	0.295663	0.001569	0.008786	-0.001569	-0.824463	-0.645142	-0.290039	347	17_29_13_5280000
0.879299	0.377697	0.295663	0.008472	0.004707	0.010982	-0.824463	-0.645142	-0.290039	348	17_29_13_5360000
0.879513	0.377697	0.295663	0.016003	0.000000	0.005648	-0.824463	-0.645020	-0.290039	349	17_29_13_5440000
0.879513	0.377697	0.295663	0.000000	-0.002824	-0.004707	-0.824463	-0.645142	-0.289917	350	17_29_13_5520000
0.879513	0.377697	0.295663	-0.006589	0.001255	0.002196	-0.824463	-0.645020	-0.290039	351	17_29_13_5600000
0.879513	0.377697	0.295663	-0.009099	-0.000628	0.006275	-0.824585	-0.645020	-0.290039	352	17_29_13_5680000
0.879513	0.377483	0.295663	-0.012865	-0.014120	-0.001569	-0.824585	-0.645020	-0.290039	353	17_29_13_5760000
0.879513	0.377483	0.295663	-0.014747	-0.015061	-0.003765	-0.824585	-0.645020	-0.290039	354	17_29_13_5840000
0.879513	0.377483	0.295663	-0.002196	0.001569	-0.011610	-0.824585	-0.645020	-0.290039	355	17_29_13_5920000
0.879513	0.377697	0.295663	-0.008472	-0.001255	-0.011923	-0.824463	-0.645020	-0.290039	356	17_29_13_6000000
0.879299	0.377697	0.295663	0.001883	-0.003452	-0.005962	-0.824463	-0.645142	-0.290039	357	17_29_13_6080000
0.879299	0.377697	0.295663	-0.002510	-0.003765	-0.001255	-0.824463	-0.645142	-0.290039	358	17_29_13_6160000
0.879513	0.377697	0.295663	0.004393	-0.005962	0.008786	-0.824463	-0.645142	-0.289917	359	17_29_13_6240000
0.879513	0.377697	0.295663	0.010668	0.000000	0.005648	-0.824585	-0.645020	-0.289917	360	17_29_13_6320000
0.879513	0.377697	0.295663	-0.003765	0.003765	-0.008786	-0.824585	-0.645142	-0.289917	361	17_29_13_6400000
0.879513	0.377697	0.295663	0.005962	-0.003138	-0.005648	-0.824463	-0.645142	-0.289917	362	17_29_13_6480000
0.879513	0.377697	0.295663	-0.001883	-0.007531	0.000000	-0.824463	-0.645142	-0.289795	363	17_29_13_6560000
0.879513	0.377697	0.295663	0.000628	0.001883	0.010668	-0.824585	-0.645142	-0.289795	364	17_29_13_6640000
0.879513	0.377697	0.295663	-0.006589	0.003765	0.009727	-0.824585	-0.645020	-0.289795	365	17_29_13_6720000
0.879513	0.377483	0.295663	0.001569	0.003765	0.000628	-0.824585	-0.645020	-0.289795	366	17_29_13_6800000
0.879513	0.377483	0.295663	-0.000314	0.015689	-0.001569	-0.824585	-0.645020	-0.289917	367	17_29_13_6880000
0.879513	0.377483	0.295877	-0.001569	-0.002510	0.001883	-0.824585	-0.645020	-0.289917	368	17_29_13_6960000
0.879513	0.377483	0.295877	-0.000314	-0.008472	0.010355	-0.824585	-0.644897	-0.289917	369	17_29_13_7040000
0.879513	0.377483	0.295877	0.000628	0.009099	0.008786	-0.824707	-0.644897	-0.289917	370	17_29_13_7120000
0.879513	0.377270	0.295877	0.003765	0.014434	0.005334	-0.824707	-0.644897	-0.289917	371	17_29_13_7200000
0.879513	0.377270	0.295877	-0.000314	0.010668	0.004079	-0.824707	-0.644775	-0.290039	372	17_29_13_7280000
0.879513	0.377270	0.296091	-0.006589	0.008786	0.005648	-0.824707	-0.644775	-0.290161	373	17_29_13_7360000
0.879513	0.377270	0.296091	-0.006275	0.002824	0.000628	-0.824707	-0.644775	-0.290161	374	17_29_13_7440000
0.879513	0.377270	0.296091	-0.014747	-0.001883	0.004707	-0.824707	-0.644653	-0.290283	375	17_29_13_7520000
0.879513	0.377270	0.296091	-0.001883	-0.004393	0.002824	-0.824707	-0.644653	-0.290283	376	17_29_13_7600000
0.879513	0.377270	0.296091	0.000628	-0.021964	-0.007531	-0.824829	-0.644653	-0.290161	377	17_29_13_7680000
0.879513	0.377270	0.296091	0.000628	-0.003138	-0.010668	-0.824707	-0.644653	-0.290039	378	17_29_13_7760000
0.879513	0.377270	0.295877	0.001569	-0.014747	-0.010668	-0.824707	-0.644775	-0.290039	379	17_29_13_7840000
0.879513	0.377270	0.295877	-0.002510	-0.004079	-0.001569	-0.824707	-0.644775	-0.289917	380	17_29_13_7920000
0.879513	0.377270	0.295877	0.006903	0.004393	-0.003138	-0.824707	-0.644775	-0.289917	381	17_29_13_8000000
0.879513	0.377270	0.295877	-0.001255	0.008472	0.005648	-0.824707	-0.644775	-0.289917	382	17_29_13_8080000
0.879513	0.377270	0.296091	-0.010041	0.001883	-0.000628	-0.824707	-0.644775	-0.290039	383	17_29_13_8160000
0.879513	0.377270	0.296091	0.007217	-0.005334	0.002824	-0.824707	-0.644775	-0.290039	384	17_29_13_8240000
0.879513	0.377270	0.295877	-0.006589	-0.016003	-0.006903	-0.824707	-0.644775	-0.289917	385	17_29_13_8320000
0.879513	0.377270	0.295877	0.004707	-0.011296	-0.002196	-0.824707	-0.644775	-0.289795	386	17_29_13_8400000
0.879513	0.377270	0.295877	-0.001569	0.004079	0.002196	-0.824829	-0.644775	-0.289795	387	17_29_13_8480000
0.879513	0.377270	0.295877	0.000941	0.001569	0.000000	-0.824829	-0.644775	-0.289795	388	17_29_13_8560000
0.879513	0.377270	0.295877	0.004393	-0.006275	0.001569	-0.824829	-0.644775	-0.289795	389	17_29_13_8640000
0.879513	0.377270	0.295877	0.003138	0.015689	0.011296	-0.824829	-0.644775	-0.289795	390	17_29_13_8720000
0.879513	0.377270	0.295877	0.010668	0.005334	0.009727	-0.824829	-0.644775	-0.289795	391	17_29_13_8800000
0.879513	0.377270	0.295877	-0.001883	-0.004079	-0.000314	-0.824829	-0.644653	-0.289795	392	17_29_13_8880000
0.879513	0.377270	0.295877	-0.012551	-0.003452	0.010982	-0.824951	-0.644653	-0.289795	393	17_29_13_8960000
0.879513	0.377056	0.296091	-0.011923	0.003765	0.008158	-0.824951	-0.644531	-0.289795	394	17_29_13_9040000
0.879513	0.377056	0.296091	-0.006275	-0.005020	0.011296	-0.825073	-0.644531	-0.289917	395	17_29_13_9120000
0.879727	0.376843	0.296091	-0.000314	0.000314	0.011296	-0.825073	-0.644409	-0.289917	396	17_29_13_9200000
0.879727	0.376843	0.296091	0.015375	-0.004393	0.012551	-0.825195	-0.644287	-0.289795	397	17_29_13_9280000
0.879727	0.376843	0.296091	-0.001569	0.002510	0.011296	-0.825195	-0.644287	-0.289795	398	17_29_13_9360000
0.879727	0.376629	0.296091	-0.005648	0.005334	0.001255	-0.825195	-0.644165	-0.289795	399	17_29_13_9440000
0.879727	0.376629	0.296091	0.002824	-0.010041	-0.001255	-0.825195	-0.644165	-0.289795	400	17_29_13_9520000
0.879727	0.376629	0.296091	-0.007531	-0.004393	0.001569	-0.825317	-0.644165	-0.289795	401	17_29_13_9600000
0.879727	0.376629	0.296091	0.006903	0.000628	-0.003452	-0.825317	-0.644165	-0.289795	402	17_29_13_9680000
0.879727	0.376629	0.296091	-0.001569	0.001883	-0.004079	-0.825317	-0.644287	-0.289673	403	17_29_13_9760000
0.879727	0.376843	0.295877	0.006903	-0.011610	-0.006903	-0.825195	-0.644287	-0.289673	404	17_29_13_9840000
0.879727	0.376843	0.295877	-0.001569	-0.012237	-0.009727	-0.825195	-0.644287	-0.289551	405	17_29_13_9920000
0.879727	0.376843	0.295877	-0.007531	-0.006589	-0.006589	-0.825195	-0.644409	-0.289551	406	17_29_14_0000000
0.879727	0.376843	0.295877	-0.010355	0.001569	-0.008472	-0.825195	-0.644409	-0.289551	407	17_29_14_0080000
0.879727	0.376843	0.295877	-0.009727	0.007531	0.000628	-0.825195	-0.644409	-0.289673	408	17_29_14_0160000
0.879727	0.376843	0.296091	-0.001255	0.005962	0.000628	-0.825195	-0.644409	-0.289673	409	17_29_14_0240000
0.879727	0.376843	0.296091	-0.003452	0.004393	-0.001255	-0.825195	-0.644409	-0.289795	410	17_29_14_0320000
0.879727	0.376843	0.296091	0.004393	-0.000628	0.001883	-0.825195	-0.644409	-0.289795	411	17_29_14_0400000
0.879727	0.376843	0.296091	0.002196	-0.002510	0.008472	-0.825195	-0.644409	-0.289673	412	17_29_14_0480000
0.879727	0.376843	0.296091	-0.003138	0.003765	-0.007844	-0.825195	-0.644287	-0.289673	413	17_29_14_0560000
0.879727	0.376843	0.296091	0.013179	0.001569	-0.001255	-0.825195	-0.644409	-0.289673	414	17_29_14_0640000
0.879513	0.376843	0.296091	0.012237	0.009413	0.000941	-0.825195	-0.644409	-0.289673	415	17_29_14_0720000
0.879513	0.376843	0.296091	0.003138	0.003765	0.008786	-0.825195	-0.644409	-0.289673	416	17_29_14_0800000
0.879513	0.376843	0.296091	0.016630	-0.001883	-0.001255	-0.825195	-0.644409	-0.289673	417	17_29_14_0880000
0.879513	0.376843	0.296091	-0.014434	0.003452	-0.005334	-0.825195	-0.644409	-0.289673	418	17_29_14_0960000
0.879513	0.376843	0.296091	-0.012865	-0.003138	-0.003765	-0.825195	-0.644409	-0.289673	419	17_29_14_1040000
0.879513	0.376843	0.296091	-0.007531	-0.004707	-0.001883	-0.825195	-0.644409	-0.289673	420	17_29_14_1120000
0.879513	0.376843	0.296091	-0.005020	0.002196	0.000628	-0.825195	-0.644409	-0.289673	421	17_29_14_1200000
0.879513	0.376843	0.296091	0.005334	-0.008472	-0.007531	-0.825195	-0.644409	-0.289673	422	17_29_14_1280000
0.879513	0.377056	0.296091	0.004393	-0.004707	-0.011296	-0.825073	-0.644531	-0.289673	423	17_29_14_1360000
0.879513	0.377056	0.296091	0.014120	-0.002510	-0.009727	-0.825073	-0.644531	-0.289551	424	17_29_14_1440000
0.879513	0.377056	0.296091	0.003138	-0.002510	-0.015061	-0.825073	-0.644653	-0.289551	425	17_29_14_1520000
0.879513	0.377270	0.296091	-0.005334	-0.008472	-0.002510	-0.824951	-0.644775	-0.289429	426	17_29_14_1600000
0.879513	0.377270	0.296091	-0.013492	-0.006275	0.000941	-0.825073	-0.644653	-0.289429	427	17_29_14_1680000
0.879513	0.377056	0.296091	-0.012237	0.002510	-0.001883	-0.825073	-0.644653	-0.289551	428	17_29_14_1760000
0.879513	0.377056	0.296091	-0.002510	0.002824	0.000941	-0.825073	-0.644653	-0.289551	429	17_29_14_1840000
0.879513	0.377056	0.296091	-0.007844	-0.010355	0.002824	-0.825073	-0.644653	-0.289551	430	17_29_14_1920000
0.879513	0.377056	0.296091	0.006903	-0.000314	-0.005962	-0.825073	-0.644653	-0.289551	431	17_29_14_2000000
0.879513	0.377056	0.296091	-0.005334	-0.006589	-0.004079	-0.825073	-0.644653	-0.289429	432	17_29_14_2080000
0.879513	0.377056	0.296091	-0.003138	-0.003452	0.002824	-0.825073	-0.644653	-0.289429	433	17_29_14_2160000
0.879513	0.377056	0.296091	0.002196	-0.004393	-0.004707	-0.825073	-0.644653	-0.289429	434	17_29_14_2240000
0.879513	0.377270	0.296091	-0.008158	0.002196	-0.009099	-0.825073	-0.644653	-0.289429	435	17_29_14_2320000
0.879513	0.377056	0.296091	-0.014120	-0.003138	0.005020	-0.825073	-0.644653	-0.289429	436	17_29_14_2400000
0.879513	0.377056	0.296091	-0.009727	0.001569	-0.003765	-0.825073	-0.644653	-0.289551	437	17_29_14_2480000
0.879513	0.377056	0.296091	-0.003138	0.002196	0.005020	-0.825073	-0.644653	-0.289551	438	17_29_14_2560000
0.879513	0.377056	0.296091	0.002510	0.009727	-0.005334	-0.825073	-0.644653	-0.289551	439	17_29_14_2640000
0.879513	0.377056	0.296304	-0.002196	0.002196	-0.005648	-0.824951	-0.644653	-0.289673	440	17_29_14_2720000
0.879513	0.377056	0.296304	0.004707	0.003765	0.003452	-0.824951	-0.644653	-0.289673	441	17_29_14_2800000
0.879513	0.377056	0.296304	0.010668	-0.004393	-0.000628	-0.824951	-0.644653	-0.289551	442	17_29_14_2880000
0.879513	0.377270	0.296304	0.002824	0.002510	-0.003765	-0.824951	-0.644653	-0.289551	443	17_29_14_2960000
0.879513	0.377270	0.296304	-0.010668	0.006589	-0.000314	-0.824951	-0.644653	-0.289551	444	17_29_14_3040000
0.879513	0.377270	0.296304	0.003765	0.000941	-0.001255	-0.824951	-0.644653	-0.289673	445	17_29_14_3120000
0.879299	0.377270	0.296304	-0.003138	-0.004707	-0.011923	-0.824951	-0.644775	-0.289673	446	17_29_14_3200000
0.879299	0.377270	0.296304	-0.009413	0.002196	0.000314	-0.824951	-0.644775	-0.289673	447	17_29_14_3280000
0.879299	0.377270	0.296304	-0.006275	0.007844	0.002824	-0.824951	-0.644775	-0.289673	448	17_29_14_3360000
0.879299	0.377270	0.296518	0.000314	-0.000628	0.002510	-0.824951	-0.644653	-0.289795	449	17_29_14_3440000
0.879299	0.377270	0.296518	0.016003	-0.001883	0.002824	-0.824951	-0.644653	-0.289673	450	17_29_14_3520000
0.879513	0.377270	0.296304	0.015375	-0.006275	0.007844	-0.824951	-0.644653	-0.289551	451	17_29_14_3600000
0.879513	0.377056	0.296304	0.004707	-0.010355	0.005648	-0.825073	-0.644653	-0.289429	452	17_29_14_3680000
0.879513	0.377056	0.296304	-0.001255	-0.011923	0.000941	-0.825073	-0.644653	-0.289429	453	17_29_14_3760000
0.879513	0.377056	0.296091	-0.003452	-0.010982	-0.001883	-0.825073	-0.644653	-0.289307	454	17_29_14_3840000
0.879513	0.377056	0.296091	0.001255	-0.003452	-0.003765	-0.825073	-0.644653	-0.289307	455	17_29_14_3920000
0.879513	0.377056	0.296091	-0.000628	0.001255	0.004393	-0.825073	-0.644653	-0.289307	456	17_29_14_4000000
0.879513	0.377056	0.296091	-0.019768	0.012237	0.001569	-0.825073	-0.644653	-0.289307	457	17_29_14_4080000
0.879513	0.377056	0.296304	-0.010041	0.004707	-0.005334	-0.825073	-0.644653	-0.289429	458	17_29_14_4160000
0.879513	0.377056	0.296304	-0.003138	-0.000941	0.005648	-0.825073	-0.644531	-0.289551	459	17_29_14_4240000
0.879513	0.377056	0.296304	0.011610	-0.000314	-0.008158	-0.825073	-0.644653	-0.289429	460	17_29_14_4320000
0.879513	0.377056	0.296304	-0.000314	-0.003765	0.014120	-0.825073	-0.644531	-0.289429	461	17_29_14_4400000
0.879513	0.376843	0.296304	0.011296	-0.002824	0.016944	-0.825195	-0.644531	-0.289429	462	17_29_14_4480000
0.879513	0.376843	0.296304	0.011296	-0.003452	0.000628	-0.825317	-0.644409	-0.289307	463	17_29_14_4560000
0.879513	0.376843	0.296304	-0.010668	0.010982	0.011296	-0.825317	-0.644409	-0.289307	464	17_29_14_4640000
0.879513	0.376843	0.296304	-0.003452	0.005334	0.000314	-0.825317	-0.644409	-0.289429	465	17_29_14_4720000
0.879513	0.376843	0.296304	0.004707	-0.004079	0.005962	-0.825317	-0.644287	-0.289429	466	17_29_14_4800000
0.879727	0.376629	0.296304	-0.000314	-0.015375	0.010668	-0.825439	-0.644287	-0.289307	467	17_29_14_4880000
0.879727	0.376629	0.296304	-0.001569	-0.009727	-0.005962	-0.825439	-0.644287	-0.289185	468	17_29_14_4960000
0.879727	0.376629	0.296091	0.004079	-0.004079	-0.003452	-0.825439	-0.644287	-0.289185	469	17_29_14_5040000
0.879727	0.376629	0.296091	-0.005334	-0.006275	0.004393	-0.825439	-0.644287	-0.289185	470	17_29_14_5120000
0.879727	0.376629	0.296091	-0.002510	0.002196	-0.005334	-0.825439	-0.644287	-0.289185	471	17_29_14_5200000
0.879727	0.376843	0.296091	0.004079	0.003765	-0.010982	-0.825439	-0.644287	-0.289185	472	17_29_14_5280000
0.879513	0.376843	0.296304	0.000000	0.003765	-0.006903	-0.825317	-0.644409	-0.289185	473	17_29_14_5360000
0.879513	0.376843	0.296304	-0.003138	-0.000314	-0.006275	-0.825317	-0.644409	-0.289185	474	17_29_14_5440000
0.879513	0.376843	0.296304	0.000628	-0.004393	0.006275	-0.825317	-0.644409	-0.289185	475	17_29_14_5520000
0.879513	0.376843	0.296304	0.010982	-0.003138	0.005962	-0.825317	-0.644409	-0.289063	476	17_29_14_5600000
0.879727	0.376843	0.296091	0.000000	-0.017885	0.001883	-0.825439	-0.644409	-0.289063	477	17_29_14_5680000
0.879727	0.376843	0.296091	0.002196	0.000941	0.012551	-0.825439	-0.644409	-0.288940	478	17_29_14_5760000
0.879727	0.376629	0.296091	-0.001569	0.010982	0.002196	-0.825439	-0.644287	-0.288940	479	17_29_14_5840000
0.879727	0.376843	0.296091	0.005648	0.001569	-0.010668	-0.825439	-0.644287	-0.288940	480	17_29_14_5920000
0.879727	0.376843	0.296091	-0.001255	-0.007217	-0.005334	-0.825439	-0.644409	-0.288940	481	17_29_14_6000000
0.879727	0.376843	0.296091	0.010355	-0.011610	-0.005962	-0.825439	-0.644409	-0.288818	482	17_29_14_6080000
0.879727	0.376843	0.296091	0.007217	-0.003138	-0.007531	-0.825439	-0.644531	-0.288818	483	17_29_14_6160000
0.879727	0.377056	0.295877	0.005648	-0.001883	-0.004079	-0.825439	-0.644531	-0.288696	484	17_29_14_6240000
0.879513	0.377056	0.295877	-0.007217	-0.007531	-0.013492	-0.825317	-0.644653	-0.288696	485	17_29_14_6320000
0.879513	0.377056	0.295877	-0.007531	0.003765	0.004393	-0.825317	-0.644653	-0.288696	486	17_29_14_6400000
0.879513	0.377056	0.296091	-0.011923	0.011923	0.002196	-0.825317	-0.644531	-0.288818	487	17_29_14_6480000
0.879513	0.377056	0.296091	-0.004707	0.002196	-0.003138	-0.825317	-0.644531	-0.288940	488	17_29_14_6560000
0.879513	0.377056	0.296091	-0.007217	0.000314	-0.008786	-0.825317	-0.644531	-0.288940	489	17_29_14_6640000
0.879513	0.377056	0.296091	0.011923	0.003765	0.005962	-0.825317	-0.644531	-0.288940	490	17_29_14_6720000
0.879513	0.377056	0.296304	0.005020	0.012551	0.005020	-0.825317	-0.644531	-0.288940	491	17_29_14_6800000
0.879513	0.377056	0.296304	-0.005020	0.004707	-0.002196	-0.825317	-0.644531	-0.288940	492	17_29_14_6880000
0.879513	0.377056	0.296304	0.002196	0.004707	0.000628	-0.825317	-0.644531	-0.289063	493	17_29_14_6960000
0.879513	0.377056	0.296304	-0.007217	-0.005962	-0.005334	-0.825317	-0.644531	-0.289063	494	17_29_14_7040000
0.879513	0.377056	0.296304	-0.008472	-0.002824	0.000314	-0.825317	-0.644531	-0.289063	495	17_29_14_7120000
0.879513	0.377056	0.296304	-0.008472	-0.007531	-0.005648	-0.825317	-0.644531	-0.289063	496	17_29_14_7200000
0.879513	0.377056	0.296304	0.008472	0.001883	-0.005334	-0.825195	-0.644653	-0.289063	497	17_29_14_7280000
0.879513	0.377056	0.296304	-0.002824	0.002510	-0.005334	-0.825195	-0.644653	-0.288940	498	17_29_14_7360000
0.879513	0.377056	0.296304	0.007217	0.001255	0.005020	-0.825195	-0.644653	-0.288940	499	17_29_14_7440000
0.879513	0.377056	0.296304	0.004393	-0.006903	0.003138	-0.825195	-0.644653	-0.288940	500	17_29_14_7520000
0.879513	0.377056	0.296304	-0.005648	-0.008472	-0.009413	-0.825317	-0.644653	-0.288940	501	17_29_14_7600000
0.879513	0.377056	0.296304	0.005334	-0.000628	-0.000941	-0.825195	-0.644653	-0.288818	502	17_29_14_7680000
0.879513	0.377056	0.296304	-0.001255	0.000000	0.005334	-0.825317	-0.644653	-0.288818	503	17_29_14_7760000
0.879513	0.377056	0.296304	0.013806	-0.011923	0.011296	-0.825317	-0.644653	-0.288818	504	17_29_14_7840000
0.879513	0.377056	0.296091	0.019768	-0.013179	0.000628	-0.825439	-0.644653	-0.288574	505	17_29_14_7920000
0.879513	0.377056	0.295877	0.017571	-0.005962	-0.009413	-0.825439	-0.644653	-0.288452	506	17_29_14_8000000
0.879513	0.377270	0.295877	0.005648	-0.003765	-0.005648	-0.825317	-0.644775	-0.288330	507	17_29_14_8080000
0.879513	0.377270	0.295877	-0.015061	0.004707	0.000628	-0.825317	-0.644775	-0.288330	508	17_29_14_8160000
0.879513	0.377056	0.296091	0.001255	0.009727	0.003452	-0.825317	-0.644775	-0.288452	509	17_29_14_8240000
0.879513	0.377056	0.296091	-0.007217	0.009099	0.005334	-0.825317	-0.644653	-0.288574	510	17_29_14_8320000
0.879513	0.377056	0.296091	-0.015375	0.004393	-0.007844	-0.825317	-0.644653	-0.288574	511	17_29_14_8400000
0.879513	0.377056	0.296304	-0.017571	0.009727	-0.001569	-0.825317	-0.644653	-0.288696	512	17_29_14_8480000
0.879513	0.377056	0.296518	-0.016003	0.006903	0.002196	-0.825317	-0.644653	-0.288818	513	17_29_14_8560000
0.879299	0.377056	0.296518	-0.016944	0.005962	-0.005962	-0.825317	-0.644531	-0.288940	514	17_29_14_8640000
0.879299	0.377056	0.296518	-0.017885	-0.003452	0.001569	-0.825317	-0.644531	-0.289063	515	17_29_14_8720000
0.879299	0.376843	0.296518	0.016316	0.000941	0.004393	-0.825317	-0.644531	-0.289063	516	17_29_14_8800000
0.879299	0.377056	0.296518	-0.003452	0.003138	-0.005334	-0.825317	-0.644531	-0.289063	517	17_29_14_8880000
0.879299	0.377056	0.296518	-0.011610	0.000941	0.000314	-0.825317	-0.644531	-0.289063	518	17_29_14_8960000
0.879299	0.376843	0.296731	0.005020	0.014120	0.003138	-0.825195	-0.644531	-0.289185	519	17_29_14_9040000
0.879299	0.376843	0.296731	-0.001255	0.004079	0.002196	-0.825195	-0.644531	-0.289185	520	17_29_14_9120000
0.879299	0.376843	0.296731	-0.008472	0.004393	0.000941	-0.825195	-0.644531	-0.289307	521	17_29_14_9200000
0.879299	0.376843	0.296945	0.001883	0.012551	-0.002510	-0.825195	-0.644531	-0.289307	522	17_29_14_9280000
0.879299	0.376843	0.296945	0.002824	-0.005962	-0.003138	-0.825195	-0.644531	-0.289307	523	17_29_14_9360000
0.879299	0.376843	0.296945	-0.003138	-0.016316	0.003138	-0.825195	-0.644531	-0.289185	524	17_29_14_9440000
0.879299	0.376843	0.296731	0.009099	-0.006903	0.003138	-0.825317	-0.644531	-0.289185	525	17_29_14_9520000
0.879299	0.376843	0.296731	-0.002824	-0.004393	0.000314	-0.825317	-0.644531	-0.289063	526	17_29_14_9600000
0.879513	0.376843	0.296731	-0.003138	-0.006903	0.012551	-0.825317	-0.644409	-0.289063	527	17_29_14_9680000
0.879513	0.376629	0.296731	-0.005020	-0.014434	0.012865	-0.825439	-0.644409	-0.289063	528	17_29_14_9760000
0.879513	0.376629	0.296518	-0.013492	-0.010355	0.009099	-0.825562	-0.644287	-0.288940	529	17_29_14_9840000
0.879513	0.376629	0.296518	0.002510	-0.005334	0.002196	-0.825562	-0.644165	-0.288940	530	17_29_14_9920000
0.879513	0.376629	0.296518	0.010982	0.003765	-0.003138	-0.825562	-0.644287	-0.288940	531	17_29_15_0000000
0.879513	0.376629	0.296518	-0.002824	0.004079	0.001883	-0.825562	-0.644287	-0.288940	532	17_29_15_0080000
0.879513	0.376629	0.296518	0.001569	0.001569	-0.005962	-0.825562	-0.644287	-0.288940	533	17_29_15_0160000
0.879513	0.376629	0.296731	-0.005020	0.005020	0.002510	-0.825562	-0.644287	-0.288940	534	17_29_15_0240000
0.879513	0.376629	0.296731	-0.003138	-0.003138	0.002824	-0.825562	-0.644287	-0.288940	535	17_29_15_0320000
0.879513	0.376629	0.296731	-0.003452	0.005020	0.000314	-0.825562	-0.644165	-0.288940	536	17_29_15_0400000
0.879513	0.376415	0.296731	0.001883	-0.008472	0.007217	-0.825562	-0.644165	-0.288940	537	17_29_15_0480000
0.879513	0.376415	0.296731	-0.017571	0.000628	-0.005648	-0.825562	-0.644165	-0.288940	538	17_29_15_0560000
0.879513	0.376415	0.296731	-0.006589	-0.003765	0.003138	-0.825562	-0.644165	-0.289063	539	17_29_15_0640000
0.879513	0.376415	0.296731	0.000941	0.001883	0.005648	-0.825684	-0.644165	-0.289063	540	17_29_15_0720000
0.879513	0.376415	0.296731	-0.004393	0.005334	0.009727	-0.825684	-0.644043	-0.289063	541	17_29_15_0800000
0.879513	0.376202	0.296731	-0.018826	-0.001569	0.011610	-0.825684	-0.643921	-0.289063	542	17_29_15_0880000
0.879513	0.376202	0.296945	0.000314	0.015061	0.000941	-0.825806	-0.643921	-0.289185	543	17_29_15_0960000
0.879513	0.376202	0.296945	0.012237	0.020082	0.000941	-0.825684	-0.643921	-0.289307	544	17_29_15_1040000
0.879513	0.376202	0.297159	0.000628	0.003765	-0.005648	-0.825684	-0.643921	-0.289307	545	17_29_15_1120000
0.879513	0.376202	0.297159	0.005648	0.012551	0.004707	-0.825684	-0.643921	-0.289307	546	17_29_15_1200000
0.879513	0.376202	0.297159	-0.004707	0.006589	0.001569	-0.825684	-0.643921	-0.289429	547	17_29_15_1280000
0.879513	0.376202	0.297159	0.000941	0.009099	0.005962	-0.825684	-0.643921	-0.289429	548	17_29_15_1360000
0.879513	0.376202	0.297372	0.001569	0.000941	0.003765	-0.825684	-0.643799	-0.289429	549	17_29_15_1440000
0.879513	0.376202	0.297372	0.001569	-0.004079	0.002196	-0.825684	-0.643799	-0.289429	550	17_29_15_1520000
0.879513	0.376202	0.297159	0.000314	-0.007217	-0.001883	-0.825684	-0.643799	-0.289429	551	17_29_15_1600000
0.879513	0.376202	0.297159	0.001883	-0.006275	0.000000	-0.825684	-0.643799	-0.289307	552	17_29_15_1680000
0.879513	0.376202	0.297159	-0.002824	0.000941	-0.003138	-0.825684	-0.643921	-0.289307	553	17_29_15_1760000
0.879513	0.376202	0.297159	-0.012865	0.005020	0.002510	-0.825684	-0.643799	-0.289429	554	17_29_15_1840000
0.879513	0.376202	0.297159	-0.000314	-0.012237	-0.005962	-0.825684	-0.643799	-0.289429	555	17_29_15_1920000
0.879513	0.376202	0.297159	0.013806	0.002824	0.005020	-0.825684	-0.643921	-0.289307	556	17_29_15_2000000
0.879513	0.376202	0.297159	0.001255	0.005962	0.010982	-0.825806	-0.643799	-0.289307	557	17_29_15_2080000
0.879513	0.376202	0.297372	0.003138	0.009413	-0.003452	-0.825806	-0.643799	-0.289307	558	17_29_15_2160000
0.879513	0.376202	0.297372	-0.007531	0.003765	0.003452	-0.825806	-0.643799	-0.289429	559	17_29_15_2240000
0.879513	0.375988	0.297372	-0.012865	-0.003452	-0.007844	-0.825806	-0.643799	-0.289429	560	17_29_15_2320000
0.879513	0.376202	0.297372	-0.005648	-0.003138	-0.008786	-0.825684	-0.643799	-0.289429	561	17_29_15_2400000
0.879513	0.376202	0.297372	-0.010041	-0.004393	-0.013806	-0.825684	-0.643921	-0.289429	562	17_29_15_2480000
0.879513	0.376202	0.297372	0.007531	-0.003138	-0.000314	-0.825684	-0.643921	-0.289429	563	17_29_15_2560000
0.879513	0.376202	0.297372	0.001569	0.002824	0.004707	-0.825684	-0.643921	-0.289429	564	17_29_15_2640000
0.879513	0.376202	0.297372	0.001569	-0.001883	0.007217	-0.825684	-0.643921	-0.289429	565	17_29_15_2720000
0.879513	0.376202	0.297372	0.001569	-0.003138	0.008158	-0.825806	-0.643799	-0.289429	566	17_29_15_2800000
0.879513	0.375988	0.297372	0.003452	0.000000	0.006275	-0.825806	-0.643799	-0.289307	567	17_29_15_2880000
0.879513	0.375988	0.297372	0.005962	0.010355	0.003138	-0.825806	-0.643799	-0.289307	568	17_29_15_2960000
0.879513	0.376202	0.297372	0.000000	-0.001255	-0.016944	-0.825806	-0.643799	-0.289429	569	17_29_15_3040000
0.879513	0.376202	0.297372	0.005648	-0.001569	0.000941	-0.825684	-0.643799	-0.289307	570	17_29_15_3120000
0.879513	0.376202	0.297372	0.003138	-0.007217	-0.000314	-0.825684	-0.643921	-0.289307	571	17_29_15_3200000
0.879513	0.376202	0.297372	-0.011610	-0.003452	0.007217	-0.825806	-0.643799	-0.289307	572	17_29_15_3280000
0.879513	0.375988	0.297372	-0.002824	-0.004079	0.005648	-0.825806	-0.643799	-0.289307	573	17_29_15_3360000
0.879513	0.375988	0.297372	0.003765	0.006275	0.013179	-0.825806	-0.643677	-0.289307	574	17_29_15_3440000
0.879513	0.375988	0.297372	0.012237	-0.004079	-0.002510	-0.825928	-0.643677	-0.289185	575	17_29_15_3520000
0.879513	0.375988	0.297372	-0.017258	-0.002196	0.001883	-0.825928	-0.643677	-0.289185	576	17_29_15_3600000
0.879513	0.375988	0.297372	0.006903	-0.006903	-0.005334	-0.825928	-0.643677	-0.289185	577	17_29_15_3680000
0.879513	0.375988	0.297372	0.010041	0.000941	0.001255	-0.825928	-0.643677	-0.289185	578	17_29_15_3760000
0.879513	0.375988	0.297372	0.018513	0.004393	0.000941	-0.825928	-0.643799	-0.289063	579	17_29_15_3840000
0.879513	0.375988	0.297372	-0.006903	0.002510	-0.005962	-0.825928	-0.643799	-0.289063	580	17_29_15_3920000
0.879513	0.375988	0.297372	-0.003452	-0.001569	-0.005648	-0.825806	-0.643799	-0.289063	581	17_29_15_4000000
0.879513	0.376202	0.297372	-0.002510	0.002824	-0.011610	-0.825806	-0.643799	-0.289063	582	17_29_15_4080000
0.879513	0.376202	0.297372	0.010355	0.001255	0.000941	-0.825806	-0.643921	-0.289063	583	17_29_15_4160000
0.879513	0.376202	0.297372	-0.015689	-0.006275	-0.000314	-0.825806	-0.643921	-0.289063	584	17_29_15_4240000
0.879513	0.376202	0.297372	0.003452	0.002824	0.003765	-0.825806	-0.643799	-0.289063	585	17_29_15_4320000
0.879513	0.376202	0.297372	0.013492	-0.005020	-0.001255	-0.825806	-0.643799	-0.289063	586	17_29_15_4400000
0.879513	0.376202	0.297372	0.018826	0.001255	0.005020	-0.825806	-0.643921	-0.288940	587	17_29_15_4480000
0.879513	0.376202	0.297372	-0.008158	0.002196	-0.010041	-0.825806	-0.643921	-0.288940	588	17_29_15_4560000
0.879513	0.376202	0.297372	0.006903	-0.007531	-0.005334	-0.825806	-0.643921	-0.288940	589	17_29_15_4640000
0.879513	0.376202	0.297372	-0.006903	0.002510	0.002196	-0.825806	-0.643921	-0.288940	590	17_29_15_4720000
0.879513	0.376202	0.297372	-0.001255	0.002510	-0.007531	-0.825806	-0.643921	-0.288940	591	17_29_15_4800000
0.879513	0.376202	0.297372	0.003452	0.001255	-0.005334	-0.825684	-0.644043	-0.288940	592	17_29_15_4880000
0.879513	0.376415	0.297372	-0.011923	0.000314	-0.007217	-0.825684	-0.644043	-0.288940	593	17_29_15_4960000
0.879513	0.376415	0.297372	-0.004707	-0.006903	-0.008158	-0.825684	-0.644043	-0.288940	594	17_29_15_5040000
0.879513	0.376415	0.297372	-0.012237	-0.006589	0.000941	-0.825684	-0.644043	-0.288940	595	17_29_15_5120000
0.879513	0.376202	0.297372	-0.009099	-0.008786	0.005962	-0.825684	-0.644043	-0.288940	596	17_29_15_5200000
0.879513	0.376202	0.297372	0.001569	-0.005020	-0.005334	-0.825684	-0.644043	-0.288940	597	17_29_15_5280000
0.879513	0.376202	0.297372	-0.009727	-0.013179	-0.001569	-0.825684	-0.644043	-0.288940	598	17_29_15_5360000
0.879513	0.376202	0.297159	0.001255	-0.008158	0.002196	-0.825806	-0.644043	-0.288818	599	17_29_15_5440000
0.879513	0.376202	0.297159	-0.002824	-0.006589	-0.011923	-0.825806	-0.644043	-0.288818	600	17_29_15_5520000
0.879513	0.376415	0.297159	-0.011296	-0.010041	-0.010355	-0.825684	-0.644043	-0.288818	601	17_29_15_5600000
0.879513	0.376415	0.297159	-0.012237	-0.007531	-0.003765	-0.825684	-0.644043	-0.288818	602	17_29_15_5680000
0.879513	0.376415	0.297159	0.009099	-0.005334	-0.005648	-0.825684	-0.644165	-0.288696	603	17_29_15_5760000
0.879513	0.376415	0.296945	0.005020	-0.007217	0.000628	-0.825684	-0.644165	-0.288696	604	17_29_15_5840000
0.879513	0.376415	0.296945	0.012865	-0.007531	-0.003452	-0.825684	-0.644165	-0.288574	605	17_29_15_5920000
0.879513	0.376415	0.296945	0.016316	0.002510	0.009099	-0.825684	-0.644165	-0.288452	606	17_29_15_6000000
0.879513	0.376415	0.296945	-0.002824	0.008472	0.010041	-0.825806	-0.644165	-0.288452	607	17_29_15_6080000
0.879513	0.376415	0.296945	-0.005962	0.011923	-0.005962	-0.825806	-0.644165	-0.288574	608	17_29_15_6160000
0.879513	0.376415	0.297159	-0.003765	0.014747	-0.008472	-0.825684	-0.644165	-0.288696	609	17_29_15_6240000
0.879513	0.376415	0.297159	0.000941	0.006589	-0.001255	-0.825684	-0.644165	-0.288696	610	17_29_15_6320000
0.879513	0.376415	0.297159	-0.003765	-0.006589	0.002196	-0.825684	-0.644165	-0.288696	611	17_29_15_6400000
0.879513	0.376415	0.297159	0.012237	0.005648	0.000941	-0.825684	-0.644165	-0.288696	612	17_29_15_6480000
0.879513	0.376415	0.297159	0.009727	0.004707	0.002824	-0.825684	-0.644165	-0.288696	613	17_29_15_6560000
0.879513	0.376415	0.297372	0.002510	0.006903	0.000628	-0.825684	-0.644165	-0.288696	614	17_29_15_6640000
0.879299	0.376415	0.297372	0.005334	0.005020	0.003765	-0.825684	-0.644165	-0.288696	615	17_29_15_6720000
0.879299	0.376415	0.297372	0.004707	0.004707	-0.003138	-0.825684	-0.644165	-0.288696	616	17_29_15_6800000
0.879299	0.376415	0.297372	0.001569	0.000314	0.001883	-0.825684	-0.644165	-0.288696	617	17_29_15_6880000
0.879299	0.376415	0.297372	0.020395	-0.004079	-0.001255	-0.825684	-0.644165	-0.288574	618	17_29_15_6960000
0.879299	0.376415	0.297372	0.004079	-0.005962	-0.006903	-0.825684	-0.644287	-0.288452	619	17_29_15_7040000
0.879299	0.376629	0.297159	-0.006903	-0.002824	-0.008472	-0.825562	-0.644287	-0.288452	620	17_29_15_7120000
0.879299	0.376629	0.297372	-0.005962	0.012237	0.006589	-0.825562	-0.644287	-0.288574	621	17_29_15_7200000
0.879299	0.376629	0.297372	-0.002510	0.005020	-0.004707	-0.825562	-0.644287	-0.288574	622	17_29_15_7280000
0.879299	0.376629	0.297372	0.000000	-0.001569	0.000314	-0.825562	-0.644287	-0.288574	623	17_29_15_7360000
0.879299	0.376629	0.297372	0.003765	0.008158	0.000000	-0.825562	-0.644287	-0.288574	624	17_29_15_7440000
0.879299	0.376629	0.297372	0.001255	0.000628	-0.008786	-0.825562	-0.644287	-0.288696	625	17_29_15_7520000
0.879299	0.376629	0.297586	-0.009099	-0.003765	-0.012551	-0.825439	-0.644409	-0.288696	626	17_29_15_7600000
0.879299	0.376629	0.297586	-0.020709	0.000000	-0.002196	-0.825439	-0.644409	-0.288696	627	17_29_15_7680000
0.879299	0.376629	0.297586	-0.005334	-0.001255	0.010355	-0.825439	-0.644287	-0.288818	628	17_29_15_7760000
0.879299	0.376415	0.297586	-0.009727	-0.005962	0.005020	-0.825562	-0.644287	-0.288818	629	17_29_15_7840000
0.879299	0.376415	0.297586	-0.006903	0.008158	0.000000	-0.825562	-0.644287	-0.288818	630	17_29_15_7920000
0.879299	0.376415	0.297586	-0.000314	-0.012237	0.000628	-0.825562	-0.644165	-0.288818	631	17_29_15_8000000
0.879299	0.376415	0.297586	0.001883	-0.008786	-0.000941	-0.825562	-0.644165	-0.288696	632	17_29_15_8080000
0.879299	0.376415	0.297586	0.012865	-0.002510	0.006903	-0.825562	-0.644165	-0.288696	633	17_29_15_8160000
0.879299	0.376415	0.297372	0.029809	0.009099	-0.004079	-0.825562	-0.644287	-0.288574	634	17_29_15_8240000
0.879299	0.376629	0.297586	-0.001569	0.010668	-0.000314	-0.825562	-0.644287	-0.288574	635	17_29_15_8320000
0.879299	0.376629	0.297586	0.012237	0.006275	-0.005334	-0.825562	-0.644287	-0.288574	636	17_29_15_8400000
0.879299	0.376629	0.297586	0.000314	0.002510	0.002510	-0.825562	-0.644287	-0.288574	637	17_29_15_8480000
0.879299	0.376629	0.297586	0.003765	-0.008158	0.003138	-0.825562	-0.644287	-0.288574	638	17_29_15_8560000
0.879299	0.376629	0.297586	0.005962	0.010982	0.011610	-0.825562	-0.644287	-0.288574	639	17_29_15_8640000
0.879299	0.376415	0.297586	0.014747	0.000314	0.010041	-0.825684	-0.644287	-0.288452	640	17_29_15_8720000
0.879299	0.376415	0.297586	-0.007531	0.000941	0.005962	-0.825684	-0.644165	-0.288452	641	17_29_15_8800000
0.879299	0.376415	0.297586	-0.009413	0.001255	0.010668	-0.825684	-0.644165	-0.288574	642	17_29_15_8880000
0.879299	0.376202	0.297586	-0.002510	0.008786	0.010355	-0.825806	-0.644043	-0.288574	643	17_29_15_8960000
0.879299	0.376202	0.297800	0.009413	-0.000941	0.010355	-0.825806	-0.643921	-0.288574	644	17_29_15_9040000
0.879299	0.376202	0.297800	0.005962	0.003138	0.004393	-0.825806	-0.643921	-0.288574	645	17_29_15_9120000
0.879299	0.376202	0.297586	0.000314	-0.010982	-0.003138	-0.825806	-0.643921	-0.288452	646	17_29_15_9200000
0.879513	0.376202	0.297586	0.001883	-0.009727	0.005648	-0.825928	-0.643921	-0.288452	647	17_29_15_9280000
0.879513	0.376202	0.297586	0.007217	0.004393	0.006903	-0.825928	-0.643921	-0.288330	648	17_29_15_9360000
0.879513	0.376202	0.297586	-0.003765	0.002196	0.001255	-0.825928	-0.643921	-0.288330	649	17_29_15_9440000
0.879513	0.375988	0.297586	-0.007531	-0.004079	0.004393	-0.825928	-0.643799	-0.288452	650	17_29_15_9520000
0.879513	0.375988	0.297586	-0.002824	0.008472	0.003765	-0.825928	-0.643799	-0.288452	651	17_29_15_9600000
0.879513	0.375988	0.297586	-0.000314	-0.001883	0.004707	-0.825928	-0.643799	-0.288452	652	17_29_15_9680000
0.879513	0.375988	0.297586	0.013806	-0.004707	-0.001255	-0.826050	-0.643799	-0.288452	653	17_29_15_9760000
0.879513	0.375988	0.297586	-0.002510	0.005648	0.013492	-0.826050	-0.643799	-0.288330	654	17_29_15_9840000
0.879513	0.375988	0.297586	0.002510	-0.016003	0.000314	-0.826050	-0.643677	-0.288330	655	17_29_15_9920000
0.879513	0.375988	0.297586	-0.009099	-0.010041	-0.005020	-0.826050	-0.643677	-0.288208	656	17_29_16_0000000
0.879513	0.375988	0.297586	-0.016003	-0.002510	0.001255	-0.826050	-0.643677	-0.288330	657	17_29_16_0080000
0.879513	0.375988	0.297586	0.004707	0.008158	-0.003765	-0.826050	-0.643677	-0.288330	658	17_29_16_0160000
0.879513	0.375988	0.297586	-0.002510	0.010668	0.000314	-0.826050	-0.643677	-0.288330	659	17_29_16_0240000
0.879513	0.375988	0.297800	0.001883	0.005334	0.004079	-0.826050	-0.643677	-0.288452	660	17_29_16_0320000
0.879513	0.375774	0.297800	0.004393	0.006275	0.005334	-0.826050	-0.643677	-0.288452	661	17_29_16_0400000
0.879513	0.375774	0.297800	-0.013492	0.014747	-0.003138	-0.826050	-0.643677	-0.288574	662	17_29_16_0480000
0.879513	0.375774	0.298013	-0.037025	-0.006903	-0.007531	-0.826050	-0.643677	-0.288696	663	17_29_16_0560000
0.879513	0.375774	0.298013	-0.008786	-0.003138	0.000000	-0.826050	-0.643555	-0.288696	664	17_29_16_0640000
0.879513	0.375774	0.298013	-0.002510	0.001255	0.001255	-0.826050	-0.643555	-0.288818	665	17_29_16_0720000
0.879513	0.375774	0.298013	-0.003765	0.004707	0.019454	-0.826050	-0.643555	-0.288818	666	17_29_16_0800000
0.879513	0.375561	0.298013	0.003138	0.008158	-0.001883	-0.826050	-0.643433	-0.288818	667	17_29_16_0880000
0.879513	0.375774	0.298013	0.004079	-0.001569	-0.013492	-0.826050	-0.643555	-0.288818	668	17_29_16_0960000
0.879513	0.375774	0.298013	0.012551	-0.005020	0.004393	-0.826050	-0.643555	-0.288818	669	17_29_16_1040000
0.879513	0.375774	0.298013	0.003138	0.000314	0.002196	-0.826050	-0.643555	-0.288696	670	17_29_16_1120000
0.879513	0.375774	0.298013	0.010041	0.004393	0.014747	-0.826172	-0.643555	-0.288696	671	17_29_16_1200000
0.879513	0.375561	0.298013	0.008158	0.007531	0.007531	-0.826172	-0.643433	-0.288696	672	17_29_16_1280000
0.879513	0.375561	0.298013	-0.004707	0.004707	-0.002196	-0.826172	-0.643433	-0.288696	673	17_29_16_1360000
0.879513	0.375561	0.298013	-0.005962	-0.011923	-0.007217	-0.826172	-0.643433	-0.288696	674	17_29_16_1440000
0.879513	0.375561	0.298013	-0.001569	-0.003765	0.002824	-0.826172	-0.643433	-0.288696	675	17_29_16_1520000
0.879513	0.375561	0.298013	-0.010041	-0.007844	-0.005962	-0.826172	-0.643433	-0.288696	676	17_29_16_1600000
0.879513	0.375774	0.298013	0.018826	-0.000941	0.001255	-0.826172	-0.643433	-0.288574	677	17_29_16_1680000
0.879513	0.375774	0.298013	0.008158	0.003452	0.006275	-0.826172	-0.643433	-0.288574	678	17_29_16_1760000
0.879513	0.375561	0.298013	-0.016630	0.007531	-0.004707	-0.826172	-0.643433	-0.288574	679	17_29_16_1840000
0.879513	0.375561	0.298227	-0.023847	0.004079	-0.000941	-0.826172	-0.643433	-0.288696	680	17_29_16_1920000
0.879513	0.375561	0.298227	-0.007531	0.001255	0.000000	-0.826172	-0.643433	-0.288818	681	17_29_16_2000000
0.879513	0.375561	0.298227	-0.011923	0.008786	-0.008158	-0.826172	-0.643433	-0.288940	682	17_29_16_2080000
0.879299	0.375561	0.298441	-0.003452	0.004393	-0.001255	-0.826050	-0.643433	-0.288940	683	17_29_16_2160000
0.879299	0.375561	0.298441	-0.011296	-0.005648	0.003138	-0.826050	-0.643433	-0.289063	684	17_29_16_2240000
0.879513	0.375561	0.298441	0.012551	-0.011610	0.000941	-0.826172	-0.643311	-0.288940	685	17_29_16_2320000
0.879513	0.375561	0.298227	-0.003452	-0.003452	0.008472	-0.826172	-0.643311	-0.288818	686	17_29_16_2400000
0.879513	0.375561	0.298227	0.010668	-0.011296	0.000000	-0.826172	-0.643311	-0.288818	687	17_29_16_2480000
0.879513	0.375561	0.298227	0.005962	-0.009727	-0.001255	-0.826172	-0.643311	-0.288696	688	17_29_16_2560000
0.879513	0.375561	0.298013	-0.002824	-0.005962	0.005334	-0.826294	-0.643311	-0.288574	689	17_29_16_2640000
0.879513	0.375561	0.298013	0.005334	-0.009413	0.004707	-0.826294	-0.643311	-0.288574	690	17_29_16_2720000
0.879513	0.375561	0.298013	-0.000628	-0.003765	0.000941	-0.826294	-0.643311	-0.288452	691	17_29_16_2800000
0.879513	0.375347	0.298013	-0.002510	0.002824	0.002196	-0.826294	-0.643311	-0.288452	692	17_29_16_2880000
0.879513	0.375347	0.298013	-0.017571	-0.001569	0.001883	-0.826294	-0.643188	-0.288574	693	17_29_16_2960000
0.879513	0.375347	0.298013	-0.021337	-0.008158	-0.003452	-0.826416	-0.643188	-0.288574	694	17_29_16_3040000
0.879513	0.375347	0.298013	0.007531	-0.001255	-0.007844	-0.826294	-0.643188	-0.288574	695	17_29_16_3120000
0.879513	0.375561	0.298013	0.004707	-0.008158	-0.012237	-0.826294	-0.643311	-0.288574	696	17_29_16_3200000
0.879513	0.375561	0.298013	-0.004079	-0.001569	-0.005648	-0.826294	-0.643311	-0.288574	697	17_29_16_3280000
0.879513	0.375561	0.298013	-0.006589	-0.004707	0.009099	-0.826294	-0.643311	-0.288574	698	17_29_16_3360000
0.879513	0.375561	0.298013	0.003452	0.001255	0.002824	-0.826294	-0.643311	-0.288452	699	17_29_16_3440000
0.879513	0.375561	0.298013	-0.002510	-0.005334	-0.007531	-0.826294	-0.643311	-0.288452	700	17_29_16_3520000
0.879513	0.375561	0.298013	-0.002510	0.004079	-0.007844	-0.826294	-0.643311	-0.288452	701	17_29_16_3600000
0.879513	0.375561	0.298013	-0.007217	0.000314	0.004393	-0.826294	-0.643311	-0.288574	702	17_29_16_3680000
0.879513	0.375561	0.298013	-0.003138	0.001255	0.004707	-0.826294	-0.643311	-0.288574	703	17_29_16_3760000
0.879513	0.375561	0.298227	-0.007217	0.016316	-0.005648	-0.826294	-0.643311	-0.288574	704	17_29_16_3840000
0.879513	0.375561	0.298227	0.017258	0.002510	0.007217	-0.826294	-0.643311	-0.288696	705	17_29_16_3920000
0.879513	0.375561	0.298227	-0.006589	0.010668	-0.003765	-0.826294	-0.643311	-0.288696	706	17_29_16_4000000
0.879513	0.375347	0.298227	0.003452	0.004393	0.008158	-0.826294	-0.643311	-0.288696	707	17_29_16_4080000
0.879513	0.375347	0.298227	0.006275	0.004393	0.007844	-0.826294	-0.643188	-0.288696	708	17_29_16_4160000
0.879513	0.375347	0.298441	-0.002824	0.000314	0.000314	-0.826294	-0.643188	-0.288696	709	17_29_16_4240000
0.879513	0.375347	0.298441	-0.010982	-0.005962	-0.013492	-0.826294	-0.643188	-0.288696	710	17_29_16_4320000
0.879513	0.375347	0.298441	-0.006903	0.002510	-0.005334	-0.826172	-0.643311	-0.288818	711	17_29_16_4400000
0.879513	0.375561	0.298441	-0.004393	0.001255	-0.005334	-0.826172	-0.643311	-0.288818	712	17_29_16_4480000
0.879513	0.375561	0.298441	-0.010041	0.004079	-0.011610	-0.826172	-0.643311	-0.288818	713	17_29_16_4560000
0.879299	0.375561	0.298441	0.011296	0.002196	-0.000941	-0.826172	-0.643311	-0.288818	714	17_29_16_4640000
0.879299	0.375561	0.298441	0.010668	-0.000628	-0.006275	-0.826050	-0.643433	-0.288818	715	17_29_16_4720000
0.879299	0.375561	0.298441	0.006275	-0.001569	0.007531	-0.826050	-0.643433	-0.288696	716	17_29_16_4800000
0.879513	0.375561	0.298441	0.009727	-0.001569	0.005020	-0.826172	-0.643433	-0.288696	717	17_29_16_4880000
0.879513	0.375561	0.298441	0.005020	-0.006589	0.009099	-0.826172	-0.643311	-0.288696	718	17_29_16_4960000
0.879513	0.375561	0.298227	0.003765	-0.007217	-0.002196	-0.826172	-0.643311	-0.288574	719	17_29_16_5040000
0.879513	0.375561	0.298227	0.006275	-0.006903	-0.000941	-0.826172	-0.643433	-0.288452	720	17_29_16_5120000
0.879513	0.375561	0.298227	-0.015061	0.005334	0.002824	-0.826294	-0.643311	-0.288452	721	17_29_16_5200000
0.879513	0.375561	0.298441	-0.011923	0.004393	0.007531	-0.826294	-0.643311	-0.288574	722	17_29_16_5280000
0.879513	0.375347	0.298441	-0.008786	0.004393	0.004707	-0.826294	-0.643188	-0.288696	723	17_29_16_5360000
0.879513	0.375347	0.298441	-0.020082	0.004707	-0.001255	-0.826294	-0.643188	-0.288818	724	17_29_16_5440000
0.879513	0.375347	0.298441	-0.003452	-0.007844	-0.005334	-0.826294	-0.643188	-0.288818	725	17_29_16_5520000
0.879513	0.375347	0.298441	0.006275	-0.007217	-0.001569	-0.826294	-0.643188	-0.288696	726	17_29_16_5600000
0.879513	0.375347	0.298441	0.004079	0.005334	0.014747	-0.826294	-0.643188	-0.288696	727	17_29_16_5680000
0.879513	0.375347	0.298441	0.000314	-0.001255	0.013806	-0.826416	-0.643066	-0.288696	728	17_29_16_5760000
0.879513	0.375134	0.298441	0.004707	-0.003138	0.001255	-0.826416	-0.643066	-0.288696	729	17_29_16_5840000
0.879513	0.375134	0.298441	-0.000628	0.014120	0.003138	-0.826416	-0.643066	-0.288696	730	17_29_16_5920000
0.879513	0.375134	0.298654	0.011923	0.007531	0.008472	-0.826416	-0.642944	-0.288696	731	17_29_16_6000000
0.879513	0.375134	0.298654	0.000314	-0.001883	-0.005020	-0.826416	-0.642944	-0.288696	732	17_29_16_6080000
0.879513	0.375134	0.298654	0.004079	0.000314	-0.001255	-0.826416	-0.643066	-0.288696	733	17_29_16_6160000
0.879513	0.375134	0.298654	0.006275	0.008472	0.001569	-0.826416	-0.643066	-0.288696	734	17_29_16_6240000
0.879513	0.375134	0.298654	-0.001569	0.002196	-0.002196	-0.826416	-0.643066	-0.288696	735	17_29_16_6320000
0.879513	0.375134	0.298654	0.014434	0.000628	-0.003452	-0.826416	-0.643066	-0.288696	736	17_29_16_6400000
0.879513	0.375347	0.298654	0.005648	-0.003138	-0.001883	-0.826416	-0.643066	-0.288574	737	17_29_16_6480000
0.879513	0.375347	0.298654	0.014434	0.002824	-0.005648	-0.826294	-0.643188	-0.288574	738	17_29_16_6560000
0.879513	0.375347	0.298654	0.022278	0.005334	-0.009413	-0.826294	-0.643188	-0.288452	739	17_29_16_6640000
0.879513	0.375561	0.298441	-0.000941	-0.005334	0.004393	-0.826294	-0.643311	-0.288452	740	17_29_16_6720000
0.879513	0.375347	0.298441	-0.008786	-0.003765	0.004707	-0.826294	-0.643188	-0.288452	741	17_29_16_6800000
0.879513	0.375347	0.298441	0.004707	0.000628	-0.002196	-0.826294	-0.643188	-0.288452	742	17_29_16_6880000
0.879513	0.375347	0.298441	0.008472	-0.007844	0.000314	-0.826294	-0.643188	-0.288330	743	17_29_16_6960000
0.879513	0.375561	0.298441	0.006589	-0.005962	-0.008158	-0.826294	-0.643311	-0.288330	744	17_29_16_7040000
0.879513	0.375561	0.298441	-0.003138	-0.015061	0.000314	-0.826416	-0.643311	-0.288208	745	17_29_16_7120000
0.879513	0.375347	0.298227	-0.015375	-0.005962	0.006275	-0.826416	-0.643311	-0.288208	746	17_29_16_7200000
0.879513	0.375347	0.298227	-0.002824	-0.000314	0.005648	-0.826416	-0.643188	-0.288208	747	17_29_16_7280000
0.879513	0.375347	0.298441	-0.003452	0.000941	0.002824	-0.826416	-0.643188	-0.288208	748	17_29_16_7360000
0.879513	0.375347	0.298441	0.010355	0.001883	-0.001569	-0.826416	-0.643188	-0.288208	749	17_29_16_7440000
0.879513	0.375347	0.298227	0.009727	-0.013492	0.004393	-0.826538	-0.643188	-0.288086	750	17_29_16_7520000
0.879513	0.375347	0.298227	0.005020	0.000628	0.010668	-0.826538	-0.643188	-0.288086	751	17_29_16_7600000
0.879727	0.375347	0.298227	-0.004393	0.002824	0.006903	-0.826538	-0.643066	-0.288086	752	17_29_16_7680000
0.879727	0.375134	0.298227	0.010668	-0.005648	-0.001569	-0.826538	-0.643066	-0.288086	753	17_29_16_7760000
0.879727	0.375347	0.298227	0.011923	-0.006589	-0.007531	-0.826538	-0.643188	-0.287964	754	17_29_16_7840000
0.879727	0.375347	0.298013	0.006275	-0.001569	0.000628	-0.826538	-0.643188	-0.287842	755	17_29_16_7920000
0.879513	0.375347	0.298227	0.010668	0.008786	-0.005334	-0.826538	-0.643188	-0.287842	756	17_29_16_8000000
0.879513	0.375347	0.298227	-0.004393	0.021650	-0.005020	-0.826538	-0.643311	-0.287964	757	17_29_16_8080000
0.879513	0.375347	0.298441	0.006275	0.015375	0.010355	-0.826538	-0.643188	-0.287964	758	17_29_16_8160000
0.879513	0.375347	0.298441	0.000628	0.002510	0.002196	-0.826538	-0.643188	-0.288086	759	17_29_16_8240000
0.879513	0.375347	0.298441	0.000941	0.003452	-0.001883	-0.826538	-0.643188	-0.288086	760	17_29_16_8320000
0.879513	0.375347	0.298441	-0.000628	0.009727	-0.005962	-0.826416	-0.643188	-0.288086	761	17_29_16_8400000
0.879513	0.375347	0.298654	-0.004707	0.007217	-0.001569	-0.826416	-0.643188	-0.288208	762	17_29_16_8480000
0.879513	0.375347	0.298654	0.012865	0.010982	-0.002510	-0.826416	-0.643311	-0.288208	763	17_29_16_8560000
0.879299	0.375347	0.298654	-0.002196	0.004707	0.001569	-0.826416	-0.643311	-0.288208	764	17_29_16_8640000
0.879299	0.375347	0.298654	0.002196	-0.001255	0.004079	-0.826416	-0.643311	-0.288208	765	17_29_16_8720000
0.879513	0.375347	0.298654	0.001569	0.002824	0.011296	-0.826416	-0.643188	-0.288208	766	17_29_16_8800000
0.879513	0.375347	0.298654	-0.002510	0.000941	0.009413	-0.826416	-0.643188	-0.288208	767	17_29_16_8880000
0.879513	0.375347	0.298654	0.005962	-0.006903	-0.003765	-0.826538	-0.643066	-0.288208	768	17_29_16_8960000
0.879513	0.375347	0.298654	0.001569	-0.013179	0.002510	-0.826538	-0.643188	-0.288086	769	17_29_16_9040000
0.879513	0.375347	0.298654	-0.005648	0.002510	0.008158	-0.826538	-0.643066	-0.288086	770	17_29_16_9120000
0.879513	0.375134	0.298654	-0.004079	0.000628	0.007217	-0.826538	-0.643066	-0.288086	771	17_29_16_9200000
0.879513	0.375134	0.298654	0.003138	-0.003765	0.001569	-0.826660	-0.642944	-0.288086	772	17_29_16_9280000
0.879513	0.375134	0.298654	0.004079	-0.006903	0.012237	-0.826660	-0.642944	-0.288086	773	17_29_16_9360000
0.879513	0.375134	0.298441	-0.004707	-0.007217	-0.000941	-0.826660	-0.642944	-0.287964	774	17_29_16_9440000
0.879513	0.375134	0.298441	0.002196	0.006903	0.009099	-0.826782	-0.642944	-0.287964	775	17_29_16_9520000
0.879513	0.374920	0.298441	0.022592	0.004707	0.000941	-0.826782	-0.642822	-0.287964	776	17_29_16_9600000
0.879513	0.375134	0.298441	0.010668	-0.010668	-0.001883	-0.826782	-0.642944	-0.287842	777	17_29_16_9680000
0.879727	0.375134	0.298441	-0.006589	-0.004707	0.001883	-0.826782	-0.642944	-0.287842	778	17_29_16_9760000
0.879727	0.375134	0.298441	-0.005020	-0.007531	-0.005334	-0.826782	-0.642944	-0.287842	779	17_29_16_9840000
0.879727	0.375134	0.298441	-0.000628	-0.001883	-0.005020	-0.826782	-0.642944	-0.287720	780	17_29_16_9920000
0.879513	0.375134	0.298441	-0.000314	0.007217	-0.001569	-0.826782	-0.642944	-0.287842	781	17_29_17_0000000
0.879513	0.375134	0.298441	-0.000628	0.000941	0.002824	-0.826782	-0.642944	-0.287842	782	17_29_17_0080000
0.879513	0.375134	0.298441	0.005962	0.005020	0.004707	-0.826782	-0.642944	-0.287842	783	17_29_17_0160000
0.879513	0.375134	0.298441	-0.004707	0.005962	-0.009727	-0.826782	-0.642944	-0.287842	784	17_29_17_0240000
0.879513	0.375134	0.298441	0.000941	-0.007531	-0.000941	-0.826782	-0.642944	-0.287842	785	17_29_17_0320000
0.879513	0.375134	0.298441	0.000000	0.010668	-0.001569	-0.826660	-0.642944	-0.287842	786	17_29_17_0400000
0.879513	0.375134	0.298654	-0.000628	0.001883	0.003452	-0.826660	-0.642944	-0.287842	787	17_29_17_0480000
0.879513	0.375134	0.298654	-0.011923	-0.003452	0.002824	-0.826782	-0.642944	-0.287964	788	17_29_17_0560000
0.879513	0.375134	0.298654	0.012865	0.000628	0.000941	-0.826782	-0.642944	-0.287842	789	17_29_17_0640000
0.879513	0.375134	0.298654	0.009727	0.000941	0.010668	-0.826782	-0.642944	-0.287842	790	17_29_17_0720000
0.879513	0.374920	0.298654	-0.005648	-0.001569	0.011296	-0.826782	-0.642822	-0.287842	791	17_29_17_0800000
0.879727	0.374920	0.298654	-0.000314	-0.006903	-0.001569	-0.826904	-0.642822	-0.287842	792	17_29_17_0880000
0.879727	0.374920	0.298441	0.007844	-0.006903	-0.007844	-0.826904	-0.642822	-0.287720	793	17_29_17_0960000
0.879727	0.375134	0.298441	0.009413	-0.000941	-0.005020	-0.826782	-0.642944	-0.287720	794	17_29_17_1040000
0.879727	0.375134	0.298441	-0.001569	-0.006589	0.000941	-0.826782	-0.642944	-0.287598	795	17_29_17_1120000
0.879727	0.375134	0.298441	0.008158	0.002824	-0.003138	-0.826782	-0.642944	-0.287598	796	17_29_17_1200000
0.879727	0.375134	0.298441	0.002196	0.002196	0.005962	-0.826904	-0.642944	-0.287598	797	17_29_17_1280000
0.879727	0.375134	0.298441	0.002196	0.000314	0.007531	-0.826904	-0.642944	-0.287598	798	17_29_17_1360000
0.879727	0.374920	0.298441	-0.003765	0.010982	0.005648	-0.826904	-0.642944	-0.287598	799	17_29_17_1440000
0.879727	0.374920	0.298441	-0.009413	-0.003765	0.004079	-0.826904	-0.642822	-0.287720	800	17_29_17_1520000
0.879727	0.374920	0.298441	0.001883	-0.002510	-0.011296	-0.826904	-0.642822	-0.287720	801	17_29_17_1600000
0.879513	0.374920	0.298654	-0.009727	0.004707	-0.007217	-0.826904	-0.642944	-0.287720	802	17_29_17_1680000
0.879513	0.374920	0.298654	-0.014747	-0.004393	0.003452	-0.826904	-0.642944	-0.287720	803	17_29_17_1760000
0.879727	0.374920	0.298654	-0.024474	0.003452	0.005962	-0.826904	-0.642822	-0.287842	804	17_29_17_1840000
0.879727	0.374920	0.298654	-0.009727	-0.002510	0.006589	-0.826904	-0.642700	-0.287964	805	17_29_17_1920000
0.879727	0.374706	0.298868	-0.002824	0.006903	0.000941	-0.826904	-0.642700	-0.287964	806	17_29_17_2000000
0.879727	0.374706	0.298654	0.015061	-0.006275	0.014747	-0.827026	-0.642700	-0.287964	807	17_29_17_2080000
0.879727	0.374706	0.298654	0.010041	0.005648	0.002824	-0.827026	-0.642578	-0.287842	808	17_29_17_2160000
0.879727	0.374706	0.298654	0.006589	0.003452	-0.001569	-0.827026	-0.642578	-0.287842	809	17_29_17_2240000
0.879727	0.374706	0.298868	0.003138	0.008472	0.002510	-0.827026	-0.642700	-0.287842	810	17_29_17_2320000
0.879727	0.374706	0.298868	-0.021023	0.000314	-0.000941	-0.827026	-0.642578	-0.287964	811	17_29_17_2400000
0.879727	0.374706	0.298868	-0.000941	0.005962	0.006275	-0.827026	-0.642578	-0.287964	812	17_29_17_2480000
0.879727	0.374706	0.298868	-0.011610	0.009099	0.003138	-0.827026	-0.642578	-0.288086	813	17_29_17_2560000
0.879727	0.374493	0.299081	-0.004707	0.006589	-0.003452	-0.827026	-0.642456	-0.288208	814	17_29_17_2640000
0.879727	0.374493	0.299081	0.009099	-0.000941	0.009099	-0.827026	-0.642456	-0.288208	815	17_29_17_2720000
0.879727	0.374493	0.299081	0.008786	-0.000314	0.009413	-0.827026	-0.642456	-0.288086	816	17_29_17_2800000
0.879727	0.374493	0.299081	0.014120	0.003452	0.006903	-0.827148	-0.642456	-0.288086	817	17_29_17_2880000
0.879727	0.374493	0.299081	-0.013806	-0.005648	0.008158	-0.827148	-0.642334	-0.288086	818	17_29_17_2960000
0.879727	0.374279	0.299081	-0.008472	-0.019454	0.000314	-0.827148	-0.642334	-0.288086	819	17_29_17_3040000
0.879727	0.374279	0.298868	0.000000	-0.014434	-0.002510	-0.827271	-0.642334	-0.287964	820	17_29_17_3120000
0.879727	0.374493	0.298868	0.010982	0.000314	-0.006589	-0.827271	-0.642334	-0.287842	821	17_29_17_3200000
0.879727	0.374493	0.298868	-0.001883	0.011923	-0.001883	-0.827148	-0.642456	-0.287842	822	17_29_17_3280000
0.879727	0.374493	0.298868	0.013806	-0.001255	-0.006589	-0.827148	-0.642456	-0.287842	823	17_29_17_3360000
0.879727	0.374493	0.298868	-0.001883	0.004393	-0.003138	-0.827148	-0.642456	-0.287842	824	17_29_17_3440000
0.879727	0.374493	0.298868	0.000000	0.009727	0.002196	-0.827148	-0.642456	-0.287964	825	17_29_17_3520000
0.879727	0.374493	0.299081	0.009413	0.000314	0.002824	-0.827148	-0.642456	-0.287964	826	17_29_17_3600000
0.879727	0.374493	0.298868	0.013806	-0.010355	-0.000314	-0.827148	-0.642456	-0.287842	827	17_29_17_3680000
0.879727	0.374493	0.298868	0.006275	-0.007531	-0.000941	-0.827148	-0.642578	-0.287720	828	17_29_17_3760000
0.879727	0.374493	0.298654	0.007531	-0.011610	0.005020	-0.827148	-0.642578	-0.287598	829	17_29_17_3840000
0.879727	0.374493	0.298654	0.008786	-0.014120	0.000000	-0.827271	-0.642578	-0.287476	830	17_29_17_3920000
0.879727	0.374706	0.298654	-0.000628	-0.001883	-0.006589	-0.827271	-0.642578	-0.287354	831	17_29_17_4000000
0.879727	0.374706	0.298654	0.008786	0.002824	-0.001883	-0.827148	-0.642578	-0.287354	832	17_29_17_4080000
0.879727	0.374706	0.298654	-0.002824	0.000941	0.010982	-0.827271	-0.642578	-0.287354	833	17_29_17_4160000
0.879727	0.374493	0.298654	-0.004079	0.001569	0.004393	-0.827271	-0.642456	-0.287354	834	17_29_17_4240000
0.879727	0.374493	0.298654	0.016944	-0.001569	0.005962	-0.827271	-0.642456	-0.287354	835	17_29_17_4320000
0.879940	0.374493	0.298654	0.002196	-0.005020	0.011610	-0.827393	-0.642456	-0.287354	836	17_29_17_4400000
0.879940	0.374493	0.298441	-0.002510	-0.008786	0.000314	-0.827393	-0.642456	-0.287231	837	17_29_17_4480000
0.879940	0.374493	0.298441	-0.002824	-0.001255	-0.001883	-0.827393	-0.642456	-0.287231	838	17_29_17_4560000
0.879940	0.374493	0.298441	-0.004079	-0.002196	0.008472	-0.827393	-0.642334	-0.287231	839	17_29_17_4640000
0.879940	0.374279	0.298441	-0.011923	-0.004393	0.006903	-0.827515	-0.642334	-0.287231	840	17_29_17_4720000
0.879940	0.374279	0.298441	0.014120	-0.002824	0.017258	-0.827515	-0.642212	-0.287231	841	17_29_17_4800000
0.879940	0.374279	0.298441	-0.002196	-0.009727	0.013179	-0.827637	-0.642212	-0.287109	842	17_29_17_4880000
0.880154	0.374065	0.298441	0.000000	-0.002510	0.008158	-0.827637	-0.642090	-0.287109	843	17_29_17_4960000
0.880154	0.374065	0.298441	0.012865	-0.009099	0.011610	-0.827759	-0.642090	-0.286987	844	17_29_17_5040000
0.880154	0.374065	0.298441	-0.006903	0.005020	-0.002196	-0.827759	-0.641968	-0.286987	845	17_29_17_5120000
0.880154	0.374065	0.298441	0.010668	0.000941	0.003138	-0.827759	-0.641968	-0.286987	846	17_29_17_5200000
0.880154	0.374065	0.298441	0.002510	0.007844	-0.005962	-0.827759	-0.642090	-0.286987	847	17_29_17_5280000
0.880154	0.374065	0.298441	0.000314	0.007844	0.003138	-0.827759	-0.642090	-0.286987	848	17_29_17_5360000
0.880154	0.374065	0.298441	0.002196	0.000941	0.004393	-0.827759	-0.641968	-0.287109	849	17_29_17_5440000
0.879940	0.374065	0.298654	-0.017885	0.013492	-0.001569	-0.827759	-0.641968	-0.287109	850	17_29_17_5520000
0.879940	0.374065	0.298654	-0.005962	-0.006903	0.003138	-0.827759	-0.641968	-0.287231	851	17_29_17_5600000
0.880154	0.373852	0.298654	-0.002824	-0.000628	0.007531	-0.827759	-0.641968	-0.287231	852	17_29_17_5680000
0.880154	0.373852	0.298654	-0.004079	-0.001569	0.007217	-0.827759	-0.641846	-0.287231	853	17_29_17_5760000
0.880154	0.373852	0.298654	0.005334	0.000628	-0.000628	-0.827881	-0.641846	-0.287231	854	17_29_17_5840000
0.880154	0.373852	0.298654	-0.010355	-0.000314	-0.005648	-0.827881	-0.641846	-0.287231	855	17_29_17_5920000
0.880154	0.373852	0.298654	-0.016316	0.001569	0.001569	-0.827759	-0.641846	-0.287231	856	17_29_17_6000000
0.880154	0.373852	0.298654	-0.006275	-0.004707	0.003138	-0.827881	-0.641846	-0.287354	857	17_29_17_6080000
0.880154	0.373852	0.298654	0.001883	-0.000941	0.004707	-0.827881	-0.641724	-0.287354	858	17_29_17_6160000
0.880154	0.373852	0.298654	0.006903	0.003452	-0.005020	-0.827881	-0.641724	-0.287354	859	17_29_17_6240000
0.880154	0.373852	0.298654	0.012237	-0.001569	0.000000	-0.827881	-0.641846	-0.287231	860	17_29_17_6320000
0.880154	0.373852	0.298654	0.016316	0.000628	-0.013492	-0.827759	-0.641846	-0.287231	861	17_29_17_6400000
0.879940	0.374065	0.298654	-0.005962	-0.005334	-0.006275	-0.827759	-0.641968	-0.287109	862	17_29_17_6480000
0.879940	0.374065	0.298654	-0.006589	0.001255	-0.002196	-0.827759	-0.641968	-0.287109	863	17_29_17_6560000
0.879940	0.374065	0.298654	-0.008158	-0.000941	-0.007844	-0.827759	-0.641968	-0.287231	864	17_29_17_6640000
0.879940	0.374065	0.298654	-0.016944	-0.004079	-0.005648	-0.827759	-0.641968	-0.287231	865	17_29_17_6720000
0.879940	0.374065	0.298654	0.003452	-0.019768	0.000000	-0.827759	-0.641968	-0.287231	866	17_29_17_6800000
0.879940	0.374065	0.298654	-0.003138	-0.007844	-0.005334	-0.827759	-0.642090	-0.287109	867	17_29_17_6880000
0.879940	0.374065	0.298441	-0.001883	-0.010355	-0.008158	-0.827759	-0.642090	-0.287109	868	17_29_17_6960000
0.880154	0.374065	0.298441	-0.000628	-0.004393	0.007217	-0.827759	-0.642090	-0.286987	869	17_29_17_7040000
0.880154	0.374065	0.298441	0.002510	0.007217	0.008786	-0.827759	-0.641968	-0.286987	870	17_29_17_7120000
0.880154	0.374065	0.298441	0.006589	-0.006903	0.011610	-0.827881	-0.641968	-0.286987	871	17_29_17_7200000
0.880154	0.373852	0.298441	0.001883	-0.009099	0.004707	-0.827881	-0.641968	-0.286865	872	17_29_17_7280000
0.880154	0.373852	0.298441	-0.002510	-0.002510	0.005962	-0.827881	-0.641846	-0.286865	873	17_29_17_7360000
0.880154	0.373852	0.298441	-0.010355	0.010668	-0.003452	-0.827881	-0.641846	-0.286865	874	17_29_17_7440000
0.880154	0.373852	0.298441	-0.003138	0.000000	-0.000941	-0.827881	-0.641846	-0.286987	875	17_29_17_7520000
0.880154	0.373852	0.298441	-0.004393	-0.005334	-0.006903	-0.827881	-0.641846	-0.286987	876	17_29_17_7600000
0.880154	0.373852	0.298441	-0.004707	0.000941	0.000941	-0.827881	-0.641846	-0.286987	877	17_29_17_7680000
0.880154	0.373852	0.298441	-0.003765	-0.006589	0.003452	-0.827881	-0.641846	-0.286987	878	17_29_17_7760000
0.880154	0.373852	0.298441	-0.006275	-0.011296	0.002196	-0.828003	-0.641846	-0.286987	879	17_29_17_7840000
0.880154	0.373852	0.298441	0.007844	-0.001569	0.002196	-0.828003	-0.641846	-0.286865	880	17_29_17_7920000
0.880154	0.373852	0.298441	0.002196	0.006589	-0.000314	-0.828003	-0.641846	-0.286865	881	17_29_17_8000000
0.880154	0.373852	0.298441	0.003452	-0.005020	-0.005020	-0.828003	-0.641846	-0.286865	882	17_29_17_8080000
0.880154	0.373852	0.298441	0.003765	0.000628	-0.006275	-0.827881	-0.641846	-0.286865	883	17_29_17_8160000
0.880154	0.373852	0.298441	0.002196	0.004707	-0.004393	-0.827881	-0.641968	-0.286865	884	17_29_17_8240000
0.880154	0.374065	0.298441	0.004393	0.000628	-0.005962	-0.827881	-0.641968	-0.286865	885	17_29_17_8320000
0.880154	0.374065	0.298441	-0.009727	-0.006275	-0.007217	-0.827881	-0.641968	-0.286865	886	17_29_17_8400000
0.880154	0.374065	0.298441	-0.009099	0.012551	-0.006589	-0.827759	-0.642090	-0.286865	887	17_29_17_8480000
0.880154	0.374065	0.298654	0.008472	-0.005648	-0.000941	-0.827759	-0.642090	-0.286987	888	17_29_17_8560000
0.879940	0.374065	0.298441	0.001255	-0.000628	-0.009413	-0.827759	-0.642090	-0.286865	889	17_29_17_8640000
0.879940	0.374065	0.298654	-0.008786	0.005334	0.005648	-0.827759	-0.642090	-0.286865	890	17_29_17_8720000
0.879940	0.374065	0.298654	0.008158	-0.007531	-0.000314	-0.827759	-0.642090	-0.286865	891	17_29_17_8800000
0.879940	0.374065	0.298441	0.001255	0.000628	0.007217	-0.827759	-0.642090	-0.286865	892	17_29_17_8880000
0.880154	0.374065	0.298441	0.010041	0.001883	0.005020	-0.827881	-0.642090	-0.286865	893	17_29_17_8960000
0.880154	0.374065	0.298441	0.010041	0.004707	0.000628	-0.827881	-0.642090	-0.286865	894	17_29_17_9040000
0.880154	0.374065	0.298441	0.005334	0.000628	0.005020	-0.827881	-0.642090	-0.286743	895	17_29_17_9120000
0.880154	0.374065	0.298441	0.003138	0.004707	0.006903	-0.827881	-0.641968	-0.286743	896	17_29_17_9200000
0.880154	0.374065	0.298654	0.010355	0.007531	0.004707	-0.827881	-0.641968	-0.286743	897	17_29_17_9280000
0.880154	0.374065	0.298654	0.012237	0.007531	0.001883	-0.827881	-0.641968	-0.286743	898	17_29_17_9360000
0.879940	0.374065	0.298654	0.000000	-0.001569	-0.002824	-0.827881	-0.641968	-0.286743	899	17_29_17_9440000
0.879940	0.374065	0.298654	-0.007217	0.002510	0.003765	-0.827881	-0.641968	-0.286743	900	17_29_17_9520000
0.879940	0.374065	0.298654	0.005962	0.000000	0.001255	-0.827881	-0.641968	-0.286743	901	17_29_17_9600000
0.879940	0.374065	0.298654	-0.002510	0.000000	0.003452	-0.827881	-0.641968	-0.286743	902	17_29_17_9680000
0.879940	0.374065	0.298654	-0.005648	0.002510	-0.002824	-0.827881	-0.641968	-0.286743	903	17_29_17_9760000
0.879940	0.373852	0.298654	0.002510	-0.001255	0.005020	-0.827881	-0.641968	-0.286743	904	17_29_17_9840000
0.879940	0.373852	0.298654	-0.013492	0.012551	-0.005648	-0.827881	-0.641968	-0.286865	905	17_29_17_9920000
0.879940	0.373852	0.298868	-0.010355	-0.001569	-0.000941	-0.827881	-0.641968	-0.286987	906	17_29_18_0000000
0.879940	0.373852	0.298868	-0.007217	0.001883	-0.007844	-0.827881	-0.641968	-0.286987	907	17_29_18_0080000
0.879940	0.374065	0.298868	0.004079	0.005020	0.000000	-0.827759	-0.641968	-0.286987	908	17_29_18_0160000
0.879940	0.373852	0.298868	0.015375	0.006903	0.007844	-0.827759	-0.641968	-0.286987	909	17_29_18_0240000
0.879940	0.373852	0.298868	0.009099	0.010041	0.003138	-0.827881	-0.641968	-0.286987	910	17_29_18_0320000
0.879940	0.373852	0.299081	-0.006275	0.008786	0.005334	-0.827881	-0.641968	-0.287109	911	17_29_18_0400000
0.879940	0.373852	0.299081	-0.015375	0.002510	-0.000628	-0.827881	-0.641846	-0.287109	912	17_29_18_0480000
0.879940	0.373852	0.299081	-0.001569	-0.003138	-0.005962	-0.827759	-0.641846	-0.287231	913	17_29_18_0560000
0.879940	0.373852	0.299081	0.006903	0.008158	-0.004079	-0.827759	-0.641968	-0.287231	914	17_29_18_0640000
0.879940	0.373852	0.299081	0.012237	0.010668	-0.002196	-0.827759	-0.641968	-0.287231	915	17_29_18_0720000
0.879940	0.374065	0.299081	0.008786	0.001569	0.005020	-0.827759	-0.641968	-0.287231	916	17_29_18_0800000
0.879940	0.374065	0.299081	0.010355	0.003765	0.000314	-0.827759	-0.641968	-0.287109	917	17_29_18_0880000
0.879940	0.374065	0.299081	0.013179	-0.011610	-0.001883	-0.827759	-0.641968	-0.287109	918	17_29_18_0960000
0.879940	0.374065	0.299081	0.013179	-0.005334	0.003452	-0.827759	-0.642090	-0.286987	919	17_29_18_1040000
0.879940	0.374065	0.299081	-0.002196	-0.000314	-0.005648	-0.827759	-0.642090	-0.286865	920	17_29_18_1120000
0.879940	0.374065	0.299081	-0.003452	0.002510	-0.000941	-0.827759	-0.642090	-0.286865	921	17_29_18_1200000
0.879940	0.374065	0.299081	0.004707	-0.010041	0.005334	-0.827759	-0.642090	-0.286865	922	17_29_18_1280000
0.879940	0.374065	0.298868	0.003765	-0.005334	0.001569	-0.827759	-0.642090	-0.286743	923	17_29_18_1360000
0.879940	0.374065	0.298868	0.001255	-0.003765	0.004707	-0.827881	-0.641968	-0.286743	924	17_29_18_1440000
0.879940	0.374065	0.298868	0.002510	0.004707	0.002824	-0.827881	-0.641968	-0.286743	925	17_29_18_1520000
0.879940	0.374065	0.298868	0.015375	0.005962	0.004393	-0.827881	-0.641968	-0.286743	926	17_29_18_1600000
0.879940	0.374065	0.298868	0.010982	0.004707	0.002824	-0.827881	-0.641968	-0.286743	927	17_29_18_1680000
0.879940	0.374065	0.298868	-0.001883	-0.000628	0.006903	-0.827881	-0.641968	-0.286621	928	17_29_18_1760000
0.879940	0.374065	0.298868	0.013806	-0.004707	0.003452	-0.827881	-0.641968	-0.286621	929	17_29_18_1840000
0.879940	0.373852	0.298868	-0.010982	0.007844	0.007531	-0.828003	-0.641968	-0.286621	930	17_29_18_1920000
0.879940	0.373852	0.298868	0.001255	0.001883	-0.000941	-0.828003	-0.641846	-0.286621	931	17_29_18_2000000
0.879940	0.373852	0.299081	0.005962	0.013179	0.002510	-0.828003	-0.641968	-0.286743	932	17_29_18_2080000
0.879940	0.373852	0.299081	-0.009413	0.000941	0.002196	-0.828003	-0.641846	-0.286743	933	17_29_18_2160000
0.879940	0.373852	0.299081	-0.010355	-0.002510	0.010041	-0.828003	-0.641846	-0.286865	934	17_29_18_2240000
0.879940	0.373638	0.299081	-0.014747	-0.015375	0.005648	-0.828003	-0.641724	-0.286865	935	17_29_18_2320000
0.879940	0.373638	0.299081	0.008158	-0.007217	0.010355	-0.828125	-0.641724	-0.286743	936	17_29_18_2400000
0.880154	0.373638	0.298868	0.010041	-0.002196	0.006275	-0.828125	-0.641602	-0.286621	937	17_29_18_2480000
0.880154	0.373638	0.299081	-0.003765	0.012865	0.008158	-0.828247	-0.641602	-0.286743	938	17_29_18_2560000
0.880154	0.373638	0.299081	0.016944	0.008786	-0.000941	-0.828247	-0.641602	-0.286743	939	17_29_18_2640000
0.879940	0.373638	0.299081	0.005648	0.013179	-0.005962	-0.828125	-0.641602	-0.286743	940	17_29_18_2720000
0.879940	0.373638	0.299081	0.010668	-0.003452	-0.002824	-0.828125	-0.641724	-0.286743	941	17_29_18_2800000
0.879940	0.373638	0.299081	0.023847	-0.006275	0.005648	-0.828125	-0.641724	-0.286621	942	17_29_18_2880000
0.879940	0.373638	0.298868	0.004707	-0.012865	0.005020	-0.828247	-0.641724	-0.286499	943	17_29_18_2960000
0.880154	0.373638	0.298868	0.016003	-0.008472	0.004707	-0.828247	-0.641724	-0.286377	944	17_29_18_3040000
0.880154	0.373638	0.298868	0.004079	0.008158	0.001569	-0.828247	-0.641724	-0.286255	945	17_29_18_3120000
0.880154	0.373638	0.298868	0.006589	-0.002196	0.003138	-0.828247	-0.641724	-0.286255	946	17_29_18_3200000
0.880154	0.373638	0.298868	-0.002510	-0.007217	0.007217	-0.828247	-0.641724	-0.286255	947	17_29_18_3280000
0.880154	0.373638	0.298868	-0.002510	0.004707	-0.002510	-0.828369	-0.641724	-0.286255	948	17_29_18_3360000
0.880154	0.373638	0.298868	0.004393	-0.003452	-0.002196	-0.828247	-0.641724	-0.286255	949	17_29_18_3440000
0.880154	0.373638	0.298868	0.004707	0.005962	0.000000	-0.828247	-0.641724	-0.286255	950	17_29_18_3520000
0.880154	0.373638	0.298868	-0.015689	-0.002824	-0.001255	-0.828247	-0.641724	-0.286255	951	17_29_18_3600000
0.880154	0.373638	0.298868	-0.005962	0.009413	0.005962	-0.828247	-0.641602	-0.286377	952	17_29_18_3680000
0.880154	0.373638	0.299081	-0.010355	0.009413	0.000628	-0.828247	-0.641602	-0.286377	953	17_29_18_3760000
0.880154	0.373638	0.299081	-0.018826	0.004707	-0.000941	-0.828247	-0.641602	-0.286499	954	17_29_18_3840000
0.879940	0.373424	0.299295	-0.010355	0.009413	0.005020	-0.828247	-0.641479	-0.286621	955	17_29_18_3920000
0.879940	0.373424	0.299295	-0.005962	0.000628	0.001255	-0.828247	-0.641479	-0.286743	956	17_29_18_4000000
0.880154	0.373424	0.299295	-0.012551	-0.009413	0.010041	-0.828369	-0.641479	-0.286743	957	17_29_18_4080000
0.880154	0.373424	0.299295	-0.006903	-0.013179	0.004707	-0.828369	-0.641357	-0.286743	958	17_29_18_4160000
0.880154	0.373211	0.299081	0.005648	-0.019140	-0.001883	-0.828491	-0.641357	-0.286621	959	17_29_18_4240000
0.880154	0.373424	0.299081	0.002510	-0.005648	-0.002196	-0.828491	-0.641357	-0.286499	960	17_29_18_4320000
0.880154	0.373424	0.298868	0.008472	-0.011296	-0.000941	-0.828491	-0.641357	-0.286499	961	17_29_18_4400000
0.880154	0.373424	0.298868	-0.003765	-0.006589	-0.005020	-0.828491	-0.641479	-0.286377	962	17_29_18_4480000
0.880154	0.373424	0.298868	-0.002196	-0.003452	0.001883	-0.828491	-0.641479	-0.286377	963	17_29_18_4560000
0.880154	0.373424	0.298868	0.012237	0.003138	0.003138	-0.828491	-0.641479	-0.286377	964	17_29_18_4640000
0.880154	0.373424	0.298868	0.004079	-0.000628	0.003452	-0.828491	-0.641479	-0.286255	965	17_29_18_4720000
0.880154	0.373424	0.298868	0.009099	0.000000	0.006589	-0.828491	-0.641357	-0.286255	966	17_29_18_4800000
0.880154	0.373424	0.298868	0.006589	-0.000314	-0.005648	-0.828491	-0.641479	-0.286255	967	17_29_18_4880000
0.880154	0.373424	0.298868	-0.006903	0.002510	-0.002824	-0.828491	-0.641479	-0.286255	968	17_29_18_4960000
0.880154	0.373424	0.298868	-0.006275	0.004707	-0.006903	-0.828491	-0.641479	-0.286255	969	17_29_18_5040000
0.880154	0.373424	0.298868	-0.004393	0.003138	-0.005648	-0.828491	-0.641479	-0.286377	970	17_29_18_5120000
0.880154	0.373424	0.298868	0.005962	0.003452	-0.000628	-0.828369	-0.641479	-0.286377	971	17_29_18_5200000
0.880154	0.373424	0.298868	0.011296	-0.003138	-0.005020	-0.828369	-0.641602	-0.286255	972	17_29_18_5280000
0.880154	0.373424	0.298868	-0.005962	0.003452	0.009413	-0.828369	-0.641602	-0.286255	973	17_29_18_5360000
0.880154	0.373424	0.299081	-0.016630	0.010982	0.000628	-0.828369	-0.641479	-0.286377	974	17_29_18_5440000
0.880154	0.373424	0.299081	-0.016316	0.012865	0.003452	-0.828369	-0.641479	-0.286499	975	17_29_18_5520000
0.880154	0.373424	0.299295	-0.015061	0.005334	0.002510	-0.828369	-0.641357	-0.286621	976	17_29_18_5600000
0.880154	0.373211	0.299295	-0.016316	0.010668	-0.003765	-0.828369	-0.641357	-0.286743	977	17_29_18_5680000
0.879940	0.373211	0.299509	-0.004707	0.010041	0.000628	-0.828369	-0.641357	-0.286865	978	17_29_18_5760000
0.879940	0.373211	0.299509	0.005020	0.007217	0.010041	-0.828369	-0.641357	-0.286987	979	17_29_18_5840000
0.879940	0.373211	0.299509	0.013492	0.005334	0.009727	-0.828369	-0.641235	-0.286987	980	17_29_18_5920000
0.879940	0.373211	0.299509	-0.008472	0.002824	-0.000628	-0.828369	-0.641235	-0.286987	981	17_29_18_6000000
0.879940	0.373211	0.299722	0.007844	-0.000941	-0.002510	-0.828369	-0.641235	-0.286987	982	17_29_18_6080000
0.879940	0.373211	0.299509	0.011296	-0.001255	0.002510	-0.828369	-0.641235	-0.286865	983	17_29_18_6160000
0.879940	0.373211	0.299509	0.001255	0.007217	0.003452	-0.828369	-0.641235	-0.286865	984	17_29_18_6240000
0.879940	0.373211	0.299722	0.002510	-0.002196	0.010982	-0.828491	-0.641235	-0.286865	985	17_29_18_6320000
0.880154	0.372997	0.299722	-0.006275	0.008786	0.007217	-0.828491	-0.641113	-0.286987	986	17_29_18_6400000
0.880154	0.372997	0.299722	-0.000314	0.003452	0.009413	-0.828491	-0.641113	-0.286987	987	17_29_18_6480000
0.880154	0.372997	0.299722	-0.006589	0.006903	-0.002196	-0.828491	-0.641113	-0.286987	988	17_29_18_6560000
0.879940	0.372997	0.299722	0.001569	0.007531	0.005648	-0.828491	-0.641113	-0.287109	989	17_29_18_6640000
0.880154	0.372997	0.299936	-0.001569	0.005648	0.010041	-0.828491	-0.640991	-0.287109	990	17_29_18_6720000
0.879940	0.372784	0.299936	-0.008158	0.014434	0.000941	-0.828491	-0.640991	-0.287231	991	17_29_18_6800000
0.879940	0.372784	0.299936	0.003452	0.004707	-0.005020	-0.828491	-0.640991	-0.287231	992	17_29_18_6880000
0.879940	0.372997	0.299936	0.004079	-0.000314	0.000941	-0.828491	-0.640991	-0.287231	993	17_29_18_6960000
0.879940	0.372784	0.299936	-0.012237	-0.004707	0.004707	-0.828491	-0.640991	-0.287231	994	17_29_18_7040000
0.879940	0.372784	0.300150	-0.012551	-0.000941	0.005962	-0.828491	-0.640869	-0.287354	995	17_29_18_7120000
0.879940	0.372784	0.300150	-0.008158	-0.000628	0.003452	-0.828613	-0.640869	-0.287354	996	17_29_18_7200000
0.879940	0.372784	0.300150	-0.006275	-0.002824	-0.000628	-0.828613	-0.640869	-0.287354	997	17_29_18_7280000
0.880154	0.372784	0.300150	-0.002196	-0.010041	0.003138	-0.828613	-0.640747	-0.287354	998	17_29_18_7360000
0.880154	0.372570	0.300150	-0.001569	-0.001883	0.006903	-0.828613	-0.640747	-0.287354	999	17_29_18_7440000
0.880154	0.372570	0.299936	-0.003765	-0.011610	-0.001883	-0.828613	-0.640747	-0.287231	1000	17_29_18_7520000
0.880154	0.372570	0.299936	-0.008158	-0.012551	-0.001883	-0.828735	-0.640747	-0.287231	1001	17_29_18_7600000
0.880154	0.372570	0.299936	-0.015375	0.001255	0.000000	-0.828735	-0.640747	-0.287231	1002	17_29_18_7680000
0.880154	0.372570	0.299936	-0.004079	-0.000314	0.000941	-0.828735	-0.640747	-0.287354	1003	17_29_18_7760000
0.880154	0.372570	0.299936	-0.001569	0.001883	0.002510	-0.828735	-0.640625	-0.287354	1004	17_29_18_7840000
0.880154	0.372570	0.300150	-0.003765	0.013179	-0.005020	-0.828613	-0.640625	-0.287354	1005	17_29_18_7920000
0.880154	0.372570	0.300150	0.003765	0.009413	0.001255	-0.828613	-0.640747	-0.287476	1006	17_29_18_8000000
0.880154	0.372570	0.300150	-0.005962	0.005648	0.003452	-0.828613	-0.640625	-0.287476	1007	17_29_18_8080000
0.880154	0.372570	0.300150	0.005648	-0.002824	-0.005962	-0.828613	-0.640747	-0.287476	1008	17_29_18_8160000
0.880154	0.372570	0.300150	0.016630	-0.005020	0.003452	-0.828613	-0.640747	-0.287476	1009	17_29_18_8240000
0.880154	0.372784	0.300150	0.010982	-0.005648	-0.010355	-0.828613	-0.640747	-0.287354	1010	17_29_18_8320000
0.880154	0.372784	0.300150	0.003765	0.003765	0.002824	-0.828613	-0.640869	-0.287231	1011	17_29_18_8400000
0.880154	0.372784	0.300150	0.002510	-0.004393	0.000941	-0.828613	-0.640869	-0.287231	1012	17_29_18_8480000
0.880154	0.372784	0.299936	0.003765	-0.019140	0.000314	-0.828613	-0.640869	-0.287109	1013	17_29_18_8560000
0.880154	0.372784	0.299936	-0.007217	-0.013179	0.003138	-0.828735	-0.640747	-0.287109	1014	17_29_18_8640000
0.880154	0.372784	0.299936	-0.012865	-0.002196	0.000000	-0.828735	-0.640747	-0.287109	1015	17_29_18_8720000
0.880154	0.372784	0.299936	0.004707	-0.000941	-0.014434	-0.828735	-0.640747	-0.287109	1016	17_29_18_8800000
0.880154	0.372784	0.299936	0.019140	0.000314	-0.009099	-0.828613	-0.640869	-0.286987	1017	17_29_18_8880000
0.880154	0.372997	0.299722	0.005020	-0.007217	0.000000	-0.828613	-0.640991	-0.286865	1018	17_29_18_8960000
0.880154	0.372997	0.299722	0.007217	-0.005962	0.004079	-0.828613	-0.640991	-0.286865	1019	17_29_18_9040000
0.880154	0.372784	0.299722	0.001255	-0.001255	0.010041	-0.828613	-0.640991	-0.286743	1020	17_29_18_9120000
0.880154	0.372784	0.299722	0.005962	0.000000	0.006589	-0.828735	-0.640869	-0.286743	1021	17_29_18_9200000
0.880154	0.372784	0.299722	-0.012865	-0.003452	0.002196	-0.828735	-0.640869	-0.286743	1022	17_29_18_9280000
0.880154	0.372784	0.299722	0.001883	0.000000	-0.004079	-0.828735	-0.640869	-0.286743	1023	17_29_18_9360000
0.880154	0.372784	0.299722	-0.006589	-0.006589	-0.001569	-0.828735	-0.640869	-0.286743	1024	17_29_18_9440000
0.880154	0.372784	0.299722	-0.007844	-0.010982	-0.002196	-0.828735	-0.640869	-0.286743	1025	17_29_18_9520000
0.880154	0.372784	0.299722	-0.003765	-0.005648	0.003452	-0.828735	-0.640869	-0.286743	1026	17_29_18_9600000
0.880154	0.372784	0.299722	-0.009727	0.005648	0.003452	-0.828735	-0.640747	-0.286743	1027	17_29_18_9680000
0.880154	0.372570	0.299722	-0.010041	-0.000941	0.002824	-0.828735	-0.640747	-0.286865	1028	17_29_18_9760000
0.880154	0.372570	0.299722	-0.001569	0.000628	-0.005020	-0.828735	-0.640747	-0.286865	1029	17_29_18_9840000
0.880154	0.372570	0.299722	-0.003765	0.010041	0.003452	-0.828735	-0.640747	-0.286865	1030	17_29_18_9920000
0.880154	0.372570	0.299722	0.007217	0.006903	0.007531	-0.828735	-0.640747	-0.286865	1031	17_29_19_0000000
0.880154	0.372570	0.299936	0.013179	0.007217	0.001883	-0.828735	-0.640747	-0.286865	1032	17_29_19_0080000
0.880154	0.372570	0.299936	0.005648	0.003452	-0.001255	-0.828735	-0.640747	-0.286865	1033	17_29_19_0160000
0.880154	0.372570	0.299936	0.007217	0.010982	0.005334	-0.828735	-0.640747	-0.286865	1034	17_29_19_0240000
0.880154	0.372570	0.299936	-0.004393	0.014434	0.006275	-0.828735	-0.640747	-0.286987	1035	17_29_19_0320000
0.880154	0.372570	0.300150	-0.005962	0.011610	0.006275	-0.828735	-0.640625	-0.287109	1036	17_29_19_0400000
0.880154	0.372570	0.300150	0.007217	0.006903	-0.001255	-0.828735	-0.640625	-0.287109	1037	17_29_19_0480000
0.880154	0.372570	0.300150	-0.001569	0.010355	0.011296	-0.828735	-0.640625	-0.287231	1038	17_29_19_0560000
0.880154	0.372356	0.300363	-0.006903	0.006275	0.007531	-0.828735	-0.640503	-0.287231	1039	17_29_19_0640000
0.880154	0.372356	0.300363	-0.007217	0.000000	0.010982	-0.828857	-0.640503	-0.287354	1040	17_29_19_0720000
0.880154	0.372356	0.300363	-0.019768	0.006275	0.000628	-0.828857	-0.640381	-0.287354	1041	17_29_19_0800000
0.880154	0.372356	0.300577	-0.015375	0.005648	-0.005020	-0.828857	-0.640381	-0.287476	1042	17_29_19_0880000
0.880154	0.372143	0.300577	-0.029495	0.006903	-0.005648	-0.828735	-0.640381	-0.287598	1043	17_29_19_0960000
0.880154	0.372143	0.300790	-0.007217	0.002824	-0.006589	-0.828735	-0.640381	-0.287720	1044	17_29_19_1040000
0.879940	0.372356	0.300790	0.002196	0.005962	-0.014120	-0.828735	-0.640381	-0.287842	1045	17_29_19_1120000
0.879940	0.372356	0.300790	0.013492	0.013492	0.003452	-0.828613	-0.640503	-0.287842	1046	17_29_19_1200000
0.879940	0.372356	0.300790	0.005648	0.011296	0.007217	-0.828613	-0.640503	-0.287842	1047	17_29_19_1280000
0.879940	0.372356	0.301004	-0.001255	0.009413	-0.005962	-0.828613	-0.640503	-0.287964	1048	17_29_19_1360000
0.879940	0.372356	0.301004	0.006903	-0.005020	-0.010355	-0.828613	-0.640503	-0.287964	1049	17_29_19_1440000
0.879940	0.372356	0.301004	0.003765	0.000000	0.007531	-0.828613	-0.640503	-0.287842	1050	17_29_19_1520000
0.879940	0.372356	0.301004	-0.001569	0.005648	-0.000628	-0.828613	-0.640503	-0.287842	1051	17_29_19_1600000
0.879940	0.372356	0.301004	0.007217	0.003138	-0.005020	-0.828491	-0.640625	-0.287842	1052	17_29_19_1680000
0.879940	0.372570	0.301004	0.005648	0.013492	0.002824	-0.828491	-0.640625	-0.287842	1053	17_29_19_1760000
0.879940	0.372356	0.301004	-0.004707	0.005962	0.003138	-0.828491	-0.640625	-0.287964	1054	17_29_19_1840000
0.879940	0.372356	0.301218	0.013806	0.013179	0.001883	-0.828491	-0.640625	-0.287964	1055	17_29_19_1920000
0.879727	0.372356	0.301218	0.011610	0.001569	0.005334	-0.828491	-0.640625	-0.287964	1056	17_29_19_2000000
0.879727	0.372570	0.301218	-0.002824	0.011296	-0.006275	-0.828491	-0.640625	-0.287964	1057	17_29_19_2080000
0.879727	0.372570	0.301218	-0.003138	0.011296	-0.005334	-0.828369	-0.640625	-0.288086	1058	17_29_19_2160000
0.879727	0.372570	0.301431	-0.001255	0.006275	-0.001255	-0.828369	-0.640625	-0.288086	1059	17_29_19_2240000
0.879727	0.372570	0.301431	0.002824	-0.000314	0.003138	-0.828369	-0.640625	-0.288086	1060	17_29_19_2320000
0.879727	0.372570	0.301431	0.001883	-0.002824	0.003452	-0.828369	-0.640625	-0.288086	1061	17_29_19_2400000
0.879727	0.372570	0.301431	-0.010668	-0.002196	-0.005334	-0.828369	-0.640625	-0.288086	1062	17_29_19_2480000
0.879727	0.372570	0.301431	-0.008158	0.000628	-0.000941	-0.828369	-0.640625	-0.288208	1063	17_29_19_2560000
0.879727	0.372570	0.301431	0.001569	0.010982	-0.004079	-0.828369	-0.640625	-0.288208	1064	17_29_19_2640000
0.879727	0.372570	0.301645	0.005962	0.018826	0.005334	-0.828369	-0.640625	-0.288330	1065	17_29_19_2720000
0.879727	0.372570	0.301645	0.010355	0.008472	-0.001255	-0.828369	-0.640625	-0.288330	1066	17_29_19_2800000
0.879513	0.372570	0.301645	-0.013179	0.001255	-0.003452	-0.828247	-0.640625	-0.288330	1067	17_29_19_2880000
0.879513	0.372570	0.301645	-0.006903	-0.007217	-0.000628	-0.828247	-0.640625	-0.288330	1068	17_29_19_2960000
0.879727	0.372570	0.301645	-0.006275	-0.010355	0.007531	-0.828369	-0.640625	-0.288330	1069	17_29_19_3040000
0.879727	0.372356	0.301645	-0.006275	-0.004079	0.003452	-0.828369	-0.640503	-0.288330	1070	17_29_19_3120000
0.879727	0.372356	0.301645	0.005020	-0.005020	0.011923	-0.828369	-0.640503	-0.288330	1071	17_29_19_3200000
0.879727	0.372356	0.301645	0.000628	-0.010041	0.022592	-0.828491	-0.640381	-0.288208	1072	17_29_19_3280000
0.879727	0.372143	0.301431	-0.003452	-0.005648	0.000941	-0.828613	-0.640381	-0.288208	1073	17_29_19_3360000
0.879727	0.372143	0.301645	-0.010668	0.003138	-0.009099	-0.828613	-0.640381	-0.288208	1074	17_29_19_3440000
0.879727	0.372143	0.301645	-0.004079	0.009099	-0.005648	-0.828491	-0.640381	-0.288330	1075	17_29_19_3520000
0.879727	0.372356	0.301645	0.016003	0.005962	-0.002196	-0.828491	-0.640381	-0.288330	1076	17_29_19_3600000
0.879727	0.372356	0.301645	-0.005648	-0.012865	0.004707	-0.828491	-0.640381	-0.288208	1077	17_29_19_3680000
0.879727	0.372356	0.301431	0.012551	-0.010982	-0.007844	-0.828491	-0.640381	-0.288086	1078	17_29_19_3760000
0.879727	0.372356	0.301431	0.002824	-0.015375	0.001255	-0.828491	-0.640503	-0.287964	1079	17_29_19_3840000
0.879940	0.372356	0.301431	-0.004079	-0.009099	0.000314	-0.828613	-0.640503	-0.287964	1080	17_29_19_3920000
0.879940	0.372356	0.301218	-0.000314	-0.001883	0.009727	-0.828613	-0.640381	-0.287842	1081	17_29_19_4000000
0.879940	0.372356	0.301218	0.010041	-0.002196	-0.000628	-0.828613	-0.640381	-0.287842	1082	17_29_19_4080000
0.879940	0.372356	0.301218	0.006275	0.003138	-0.003452	-0.828613	-0.640503	-0.287842	1083	17_29_19_4160000
0.879940	0.372356	0.301218	0.000314	0.002824	0.006275	-0.828613	-0.640503	-0.287842	1084	17_29_19_4240000
0.879940	0.372356	0.301218	0.007217	0.007531	-0.003138	-0.828613	-0.640503	-0.287842	1085	17_29_19_4320000
0.879940	0.372356	0.301431	0.005962	0.016316	0.013806	-0.828613	-0.640381	-0.287842	1086	17_29_19_4400000
0.879940	0.372143	0.301431	-0.004393	0.008158	0.005648	-0.828613	-0.640381	-0.287964	1087	17_29_19_4480000
0.879940	0.372143	0.301645	-0.010668	0.010355	0.007531	-0.828613	-0.640259	-0.287964	1088	17_29_19_4560000
0.879940	0.372143	0.301645	-0.013492	0.011610	0.008786	-0.828613	-0.640259	-0.288208	1089	17_29_19_4640000
0.879940	0.371929	0.301645	-0.005648	0.005020	0.020082	-0.828735	-0.640137	-0.288208	1090	17_29_19_4720000
0.879940	0.371929	0.301859	0.002510	0.000941	0.007531	-0.828735	-0.640015	-0.288208	1091	17_29_19_4800000
0.879940	0.371929	0.301645	0.002824	-0.007217	-0.000941	-0.828857	-0.640015	-0.288208	1092	17_29_19_4880000
0.879940	0.371929	0.301645	0.004393	-0.005334	-0.003765	-0.828857	-0.640015	-0.288208	1093	17_29_19_4960000
0.879940	0.371929	0.301645	0.002196	-0.000314	-0.002196	-0.828735	-0.640015	-0.288086	1094	17_29_19_5040000
0.879940	0.371929	0.301645	-0.007217	-0.000941	0.004393	-0.828857	-0.640015	-0.288086	1095	17_29_19_5120000
0.879940	0.371715	0.301645	-0.001255	0.003138	0.008158	-0.828857	-0.640015	-0.288208	1096	17_29_19_5200000
0.879940	0.371715	0.301645	0.006589	-0.011296	0.011923	-0.828857	-0.640015	-0.288086	1097	17_29_19_5280000
0.879940	0.371715	0.301645	0.017885	0.001569	0.004707	-0.828979	-0.639893	-0.287964	1098	17_29_19_5360000
0.879940	0.371715	0.301645	0.007217	0.001255	0.000000	-0.828979	-0.639893	-0.287964	1099	17_29_19_5440000
0.879940	0.371715	0.301645	0.014747	0.014434	-0.001255	-0.828979	-0.640015	-0.287964	1100	17_29_19_5520000
0.879940	0.371715	0.301645	0.011610	-0.000314	-0.003138	-0.828857	-0.640015	-0.287964	1101	17_29_19_5600000
0.879940	0.371929	0.301645	0.006903	-0.008472	0.005334	-0.828857	-0.640015	-0.287842	1102	17_29_19_5680000
0.879940	0.371715	0.301645	-0.001255	0.005020	0.005020	-0.828979	-0.640015	-0.287842	1103	17_29_19_5760000
0.879940	0.371715	0.301431	0.000314	-0.010982	-0.006275	-0.828979	-0.640015	-0.287842	1104	17_29_19_5840000
0.879940	0.371715	0.301431	0.000941	0.002510	0.003452	-0.828979	-0.640015	-0.287720	1105	17_29_19_5920000
0.879940	0.371715	0.301431	0.004707	-0.000628	0.002196	-0.828979	-0.640015	-0.287720	1106	17_29_19_6000000
0.879940	0.371715	0.301431	0.003138	-0.003138	-0.000628	-0.828979	-0.640015	-0.287720	1107	17_29_19_6080000
0.879940	0.371929	0.301431	0.008472	0.014434	0.000628	-0.828979	-0.640015	-0.287720	1108	17_29_19_6160000
0.879940	0.371929	0.301645	0.002510	0.003138	0.004079	-0.828979	-0.640015	-0.287720	1109	17_29_19_6240000
0.879940	0.371715	0.301645	0.004707	0.000941	-0.000628	-0.828979	-0.640015	-0.287720	1110	17_29_19_6320000
0.879940	0.371929	0.301645	0.009413	0.005334	0.003765	-0.828979	-0.640015	-0.287720	1111	17_29_19_6400000
0.879940	0.371929	0.301645	0.008786	0.007531	-0.002824	-0.828979	-0.640015	-0.287720	1112	17_29_19_6480000
0.879940	0.371929	0.301645	0.015375	0.005020	-0.011923	-0.828857	-0.640137	-0.287720	1113	17_29_19_6560000
0.879940	0.372143	0.301645	0.019768	-0.002510	-0.019454	-0.828857	-0.640259	-0.287598	1114	17_29_19_6640000
0.879727	0.372143	0.301431	0.005648	0.003138	-0.000628	-0.828735	-0.640381	-0.287598	1115	17_29_19_6720000
0.879727	0.372143	0.301645	0.003138	0.005334	0.009413	-0.828735	-0.640381	-0.287598	1116	17_29_19_6800000
0.879940	0.372143	0.301645	0.004079	-0.004707	0.007217	-0.828857	-0.640381	-0.287476	1117	17_29_19_6880000
0.879940	0.372143	0.301431	0.002824	-0.001883	0.002824	-0.828857	-0.640259	-0.287476	1118	17_29_19_6960000
0.879940	0.372143	0.301431	-0.006589	0.000000	0.001569	-0.828857	-0.640259	-0.287476	1119	17_29_19_7040000
0.879940	0.371929	0.301645	-0.006275	-0.001255	0.003452	-0.828857	-0.640259	-0.287476	1120	17_29_19_7120000
0.879940	0.371929	0.301645	0.009099	0.004393	0.007531	-0.828857	-0.640259	-0.287476	1121	17_29_19_7200000
0.879940	0.371929	0.301645	0.007217	0.003452	0.007531	-0.828979	-0.640137	-0.287476	1122	17_29_19_7280000
0.879940	0.371929	0.301645	-0.002510	0.010982	-0.005962	-0.828857	-0.640137	-0.287476	1123	17_29_19_7360000
0.879940	0.371929	0.301645	-0.001569	0.005334	-0.001255	-0.828857	-0.640259	-0.287598	1124	17_29_19_7440000
