sensor_ID	3337
Accel_X	Accel_Y	Accel_Z	Roll	Pitch	Yaw	Mag_X	Mag_Y	Mag_Z	Count	SysTime
0.019227	0.815210	0.567827	0.009413	0.010041	0.008158	-0.257813	-0.970337	-0.734253	0	17_29_10_7520000
0.019227	0.815210	0.567827	-0.009099	0.009099	0.008158	-0.257813	-0.970337	-0.734253	1	17_29_10_7600000
0.019227	0.815210	0.567827	-0.005020	0.002196	0.008472	-0.257813	-0.970215	-0.734253	2	17_29_10_7680000
0.019440	0.815210	0.567827	-0.005334	0.004393	0.012865	-0.257813	-0.970215	-0.734253	3	17_29_10_7760000
0.019440	0.815210	0.567827	0.004707	0.011296	-0.006589	-0.257813	-0.970215	-0.734253	4	17_29_10_7840000
0.019227	0.815210	0.567827	-0.011296	0.006903	0.001883	-0.257813	-0.970215	-0.734253	5	17_29_10_7920000
0.019227	0.815210	0.567827	0.006589	0.009099	-0.001883	-0.257813	-0.970215	-0.734375	6	17_29_10_8000000
0.019227	0.815210	0.567827	0.008158	0.006903	-0.007217	-0.257690	-0.970337	-0.734253	7	17_29_10_8080000
0.019227	0.815424	0.567614	0.007844	0.010668	0.005334	-0.257568	-0.970337	-0.734131	8	17_29_10_8160000
0.019227	0.815424	0.567614	0.001883	0.002510	0.000628	-0.257568	-0.970459	-0.734131	9	17_29_10_8240000
0.019227	0.815424	0.567614	0.010355	0.006589	0.000628	-0.257568	-0.970459	-0.734131	10	17_29_10_8320000
0.019013	0.815424	0.567614	0.007531	0.014434	0.010668	-0.257568	-0.970459	-0.734009	11	17_29_10_8400000
0.019013	0.815424	0.567400	0.000314	0.013806	0.004707	-0.257568	-0.970581	-0.734009	12	17_29_10_8480000
0.019013	0.815424	0.567400	-0.000941	0.020395	0.008786	-0.257568	-0.970581	-0.734009	13	17_29_10_8560000
0.019013	0.815424	0.567400	0.008786	0.022278	0.000000	-0.257446	-0.970581	-0.734009	14	17_29_10_8640000
0.019013	0.815424	0.567400	-0.003765	0.011610	-0.000314	-0.257324	-0.970581	-0.734009	15	17_29_10_8720000
0.019013	0.815424	0.567400	-0.015375	0.007844	0.014747	-0.257324	-0.970581	-0.734009	16	17_29_10_8800000
0.019013	0.815424	0.567614	0.003138	0.003138	0.017885	-0.257446	-0.970459	-0.734131	17	17_29_10_8880000
0.019013	0.815424	0.567400	0.001883	0.006903	0.007217	-0.257568	-0.970459	-0.734131	18	17_29_10_8960000
0.019013	0.815424	0.567400	-0.002824	0.011610	0.003138	-0.257568	-0.970459	-0.734131	19	17_29_10_9040000
0.019013	0.815424	0.567400	0.000000	0.005962	0.009413	-0.257568	-0.970459	-0.734131	20	17_29_10_9120000
0.019227	0.815424	0.567400	-0.004393	0.003765	0.006589	-0.257568	-0.970459	-0.734131	21	17_29_10_9200000
0.019227	0.815424	0.567614	-0.015689	-0.001883	0.010982	-0.257568	-0.970459	-0.734131	22	17_29_10_9280000
0.019227	0.815424	0.567614	0.005020	0.006275	0.003765	-0.257690	-0.970337	-0.734131	23	17_29_10_9360000
0.019227	0.815424	0.567614	-0.003452	0.003138	-0.003452	-0.257690	-0.970337	-0.734131	24	17_29_10_9440000
0.019227	0.815424	0.567614	-0.013806	0.003765	0.003138	-0.257690	-0.970337	-0.734253	25	17_29_10_9520000
0.019227	0.815424	0.567614	-0.004393	-0.006275	0.001255	-0.257690	-0.970337	-0.734253	26	17_29_10_9600000
0.019227	0.815424	0.567614	-0.005648	0.008786	0.002196	-0.257690	-0.970337	-0.734253	27	17_29_10_9680000
0.019227	0.815424	0.567614	-0.001569	0.008472	-0.004707	-0.257568	-0.970337	-0.734253	28	17_29_10_9760000
0.019227	0.815424	0.567614	-0.009099	-0.001255	0.004079	-0.257568	-0.970337	-0.734253	29	17_29_10_9840000
0.019227	0.815424	0.567614	0.006903	0.005020	0.014120	-0.257690	-0.970215	-0.734253	30	17_29_10_9920000
0.019227	0.815424	0.567614	0.001255	0.008472	0.014434	-0.257690	-0.970337	-0.734253	31	17_29_11_0000000
0.019440	0.815424	0.567614	0.004707	0.005962	0.014747	-0.257813	-0.970337	-0.734253	32	17_29_11_0080000
0.019440	0.815424	0.567614	-0.005020	0.017258	0.002196	-0.257813	-0.970337	-0.734253	33	17_29_11_0160000
0.019440	0.815424	0.567614	0.001255	-0.000628	0.011296	-0.257813	-0.970337	-0.734253	34	17_29_11_0240000
0.019440	0.815424	0.567614	-0.002824	0.014747	0.000628	-0.257813	-0.970337	-0.734253	35	17_29_11_0320000
0.019227	0.815424	0.567614	0.006903	0.015061	-0.001569	-0.257690	-0.970337	-0.734253	36	17_29_11_0400000
0.019227	0.815424	0.567614	0.008158	0.012551	-0.000628	-0.257690	-0.970337	-0.734131	37	17_29_11_0480000
0.019227	0.815638	0.567400	0.006903	0.017571	0.004393	-0.257568	-0.970459	-0.734131	38	17_29_11_0560000
0.019013	0.815638	0.567400	0.000000	0.022592	-0.001569	-0.257446	-0.970459	-0.734131	39	17_29_11_0640000
0.019013	0.815638	0.567400	0.000314	0.018826	0.007531	-0.257446	-0.970459	-0.734131	40	17_29_11_0720000
0.019013	0.815638	0.567400	-0.003138	0.015061	0.011296	-0.257446	-0.970459	-0.734131	41	17_29_11_0800000
0.019013	0.815638	0.567400	0.002196	0.004393	0.013806	-0.257446	-0.970459	-0.734131	42	17_29_11_0880000
0.019227	0.815638	0.567400	0.002824	0.011610	0.011296	-0.257446	-0.970459	-0.734131	43	17_29_11_0960000
0.019227	0.815638	0.567400	-0.013806	0.005334	0.002510	-0.257446	-0.970459	-0.734131	44	17_29_11_1040000
0.019227	0.815638	0.567400	-0.004393	0.012551	0.007531	-0.257446	-0.970337	-0.734253	45	17_29_11_1120000
0.019227	0.815638	0.567400	0.009727	0.010355	0.009413	-0.257446	-0.970337	-0.734253	46	17_29_11_1200000
0.019227	0.815638	0.567400	0.010041	0.007531	0.009413	-0.257568	-0.970459	-0.734131	47	17_29_11_1280000
0.019227	0.815638	0.567186	0.012865	0.013806	0.008786	-0.257568	-0.970459	-0.734009	48	17_29_11_1360000
0.019227	0.815638	0.567186	0.002824	0.010982	0.004393	-0.257568	-0.970581	-0.734009	49	17_29_11_1440000
0.019227	0.815851	0.567186	0.010355	0.011923	-0.001255	-0.257446	-0.970581	-0.734009	50	17_29_11_1520000
0.019013	0.815851	0.567186	0.003452	0.007217	0.003138	-0.257446	-0.970703	-0.733887	51	17_29_11_1600000
0.019013	0.815851	0.566973	0.002196	0.004707	0.002824	-0.257446	-0.970703	-0.733887	52	17_29_11_1680000
0.019013	0.815851	0.566973	0.008472	0.010355	-0.003765	-0.257324	-0.970703	-0.733887	53	17_29_11_1760000
0.019013	0.815851	0.566973	-0.001569	0.004393	0.008786	-0.257324	-0.970703	-0.733765	54	17_29_11_1840000
0.019013	0.815851	0.566973	0.005334	0.006589	0.021337	-0.257446	-0.970703	-0.733765	55	17_29_11_1920000
0.019227	0.815851	0.566973	0.003452	0.000314	0.007217	-0.257568	-0.970825	-0.733765	56	17_29_11_2000000
0.019227	0.815851	0.566973	-0.005334	-0.004393	0.006275	-0.257568	-0.970825	-0.733765	57	17_29_11_2080000
0.019227	0.815851	0.566973	0.003138	-0.001883	0.007217	-0.257690	-0.970703	-0.733643	58	17_29_11_2160000
0.019440	0.815851	0.566973	-0.005962	0.001883	0.005648	-0.257690	-0.970703	-0.733643	59	17_29_11_2240000
0.019440	0.815851	0.566973	0.002196	0.010982	0.008158	-0.257690	-0.970703	-0.733643	60	17_29_11_2320000
0.019440	0.815851	0.566973	-0.004079	0.007844	0.017885	-0.257813	-0.970703	-0.733643	61	17_29_11_2400000
0.019440	0.815851	0.566973	-0.004079	0.009727	0.004707	-0.257813	-0.970703	-0.733765	62	17_29_11_2480000
0.019440	0.815851	0.566973	0.004393	0.006275	-0.002824	-0.257813	-0.970703	-0.733765	63	17_29_11_2560000
0.019440	0.815851	0.566973	-0.002196	0.014120	-0.002824	-0.257690	-0.970703	-0.733643	64	17_29_11_2640000
0.019227	0.815851	0.566973	-0.001883	0.014747	-0.002824	-0.257568	-0.970703	-0.733765	65	17_29_11_2720000
0.019227	0.815851	0.566973	0.005020	0.011923	-0.008158	-0.257568	-0.970825	-0.733765	66	17_29_11_2800000
0.019227	0.815851	0.566973	-0.003452	0.009727	0.005020	-0.257446	-0.970825	-0.733765	67	17_29_11_2880000
0.019013	0.815851	0.566973	0.004393	0.006275	-0.003452	-0.257446	-0.970825	-0.733765	68	17_29_11_2960000
0.019013	0.815851	0.566759	-0.003452	0.006275	0.005020	-0.257324	-0.970825	-0.733643	69	17_29_11_3040000
0.019013	0.815851	0.566973	-0.007217	0.013492	0.002510	-0.257324	-0.970825	-0.733765	70	17_29_11_3120000
0.019013	0.815851	0.566973	-0.010668	0.011296	0.010041	-0.257324	-0.970825	-0.733765	71	17_29_11_3200000
0.019013	0.815851	0.566973	-0.017885	0.013806	0.002510	-0.257324	-0.970703	-0.733887	72	17_29_11_3280000
0.019013	0.815851	0.567186	-0.009727	0.006275	0.000000	-0.257324	-0.970581	-0.734009	73	17_29_11_3360000
0.019013	0.815638	0.567186	-0.012237	-0.000628	0.000628	-0.257324	-0.970581	-0.734131	74	17_29_11_3440000
0.019013	0.815638	0.567186	-0.007217	-0.000941	-0.006903	-0.257202	-0.970581	-0.734131	75	17_29_11_3520000
0.019013	0.815638	0.567186	0.004079	-0.007844	-0.003452	-0.257202	-0.970581	-0.734131	76	17_29_11_3600000
0.019013	0.815638	0.567186	0.003452	0.003138	-0.000628	-0.257202	-0.970581	-0.734131	77	17_29_11_3680000
0.019013	0.815851	0.567186	0.003138	0.001255	-0.001569	-0.257202	-0.970581	-0.734009	78	17_29_11_3760000
0.019013	0.815851	0.566973	0.014434	0.003765	0.001883	-0.257202	-0.970703	-0.733887	79	17_29_11_3840000
0.019013	0.815851	0.566973	0.007531	0.011610	0.009099	-0.257202	-0.970825	-0.733887	80	17_29_11_3920000
0.019013	0.815851	0.566973	0.005020	0.009413	0.016003	-0.257324	-0.970825	-0.733765	81	17_29_11_4000000
0.019013	0.815851	0.566973	-0.005648	0.008472	0.014434	-0.257324	-0.970825	-0.733765	82	17_29_11_4080000
0.019013	0.815851	0.566973	0.007217	0.012551	0.007217	-0.257324	-0.970825	-0.733765	83	17_29_11_4160000
0.019013	0.815851	0.566759	-0.004393	0.016316	0.001255	-0.257324	-0.970825	-0.733765	84	17_29_11_4240000
0.019013	0.815851	0.566759	0.001883	0.013492	0.009099	-0.257324	-0.970825	-0.733765	85	17_29_11_4320000
0.019013	0.815851	0.566759	0.001883	0.017885	0.022278	-0.257324	-0.970825	-0.733765	86	17_29_11_4400000
0.019227	0.815851	0.566759	-0.003138	0.010355	0.021337	-0.257446	-0.970703	-0.733765	87	17_29_11_4480000
0.019227	0.815851	0.566759	0.000314	0.007531	0.005648	-0.257446	-0.970703	-0.733887	88	17_29_11_4560000
0.019227	0.815851	0.566759	-0.004393	0.006275	0.008158	-0.257446	-0.970703	-0.733887	89	17_29_11_4640000
0.019227	0.815851	0.566759	0.007531	0.008786	0.016316	-0.257568	-0.970703	-0.733765	90	17_29_11_4720000
0.019227	0.816065	0.566759	0.001255	0.009727	0.015689	-0.257568	-0.970703	-0.733765	91	17_29_11_4800000
0.019440	0.816065	0.566759	0.004079	0.001569	0.011296	-0.257690	-0.970703	-0.733765	92	17_29_11_4880000
0.019440	0.816065	0.566759	0.004707	0.002510	0.014747	-0.257813	-0.970703	-0.733643	93	17_29_11_4960000
0.019440	0.816065	0.566759	-0.006903	0.013179	0.014434	-0.257813	-0.970703	-0.733765	94	17_29_11_5040000
0.019440	0.816065	0.566759	-0.016316	0.013179	0.012551	-0.257813	-0.970703	-0.733765	95	17_29_11_5120000
0.019440	0.815851	0.566973	-0.012237	0.018199	0.000314	-0.257813	-0.970581	-0.733887	96	17_29_11_5200000
0.019440	0.815851	0.566973	-0.006903	0.012865	0.005648	-0.257813	-0.970581	-0.734009	97	17_29_11_5280000
0.019440	0.815851	0.566973	-0.004707	0.014747	-0.002824	-0.257690	-0.970459	-0.734009	98	17_29_11_5360000
0.019440	0.815851	0.566973	-0.001569	0.019140	0.004079	-0.257568	-0.970459	-0.734131	99	17_29_11_5440000
0.019227	0.815851	0.566973	-0.002824	0.003765	0.003452	-0.257568	-0.970459	-0.734131	100	17_29_11_5520000
0.019227	0.815851	0.566973	-0.002824	0.008472	0.009413	-0.257568	-0.970459	-0.734131	101	17_29_11_5600000
0.019440	0.815851	0.566973	-0.004079	-0.003138	0.008472	-0.257690	-0.970459	-0.734131	102	17_29_11_5680000
0.019440	0.815851	0.566973	-0.008786	-0.001569	-0.006589	-0.257690	-0.970459	-0.734131	103	17_29_11_5760000
0.019440	0.815851	0.566973	-0.005020	0.010668	-0.005020	-0.257568	-0.970459	-0.734131	104	17_29_11_5840000
0.019227	0.815851	0.566973	0.004707	0.012551	0.001569	-0.257568	-0.970459	-0.734253	105	17_29_11_5920000
0.019227	0.815851	0.566973	0.002510	0.015375	0.002510	-0.257446	-0.970459	-0.734131	106	17_29_11_6000000
0.019227	0.815851	0.566973	-0.000628	0.015689	-0.002510	-0.257446	-0.970459	-0.734131	107	17_29_11_6080000
0.019013	0.815851	0.566973	0.016003	0.014747	0.004079	-0.257324	-0.970581	-0.734131	108	17_29_11_6160000
0.019013	0.816065	0.566973	0.004079	0.013492	0.000941	-0.257202	-0.970581	-0.734009	109	17_29_11_6240000
0.019013	0.816065	0.566759	0.008158	0.012865	0.007531	-0.257202	-0.970703	-0.734009	110	17_29_11_6320000
0.019013	0.816065	0.566759	0.000941	0.014434	0.008786	-0.257202	-0.970703	-0.734009	111	17_29_11_6400000
0.019013	0.816065	0.566759	0.000628	0.009413	0.013492	-0.257202	-0.970703	-0.734009	112	17_29_11_6480000
0.019013	0.816065	0.566759	0.007531	0.015689	0.005962	-0.257202	-0.970703	-0.734009	113	17_29_11_6560000
0.019013	0.816065	0.566759	0.005648	0.017571	0.006589	-0.257202	-0.970703	-0.733887	114	17_29_11_6640000
0.019013	0.816065	0.566759	-0.018826	0.016003	0.016630	-0.257202	-0.970703	-0.734009	115	17_29_11_6720000
0.019013	0.816065	0.566759	0.000628	0.008786	0.006903	-0.257202	-0.970703	-0.734009	116	17_29_11_6800000
0.019013	0.816065	0.566759	-0.005020	0.002196	0.010982	-0.257202	-0.970581	-0.734009	117	17_29_11_6880000
0.019227	0.816065	0.566759	0.004707	0.011610	0.008786	-0.257324	-0.970581	-0.734009	118	17_29_11_6960000
0.019013	0.816065	0.566759	-0.009727	0.017258	-0.002510	-0.257202	-0.970581	-0.734131	119	17_29_11_7040000
0.019013	0.816065	0.566759	-0.013492	0.015689	0.006903	-0.257202	-0.970581	-0.734131	120	17_29_11_7120000
0.019013	0.815851	0.566973	-0.007217	0.006275	0.008158	-0.257202	-0.970459	-0.734253	121	17_29_11_7200000
0.019013	0.815851	0.566973	-0.006275	0.001883	0.004707	-0.257202	-0.970459	-0.734253	122	17_29_11_7280000
0.019013	0.815851	0.566973	0.001255	0.004393	0.002196	-0.257202	-0.970459	-0.734253	123	17_29_11_7360000
0.019013	0.815851	0.566973	0.001255	0.014747	-0.000941	-0.257202	-0.970459	-0.734253	124	17_29_11_7440000
0.019013	0.815851	0.566973	0.000941	0.007844	-0.005020	-0.257080	-0.970581	-0.734253	125	17_29_11_7520000
0.018799	0.815851	0.566973	-0.003765	-0.001255	-0.009099	-0.256958	-0.970581	-0.734253	126	17_29_11_7600000
0.018799	0.815851	0.566973	-0.009413	0.001569	-0.000314	-0.256958	-0.970581	-0.734253	127	17_29_11_7680000
0.018799	0.815851	0.566973	-0.005334	0.003452	-0.006589	-0.256958	-0.970459	-0.734375	128	17_29_11_7760000
0.018799	0.815851	0.566973	-0.011923	0.013492	-0.011296	-0.256836	-0.970459	-0.734375	129	17_29_11_7840000
0.018799	0.815851	0.566973	-0.000314	0.004079	0.004079	-0.256714	-0.970459	-0.734497	130	17_29_11_7920000
0.018586	0.815851	0.566973	-0.008472	-0.001255	-0.010355	-0.256714	-0.970459	-0.734497	131	17_29_11_8000000
0.018586	0.815851	0.566973	0.002824	0.005020	-0.002510	-0.256714	-0.970459	-0.734497	132	17_29_11_8080000
0.018586	0.815851	0.566973	-0.006589	0.002510	0.005648	-0.256714	-0.970459	-0.734497	133	17_29_11_8160000
0.018586	0.815851	0.566973	0.016630	0.011610	0.006275	-0.256714	-0.970581	-0.734375	134	17_29_11_8240000
0.018586	0.815851	0.566973	-0.002824	0.008786	0.003452	-0.256714	-0.970581	-0.734375	135	17_29_11_8320000
0.018586	0.815851	0.566973	0.003138	0.015375	0.010668	-0.256714	-0.970581	-0.734375	136	17_29_11_8400000
0.018586	0.816065	0.566973	0.005648	0.014434	0.010041	-0.256592	-0.970581	-0.734375	137	17_29_11_8480000
0.018586	0.816065	0.566759	0.001883	0.012865	0.017258	-0.256714	-0.970581	-0.734375	138	17_29_11_8560000
0.018586	0.816065	0.566759	-0.000314	0.019454	0.015061	-0.256714	-0.970581	-0.734375	139	17_29_11_8640000
0.018586	0.816065	0.566759	0.002824	0.021964	0.013492	-0.256714	-0.970581	-0.734375	140	17_29_11_8720000
0.018799	0.816065	0.566759	0.000000	0.016316	0.018199	-0.256714	-0.970581	-0.734375	141	17_29_11_8800000
0.018799	0.816065	0.566759	0.018513	0.010041	0.012237	-0.256714	-0.970581	-0.734253	142	17_29_11_8880000
0.018799	0.816065	0.566546	0.006903	0.025102	0.011923	-0.256714	-0.970703	-0.734131	143	17_29_11_8960000
0.018799	0.816065	0.566546	0.013806	0.021650	0.009413	-0.256714	-0.970703	-0.734131	144	17_29_11_9040000
0.018799	0.816279	0.566546	0.000314	0.009727	0.020082	-0.256714	-0.970825	-0.734131	145	17_29_11_9120000
0.018799	0.816279	0.566546	0.000941	0.019454	0.013492	-0.256836	-0.970703	-0.734131	146	17_29_11_9200000
0.018799	0.816279	0.566546	0.004707	0.013806	0.010355	-0.256836	-0.970825	-0.734131	147	17_29_11_9280000
0.018799	0.816279	0.566332	0.011610	0.025102	0.017885	-0.256836	-0.970825	-0.734009	148	17_29_11_9360000
0.018799	0.816279	0.566332	-0.007531	0.021650	0.014120	-0.256836	-0.970825	-0.734009	149	17_29_11_9440000
0.018799	0.816279	0.566332	-0.001255	0.013179	0.008158	-0.256836	-0.970703	-0.734131	150	17_29_11_9520000
0.018799	0.816279	0.566332	0.005648	0.008158	0.010041	-0.256836	-0.970825	-0.734131	151	17_29_11_9600000
0.018799	0.816279	0.566332	-0.001883	0.008472	0.007217	-0.256836	-0.970825	-0.734009	152	17_29_11_9680000
0.018799	0.816279	0.566332	0.004393	0.001883	0.007531	-0.256836	-0.970825	-0.734009	153	17_29_11_9760000
0.018799	0.816279	0.566332	-0.004707	0.006589	0.004079	-0.256836	-0.970825	-0.734009	154	17_29_11_9840000
0.019013	0.816279	0.566332	-0.005020	-0.000628	0.009727	-0.256958	-0.970703	-0.734009	155	17_29_11_9920000
0.019013	0.816279	0.566332	0.000628	0.000000	-0.002196	-0.256958	-0.970703	-0.734009	156	17_29_12_0000000
0.019013	0.816279	0.566332	0.006589	-0.000314	-0.002510	-0.256958	-0.970825	-0.734009	157	17_29_12_0080000
0.019013	0.816279	0.566332	0.000941	-0.008472	0.007844	-0.256958	-0.970825	-0.733887	158	17_29_12_0160000
0.019013	0.816279	0.566332	-0.005648	-0.002196	0.012865	-0.257080	-0.970825	-0.733887	159	17_29_12_0240000
0.019227	0.816279	0.566332	-0.008472	-0.011610	0.015689	-0.257202	-0.970703	-0.734009	160	17_29_12_0320000
0.019227	0.816279	0.566332	-0.017258	-0.002196	0.006589	-0.257324	-0.970703	-0.734009	161	17_29_12_0400000
0.019227	0.816279	0.566546	-0.007217	0.006275	0.004393	-0.257446	-0.970581	-0.734131	162	17_29_12_0480000
0.019227	0.816279	0.566546	0.000000	0.006589	0.001883	-0.257446	-0.970581	-0.734131	163	17_29_12_0560000
0.019227	0.816279	0.566546	-0.003138	0.008786	0.004707	-0.257446	-0.970581	-0.734131	164	17_29_12_0640000
0.019227	0.816279	0.566546	-0.000941	0.005334	-0.005648	-0.257324	-0.970581	-0.734131	165	17_29_12_0720000
0.019227	0.816279	0.566546	0.009727	-0.000941	0.010041	-0.257324	-0.970703	-0.734131	166	17_29_12_0800000
0.019227	0.816279	0.566332	0.016944	0.002196	0.004079	-0.257446	-0.970703	-0.734009	167	17_29_12_0880000
0.019227	0.816279	0.566332	0.006589	0.007844	-0.005334	-0.257324	-0.970825	-0.733887	168	17_29_12_0960000
0.019227	0.816492	0.566118	0.007531	0.011296	0.007217	-0.257324	-0.970825	-0.733765	169	17_29_12_1040000
0.019227	0.816492	0.566118	0.008786	0.003765	0.011923	-0.257324	-0.970947	-0.733765	170	17_29_12_1120000
0.019440	0.816492	0.566118	0.007844	0.009099	0.012237	-0.257446	-0.970947	-0.733643	171	17_29_12_1200000
0.019440	0.816492	0.566118	0.008786	0.003765	0.011296	-0.257446	-0.970947	-0.733643	172	17_29_12_1280000
0.019440	0.816492	0.565905	0.010041	0.008786	0.010668	-0.257568	-0.971069	-0.733521	173	17_29_12_1360000
0.019440	0.816706	0.565905	0.004393	0.012551	0.005020	-0.257568	-0.971069	-0.733521	174	17_29_12_1440000
0.019440	0.816706	0.565905	0.010041	0.013492	-0.007531	-0.257446	-0.971069	-0.733398	175	17_29_12_1520000
0.019227	0.816706	0.565691	0.009413	0.020709	-0.002824	-0.257324	-0.971191	-0.733398	176	17_29_12_1600000
0.019227	0.816706	0.565691	0.000314	0.017571	-0.006589	-0.257202	-0.971313	-0.733398	177	17_29_12_1680000
0.019013	0.816706	0.565691	-0.009727	0.008158	-0.007531	-0.257080	-0.971313	-0.733398	178	17_29_12_1760000
0.019013	0.816706	0.565691	0.004393	0.008158	0.008786	-0.257080	-0.971313	-0.733398	179	17_29_12_1840000
0.019013	0.816706	0.565691	-0.001569	0.011610	0.010668	-0.257080	-0.971313	-0.733398	180	17_29_12_1920000
0.019013	0.816706	0.565691	0.005962	0.005962	0.011296	-0.257080	-0.971313	-0.733398	181	17_29_12_2000000
0.019013	0.816706	0.565691	0.002824	0.005648	-0.008472	-0.257080	-0.971313	-0.733276	182	17_29_12_2080000
0.019013	0.816706	0.565691	0.005648	0.006589	-0.003452	-0.256958	-0.971313	-0.733276	183	17_29_12_2160000
0.019013	0.816919	0.565691	0.005648	0.007844	0.006275	-0.256958	-0.971436	-0.733276	184	17_29_12_2240000
0.019013	0.816919	0.565477	0.005648	0.001255	0.001569	-0.256958	-0.971436	-0.733154	185	17_29_12_2320000
0.019013	0.816919	0.565477	0.000000	0.005020	0.006903	-0.256958	-0.971436	-0.733154	186	17_29_12_2400000
0.019013	0.816919	0.565477	-0.007844	0.003765	0.009413	-0.257080	-0.971436	-0.733154	187	17_29_12_2480000
0.019013	0.816919	0.565477	0.001883	0.003452	0.016316	-0.257080	-0.971436	-0.733154	188	17_29_12_2560000
0.019227	0.816919	0.565477	-0.003452	0.007844	-0.002196	-0.257202	-0.971436	-0.733154	189	17_29_12_2640000
0.019013	0.816919	0.565691	-0.011923	0.016003	0.010668	-0.257080	-0.971436	-0.733276	190	17_29_12_2720000
0.019013	0.816919	0.565691	-0.000628	0.024161	-0.001255	-0.257080	-0.971313	-0.733276	191	17_29_12_2800000
0.019013	0.816919	0.565691	-0.004079	0.014434	0.010982	-0.256958	-0.971313	-0.733276	192	17_29_12_2880000
0.019013	0.816919	0.565691	0.002510	0.014434	0.016316	-0.256958	-0.971313	-0.733398	193	17_29_12_2960000
0.019013	0.816919	0.565691	-0.005020	0.013492	0.000314	-0.256958	-0.971313	-0.733398	194	17_29_12_3040000
0.019013	0.816919	0.565691	-0.002510	0.015689	-0.002824	-0.256958	-0.971313	-0.733398	195	17_29_12_3120000
0.019013	0.816919	0.565691	-0.002824	0.012237	0.009727	-0.256836	-0.971313	-0.733398	196	17_29_12_3200000
0.019013	0.816919	0.565691	0.001569	0.008786	0.011296	-0.256836	-0.971313	-0.733398	197	17_29_12_3280000
0.019013	0.816919	0.565691	0.001255	0.014434	0.011296	-0.256836	-0.971313	-0.733398	198	17_29_12_3360000
0.019013	0.816919	0.565691	0.012551	0.002824	0.005334	-0.256958	-0.971313	-0.733398	199	17_29_12_3440000
0.019013	0.816919	0.565477	0.006903	0.004393	0.000000	-0.256958	-0.971436	-0.733276	200	17_29_12_3520000
0.019013	0.816919	0.565477	0.008158	0.017258	-0.001255	-0.256836	-0.971436	-0.733276	201	17_29_12_3600000
0.018799	0.816919	0.565477	0.004707	0.019140	0.002510	-0.256714	-0.971558	-0.733154	202	17_29_12_3680000
0.018799	0.816919	0.565477	0.004707	0.019768	0.002196	-0.256714	-0.971558	-0.733154	203	17_29_12_3760000
0.018799	0.817133	0.565264	0.010668	0.011923	0.015375	-0.256714	-0.971558	-0.733154	204	17_29_12_3840000
0.018799	0.817133	0.565264	0.009413	0.006903	0.003765	-0.256714	-0.971680	-0.733032	205	17_29_12_3920000
0.018799	0.817133	0.565264	0.007531	0.003765	0.005962	-0.256714	-0.971680	-0.733032	206	17_29_12_4000000
0.018799	0.817133	0.565264	-0.005648	0.006903	0.009727	-0.256714	-0.971680	-0.733032	207	17_29_12_4080000
0.018799	0.817133	0.565264	0.003138	0.014120	0.005020	-0.256714	-0.971680	-0.733032	208	17_29_12_4160000
0.018799	0.817133	0.565264	-0.009413	0.009099	0.006903	-0.256714	-0.971680	-0.733032	209	17_29_12_4240000
0.018799	0.817133	0.565264	0.001569	0.000314	0.000941	-0.256714	-0.971680	-0.733032	210	17_29_12_4320000
0.018799	0.817133	0.565264	0.004707	-0.001569	0.006589	-0.256714	-0.971680	-0.733032	211	17_29_12_4400000
0.019013	0.817133	0.565050	0.009727	0.000000	0.000628	-0.256836	-0.971680	-0.732910	212	17_29_12_4480000
0.019013	0.817133	0.565050	-0.001255	-0.002196	-0.000314	-0.256836	-0.971802	-0.732910	213	17_29_12_4560000
0.019013	0.817347	0.565050	0.007531	-0.002196	0.005648	-0.256836	-0.971802	-0.732788	214	17_29_12_4640000
0.019013	0.817347	0.565050	0.001569	0.001883	0.002510	-0.256836	-0.971802	-0.732788	215	17_29_12_4720000
0.019013	0.817347	0.565050	-0.007531	0.001569	0.003138	-0.256958	-0.971802	-0.732788	216	17_29_12_4800000
0.019013	0.817347	0.565050	-0.002824	0.001883	0.005962	-0.256958	-0.971802	-0.732788	217	17_29_12_4880000
0.019013	0.817347	0.565050	0.003765	0.007844	0.007531	-0.256958	-0.971802	-0.732788	218	17_29_12_4960000
0.019013	0.817347	0.565050	-0.005020	0.004707	0.009099	-0.256958	-0.971802	-0.732788	219	17_29_12_5040000
0.019227	0.817347	0.565050	0.010668	-0.010668	0.011923	-0.257080	-0.971802	-0.732666	220	17_29_12_5120000
0.019227	0.817347	0.564837	0.026357	0.002196	0.002196	-0.257202	-0.971924	-0.732544	221	17_29_12_5200000
0.019227	0.817560	0.564837	0.007844	0.003452	-0.000314	-0.257202	-0.972046	-0.732422	222	17_29_12_5280000
0.019227	0.817560	0.564623	0.009099	0.005962	0.014747	-0.257202	-0.972046	-0.732300	223	17_29_12_5360000
0.019227	0.817560	0.564623	0.014747	0.014434	0.017258	-0.257324	-0.972168	-0.732300	224	17_29_12_5440000
0.019440	0.817560	0.564623	0.009727	0.014747	0.020082	-0.257324	-0.972168	-0.732178	225	17_29_12_5520000
0.019440	0.817560	0.564409	0.003452	0.014434	0.016316	-0.257446	-0.972168	-0.732056	226	17_29_12_5600000
0.019440	0.817774	0.564409	0.000000	0.008158	0.008158	-0.257446	-0.972168	-0.732056	227	17_29_12_5680000
0.019440	0.817560	0.564409	-0.009099	0.005962	0.015061	-0.257446	-0.972168	-0.732178	228	17_29_12_5760000
0.019440	0.817560	0.564409	-0.000314	0.015061	0.006589	-0.257568	-0.972168	-0.732178	229	17_29_12_5840000
0.019440	0.817560	0.564409	-0.000628	0.013492	0.007531	-0.257446	-0.972168	-0.732178	230	17_29_12_5920000
0.019440	0.817560	0.564409	0.000941	0.008158	0.019454	-0.257568	-0.972168	-0.732178	231	17_29_12_6000000
0.019654	0.817774	0.564409	0.008786	0.013492	0.010041	-0.257568	-0.972168	-0.732178	232	17_29_12_6080000
0.019654	0.817774	0.564409	-0.002510	0.015375	0.015375	-0.257568	-0.972168	-0.732178	233	17_29_12_6160000
0.019654	0.817774	0.564409	0.000628	0.014434	0.006589	-0.257568	-0.972168	-0.732178	234	17_29_12_6240000
0.019654	0.817774	0.564409	0.008786	0.004079	-0.002510	-0.257568	-0.972168	-0.732178	235	17_29_12_6320000
0.019440	0.817774	0.564409	0.005648	0.017258	-0.003138	-0.257446	-0.972168	-0.732056	236	17_29_12_6400000
0.019440	0.817774	0.564196	0.003765	0.011610	0.001883	-0.257446	-0.972290	-0.732056	237	17_29_12_6480000
0.019440	0.817774	0.564196	0.005648	0.022592	0.012551	-0.257324	-0.972290	-0.732056	238	17_29_12_6560000
0.019440	0.817774	0.564196	0.010982	0.013492	-0.004393	-0.257324	-0.972290	-0.731934	239	17_29_12_6640000
0.019227	0.817774	0.564196	-0.006903	0.015375	-0.000314	-0.257202	-0.972412	-0.731934	240	17_29_12_6720000
0.019227	0.817774	0.564196	0.001569	0.005962	0.009727	-0.257202	-0.972412	-0.731934	241	17_29_12_6800000
0.019440	0.817774	0.564196	-0.005648	0.010355	0.013179	-0.257202	-0.972290	-0.731934	242	17_29_12_6880000
0.019440	0.817774	0.564196	-0.005020	0.024474	0.010668	-0.257202	-0.972290	-0.732056	243	17_29_12_6960000
0.019227	0.817774	0.564196	0.014747	0.011296	-0.006589	-0.257202	-0.972290	-0.732056	244	17_29_12_7040000
0.019227	0.817988	0.564196	0.008472	0.018199	0.003452	-0.257080	-0.972412	-0.731934	245	17_29_12_7120000
0.019227	0.817988	0.563982	0.008472	0.028240	0.005648	-0.256958	-0.972534	-0.731934	246	17_29_12_7200000
0.019227	0.817988	0.563982	0.018826	0.022592	0.022592	-0.256958	-0.972534	-0.731812	247	17_29_12_7280000
0.019227	0.818201	0.563768	0.011296	0.014747	0.014747	-0.256958	-0.972656	-0.731689	248	17_29_12_7360000
0.019227	0.818201	0.563768	0.007844	0.007217	0.011923	-0.257080	-0.972656	-0.731689	249	17_29_12_7440000
0.019227	0.818201	0.563768	-0.005334	0.004079	0.002510	-0.257080	-0.972656	-0.731689	250	17_29_12_7520000
0.019227	0.818201	0.563768	0.004707	0.005020	0.005962	-0.257080	-0.972656	-0.731689	251	17_29_12_7600000
0.019227	0.818201	0.563768	-0.000314	0.001883	0.011296	-0.257080	-0.972656	-0.731567	252	17_29_12_7680000
0.019440	0.818201	0.563768	0.001255	-0.000314	0.010041	-0.257202	-0.972656	-0.731567	253	17_29_12_7760000
0.019440	0.818201	0.563768	0.001255	0.012551	0.002510	-0.257202	-0.972656	-0.731567	254	17_29_12_7840000
0.019440	0.818201	0.563768	0.004707	0.008786	0.008158	-0.257202	-0.972656	-0.731567	255	17_29_12_7920000
0.019440	0.818201	0.563768	-0.004079	0.011296	0.006903	-0.257202	-0.972656	-0.731567	256	17_29_12_8000000
0.019440	0.818201	0.563768	-0.005648	0.004079	0.008472	-0.257202	-0.972656	-0.731567	257	17_29_12_8080000
0.019440	0.818201	0.563768	0.010668	0.007217	0.014120	-0.257324	-0.972656	-0.731567	258	17_29_12_8160000
0.019440	0.818201	0.563555	-0.001569	0.008158	0.018513	-0.257324	-0.972656	-0.731567	259	17_29_12_8240000
0.019654	0.818201	0.563555	0.001569	0.008158	0.012237	-0.257446	-0.972656	-0.731567	260	17_29_12_8320000
0.019654	0.818201	0.563555	0.014120	0.018199	0.009413	-0.257446	-0.972656	-0.731445	261	17_29_12_8400000
0.019654	0.818415	0.563555	0.006589	0.011296	0.010982	-0.257446	-0.972778	-0.731445	262	17_29_12_8480000
0.019654	0.818415	0.563341	0.026671	0.012237	0.000314	-0.257446	-0.972900	-0.731323	263	17_29_12_8560000
0.019654	0.818415	0.563341	0.004707	0.008472	0.002510	-0.257446	-0.972900	-0.731201	264	17_29_12_8640000
0.019654	0.818415	0.563341	0.003765	0.004393	-0.003138	-0.257324	-0.973022	-0.731079	265	17_29_12_8720000
0.019440	0.818628	0.563128	0.015061	0.014747	-0.000628	-0.257324	-0.973022	-0.731079	266	17_29_12_8800000
0.019440	0.818628	0.563128	0.003138	0.010982	0.003138	-0.257202	-0.973145	-0.730957	267	17_29_12_8880000
0.019440	0.818628	0.563128	0.007531	0.009413	0.005020	-0.257202	-0.973145	-0.730957	268	17_29_12_8960000
0.019440	0.818628	0.563128	0.000628	0.014747	-0.000941	-0.257202	-0.973145	-0.730957	269	17_29_12_9040000
0.019440	0.818628	0.563128	0.005334	0.009727	0.004079	-0.257080	-0.973267	-0.730957	270	17_29_12_9120000
0.019440	0.818628	0.562914	0.003765	0.004393	0.014434	-0.257202	-0.973267	-0.730835	271	17_29_12_9200000
0.019440	0.818628	0.562914	0.005962	0.003452	0.005334	-0.257202	-0.973267	-0.730835	272	17_29_12_9280000
0.019440	0.818842	0.562914	0.017571	-0.000314	0.013806	-0.257324	-0.973267	-0.730713	273	17_29_12_9360000
0.019654	0.818842	0.562700	0.011923	0.011923	0.011296	-0.257324	-0.973389	-0.730591	274	17_29_12_9440000
0.019440	0.818842	0.562700	-0.000314	0.021337	0.001255	-0.257324	-0.973389	-0.730591	275	17_29_12_9520000
0.019440	0.818842	0.562700	0.010668	0.010668	0.003765	-0.257202	-0.973511	-0.730591	276	17_29_12_9600000
0.019440	0.818842	0.562700	-0.004079	0.016003	0.009727	-0.257202	-0.973511	-0.730591	277	17_29_12_9680000
0.019440	0.818842	0.562700	-0.004707	0.017571	0.005648	-0.257202	-0.973511	-0.730591	278	17_29_12_9760000
0.019440	0.818842	0.562700	-0.003138	0.010355	0.001569	-0.257080	-0.973389	-0.730591	279	17_29_12_9840000
0.019440	0.818842	0.562700	0.001569	0.004079	0.017258	-0.257202	-0.973389	-0.730591	280	17_29_12_9920000
0.019654	0.818842	0.562700	0.000941	0.010668	0.021337	-0.257324	-0.973389	-0.730591	281	17_29_13_0000000
0.019654	0.818842	0.562700	0.006903	-0.003138	0.016630	-0.257446	-0.973389	-0.730591	282	17_29_13_0080000
0.019654	0.819056	0.562700	0.009413	0.008472	0.018826	-0.257568	-0.973389	-0.730469	283	17_29_13_0160000
0.019868	0.819056	0.562487	0.005020	0.008158	0.011296	-0.257568	-0.973389	-0.730469	284	17_29_13_0240000
0.019868	0.819056	0.562487	-0.003765	0.010041	0.016316	-0.257690	-0.973389	-0.730469	285	17_29_13_0320000
0.019868	0.819056	0.562487	-0.004707	0.014434	0.009099	-0.257690	-0.973389	-0.730469	286	17_29_13_0400000
0.019868	0.819056	0.562700	-0.003138	0.002510	0.010668	-0.257690	-0.973389	-0.730469	287	17_29_13_0480000
0.019868	0.819056	0.562487	0.009099	0.015061	-0.015375	-0.257690	-0.973389	-0.730469	288	17_29_13_0560000
0.019868	0.819056	0.562487	-0.000314	0.014434	0.006903	-0.257568	-0.973389	-0.730469	289	17_29_13_0640000
0.019868	0.819056	0.562487	0.005648	-0.009727	0.010041	-0.257568	-0.973511	-0.730469	290	17_29_13_0720000
0.019868	0.819056	0.562487	-0.006275	0.004079	0.005334	-0.257690	-0.973389	-0.730347	291	17_29_13_0800000
0.019868	0.819056	0.562487	0.006903	0.002510	0.005648	-0.257690	-0.973511	-0.730347	292	17_29_13_0880000
0.019868	0.819056	0.562487	0.010982	0.003138	-0.003765	-0.257690	-0.973511	-0.730347	293	17_29_13_0960000
0.019868	0.819269	0.562273	0.007531	-0.003138	0.008786	-0.257690	-0.973511	-0.730225	294	17_29_13_1040000
0.019868	0.819269	0.562273	0.005648	0.005334	0.001255	-0.257813	-0.973633	-0.730103	295	17_29_13_1120000
0.019868	0.819269	0.562273	0.004707	0.000314	0.005962	-0.257813	-0.973633	-0.730103	296	17_29_13_1200000
0.020081	0.819269	0.562273	0.005020	0.000314	0.005020	-0.257813	-0.973633	-0.730103	297	17_29_13_1280000
0.020081	0.819269	0.562273	-0.001883	0.001883	0.009099	-0.257935	-0.973633	-0.729980	298	17_29_13_1360000
0.020081	0.819269	0.562273	-0.003452	0.001883	0.004079	-0.257935	-0.973633	-0.729980	299	17_29_13_1440000
0.020081	0.819269	0.562273	-0.000628	0.015061	0.009727	-0.257935	-0.973633	-0.729980	300	17_29_13_1520000
0.020081	0.819269	0.562273	0.000000	0.023533	0.005962	-0.257935	-0.973633	-0.730103	301	17_29_13_1600000
0.020081	0.819269	0.562273	-0.005648	0.011923	0.000628	-0.257813	-0.973633	-0.730103	302	17_29_13_1680000
0.020081	0.819269	0.562273	-0.018826	0.010982	-0.000314	-0.257813	-0.973633	-0.730225	303	17_29_13_1760000
0.020081	0.819056	0.562273	-0.002196	0.002196	0.012237	-0.257813	-0.973511	-0.730225	304	17_29_13_1840000
0.020081	0.819056	0.562273	-0.000941	0.010982	0.006903	-0.257813	-0.973511	-0.730225	305	17_29_13_1920000
0.020081	0.819056	0.562487	-0.000628	0.011610	0.000628	-0.257813	-0.973511	-0.730225	306	17_29_13_2000000
0.020081	0.819269	0.562273	0.013179	0.005962	0.007531	-0.257813	-0.973511	-0.730225	307	17_29_13_2080000
0.020081	0.819269	0.562273	0.010668	0.014434	0.011296	-0.257813	-0.973633	-0.730103	308	17_29_13_2160000
0.020081	0.819269	0.562273	0.008786	0.009099	0.009727	-0.257813	-0.973633	-0.730103	309	17_29_13_2240000
0.020081	0.819269	0.562059	0.000000	0.008472	0.008786	-0.257813	-0.973633	-0.729980	310	17_29_13_2320000
0.020081	0.819269	0.562059	-0.007844	0.011923	0.007531	-0.257813	-0.973633	-0.730103	311	17_29_13_2400000
0.020081	0.819269	0.562273	-0.002510	0.013179	0.005020	-0.257813	-0.973633	-0.730103	312	17_29_13_2480000
0.020081	0.819269	0.562273	0.001569	0.006275	0.004707	-0.257813	-0.973633	-0.730103	313	17_29_13_2560000
0.020081	0.819269	0.562273	-0.000314	0.022906	-0.000314	-0.257813	-0.973633	-0.730103	314	17_29_13_2640000
0.019868	0.819269	0.562273	-0.002510	0.021964	0.007844	-0.257690	-0.973633	-0.730103	315	17_29_13_2720000
0.019868	0.819269	0.562273	0.002824	0.024474	0.020082	-0.257690	-0.973633	-0.730225	316	17_29_13_2800000
0.019868	0.819269	0.562059	0.010982	0.015375	0.010982	-0.257690	-0.973633	-0.730103	317	17_29_13_2880000
0.020081	0.819269	0.562059	0.004079	0.010668	0.017258	-0.257690	-0.973633	-0.730103	318	17_29_13_2960000
0.020081	0.819483	0.562059	0.005334	0.008786	0.020709	-0.257813	-0.973633	-0.730103	319	17_29_13_3040000
0.020081	0.819483	0.562059	0.006903	0.002510	0.009413	-0.257935	-0.973633	-0.729980	320	17_29_13_3120000
0.020295	0.819483	0.562059	0.002196	0.008786	0.008158	-0.257935	-0.973755	-0.729980	321	17_29_13_3200000
0.020295	0.819483	0.561846	0.006589	0.018513	0.008786	-0.257935	-0.973755	-0.729980	322	17_29_13_3280000
0.020295	0.819483	0.561846	0.010041	0.010668	0.012865	-0.257935	-0.973755	-0.729858	323	17_29_13_3360000
0.020295	0.819483	0.561846	0.006275	0.010982	0.002824	-0.257935	-0.973755	-0.729858	324	17_29_13_3440000
0.020295	0.819483	0.561846	0.002510	0.004707	0.009099	-0.257935	-0.973877	-0.729858	325	17_29_13_3520000
0.020295	0.819483	0.561632	0.004393	0.002824	0.016944	-0.258057	-0.973877	-0.729736	326	17_29_13_3600000
0.020295	0.819697	0.561632	0.006275	0.008158	0.002196	-0.258057	-0.973877	-0.729736	327	17_29_13_3680000
0.020295	0.819697	0.561632	-0.003765	0.018513	0.006589	-0.258057	-0.973877	-0.729736	328	17_29_13_3760000
0.020295	0.819483	0.561632	-0.009727	0.010355	0.007217	-0.258057	-0.973877	-0.729736	329	17_29_13_3840000
0.020295	0.819483	0.561846	-0.003452	-0.001883	-0.006275	-0.257935	-0.973755	-0.729858	330	17_29_13_3920000
0.020295	0.819483	0.561846	-0.003138	0.005334	-0.009099	-0.257935	-0.973755	-0.729858	331	17_29_13_4000000
0.020081	0.819483	0.561846	0.000628	0.011296	0.006275	-0.257813	-0.973877	-0.729858	332	17_29_13_4080000
0.020081	0.819483	0.561846	-0.000941	0.010355	0.006589	-0.257813	-0.973877	-0.729858	333	17_29_13_4160000
0.020081	0.819483	0.561846	-0.008158	0.008472	0.000314	-0.257813	-0.973755	-0.729858	334	17_29_13_4240000
0.020081	0.819483	0.561846	0.008786	0.010355	-0.000628	-0.257813	-0.973877	-0.729858	335	17_29_13_4320000
0.020081	0.819697	0.561632	0.010982	0.018513	0.012237	-0.257813	-0.973877	-0.729858	336	17_29_13_4400000
0.020081	0.819697	0.561632	0.013179	0.004393	0.000314	-0.257690	-0.973999	-0.729736	337	17_29_13_4480000
0.020081	0.819697	0.561632	0.006903	0.006903	-0.000941	-0.257690	-0.973999	-0.729614	338	17_29_13_4560000
0.020081	0.819697	0.561418	-0.001569	0.004079	0.009727	-0.257690	-0.973999	-0.729614	339	17_29_13_4640000
0.020081	0.819697	0.561418	-0.005648	0.001255	0.008786	-0.257813	-0.973999	-0.729614	340	17_29_13_4720000
0.020295	0.819697	0.561632	-0.004707	-0.003765	0.011296	-0.257935	-0.973999	-0.729614	341	17_29_13_4800000
0.020295	0.819697	0.561632	-0.000628	0.007531	0.003765	-0.257935	-0.973999	-0.729614	342	17_29_13_4880000
0.020295	0.819697	0.561418	0.015061	0.004393	0.006275	-0.257935	-0.973999	-0.729614	343	17_29_13_4960000
0.020295	0.819697	0.561418	0.007531	0.006589	0.007844	-0.257935	-0.974121	-0.729492	344	17_29_13_5040000
0.020295	0.819697	0.561418	0.001569	0.006589	0.007531	-0.257935	-0.974121	-0.729492	345	17_29_13_5120000
0.020295	0.819910	0.561418	0.004393	0.005334	0.003452	-0.258057	-0.974121	-0.729492	346	17_29_13_5200000
0.020295	0.819910	0.561418	-0.002510	0.003452	0.005648	-0.258057	-0.974121	-0.729370	347	17_29_13_5280000
0.020295	0.819697	0.561418	-0.007217	-0.002196	0.003452	-0.258057	-0.974121	-0.729492	348	17_29_13_5360000
0.020295	0.819697	0.561418	-0.005334	0.003138	0.006275	-0.258057	-0.973999	-0.729492	349	17_29_13_5440000
0.020295	0.819697	0.561418	0.003138	0.015061	-0.002510	-0.258057	-0.973999	-0.729492	350	17_29_13_5520000
0.020295	0.819697	0.561418	-0.000628	0.013492	0.006589	-0.258057	-0.974121	-0.729492	351	17_29_13_5600000
0.020295	0.819910	0.561418	0.005648	-0.001255	0.002510	-0.258057	-0.974121	-0.729492	352	17_29_13_5680000
0.020295	0.819910	0.561418	0.008472	0.006903	0.008158	-0.258057	-0.974121	-0.729370	353	17_29_13_5760000
0.020295	0.819910	0.561205	0.008158	0.009727	-0.000628	-0.258057	-0.974243	-0.729370	354	17_29_13_5840000
0.020295	0.819910	0.561205	0.007217	0.013806	-0.002510	-0.257935	-0.974243	-0.729248	355	17_29_13_5920000
0.020295	0.819910	0.561205	-0.003138	0.000628	0.000314	-0.257935	-0.974243	-0.729248	356	17_29_13_6000000
0.020295	0.819910	0.561205	-0.008472	0.003765	0.005648	-0.257935	-0.974243	-0.729248	357	17_29_13_6080000
0.020295	0.819910	0.561205	-0.008786	0.008158	0.004079	-0.257935	-0.974243	-0.729370	358	17_29_13_6160000
0.020295	0.819910	0.561205	-0.000941	0.002510	0.010041	-0.257935	-0.974121	-0.729370	359	17_29_13_6240000
0.020295	0.819910	0.561418	-0.006275	0.003765	0.010668	-0.258057	-0.974121	-0.729370	360	17_29_13_6320000
0.020508	0.819910	0.561418	-0.003765	0.003765	0.009727	-0.258057	-0.974121	-0.729370	361	17_29_13_6400000
0.020508	0.819910	0.561418	-0.003138	0.004079	0.012865	-0.258179	-0.974121	-0.729492	362	17_29_13_6480000
0.020508	0.819910	0.561418	0.000941	0.008158	0.007844	-0.258179	-0.974121	-0.729492	363	17_29_13_6560000
0.020508	0.819910	0.561418	0.001569	0.004393	0.002510	-0.258179	-0.974121	-0.729492	364	17_29_13_6640000
0.020508	0.819910	0.561418	0.004393	0.001883	0.003452	-0.258179	-0.974121	-0.729370	365	17_29_13_6720000
0.020508	0.819910	0.561418	-0.011923	0.009099	0.004393	-0.258179	-0.974121	-0.729370	366	17_29_13_6800000
0.020508	0.819910	0.561418	0.000628	0.013179	-0.000314	-0.258179	-0.973999	-0.729492	367	17_29_13_6880000
0.020295	0.819910	0.561418	-0.003452	0.021337	-0.001883	-0.258057	-0.974121	-0.729492	368	17_29_13_6960000
0.020295	0.819697	0.561418	-0.011296	0.017571	-0.000628	-0.257935	-0.973999	-0.729614	369	17_29_13_7040000
0.020295	0.819697	0.561418	-0.011296	0.012551	-0.004707	-0.257813	-0.973999	-0.729736	370	17_29_13_7120000
0.020081	0.819697	0.561632	-0.004079	0.010355	-0.002510	-0.257813	-0.973999	-0.729736	371	17_29_13_7200000
0.020081	0.819697	0.561418	0.008472	0.007217	0.006903	-0.257813	-0.973999	-0.729736	372	17_29_13_7280000
0.020081	0.819697	0.561418	0.002196	0.004393	0.005962	-0.257813	-0.973999	-0.729736	373	17_29_13_7360000
0.020081	0.819697	0.561418	0.005648	0.009099	0.003138	-0.257813	-0.973999	-0.729614	374	17_29_13_7440000
0.020081	0.819910	0.561418	0.020395	-0.000314	-0.003138	-0.257813	-0.974121	-0.729492	375	17_29_13_7520000
0.020081	0.819910	0.561205	0.014120	0.008786	0.003452	-0.257690	-0.974243	-0.729370	376	17_29_13_7600000
0.020081	0.819910	0.561205	0.001255	0.018199	0.009099	-0.257690	-0.974243	-0.729370	377	17_29_13_7680000
0.020081	0.820124	0.561205	0.014434	0.006589	0.003138	-0.257690	-0.974365	-0.729248	378	17_29_13_7760000
0.020081	0.820124	0.560991	0.000628	-0.000941	0.005648	-0.257690	-0.974365	-0.729248	379	17_29_13_7840000
0.020081	0.820124	0.560991	0.010982	0.004707	0.007844	-0.257813	-0.974365	-0.729248	380	17_29_13_7920000
0.020081	0.820124	0.560991	0.003452	0.016630	0.006903	-0.257813	-0.974487	-0.729126	381	17_29_13_8000000
0.020081	0.820124	0.560991	-0.007531	0.004393	0.003452	-0.257690	-0.974487	-0.729126	382	17_29_13_8080000
0.020081	0.820124	0.560991	-0.004707	0.005334	0.003452	-0.257690	-0.974365	-0.729248	383	17_29_13_8160000
0.020081	0.820124	0.560991	0.001255	-0.003138	0.007844	-0.257813	-0.974365	-0.729248	384	17_29_13_8240000
0.020295	0.820124	0.560991	0.006589	0.011610	0.006903	-0.257813	-0.974365	-0.729126	385	17_29_13_8320000
0.020081	0.820124	0.560991	0.005648	0.012865	-0.000941	-0.257813	-0.974487	-0.729126	386	17_29_13_8400000
0.020081	0.820124	0.560991	0.004079	0.007531	0.000314	-0.257690	-0.974487	-0.729126	387	17_29_13_8480000
0.020081	0.820124	0.560991	0.003765	0.011296	0.002510	-0.257690	-0.974487	-0.729004	388	17_29_13_8560000
0.020081	0.820124	0.560991	-0.004707	0.012551	0.001883	-0.257690	-0.974487	-0.729004	389	17_29_13_8640000
0.020081	0.820124	0.560991	-0.005020	0.011610	0.014747	-0.257690	-0.974487	-0.729126	390	17_29_13_8720000
0.020081	0.820124	0.560991	-0.005962	0.009727	0.018826	-0.257690	-0.974487	-0.729126	391	17_29_13_8800000
0.020295	0.820124	0.560991	0.000628	0.005962	0.008786	-0.257813	-0.974487	-0.729126	392	17_29_13_8880000
0.020295	0.820124	0.560991	0.003765	0.003452	0.000941	-0.257813	-0.974487	-0.729126	393	17_29_13_8960000
0.020295	0.820124	0.560991	-0.001569	0.005020	-0.002824	-0.257813	-0.974487	-0.729126	394	17_29_13_9040000
0.020081	0.820124	0.560991	-0.008472	0.011923	0.003452	-0.257690	-0.974487	-0.729126	395	17_29_13_9120000
0.020295	0.820124	0.560991	-0.002510	0.003765	0.017885	-0.257813	-0.974365	-0.729248	396	17_29_13_9200000
0.020295	0.820124	0.560991	0.008158	-0.006275	0.006903	-0.257935	-0.974365	-0.729126	397	17_29_13_9280000
0.020295	0.820124	0.560991	0.001255	-0.004707	-0.000628	-0.257935	-0.974487	-0.729126	398	17_29_13_9360000
0.020295	0.820124	0.560991	-0.006589	0.004393	0.003765	-0.257935	-0.974487	-0.729126	399	17_29_13_9440000
0.020295	0.820124	0.560991	-0.008158	0.001883	0.010668	-0.258057	-0.974365	-0.729126	400	17_29_13_9520000
0.020508	0.820124	0.560991	-0.001883	0.006903	0.007217	-0.258057	-0.974365	-0.729126	401	17_29_13_9600000
0.020508	0.820124	0.560991	0.007217	-0.000941	0.004079	-0.258057	-0.974365	-0.729126	402	17_29_13_9680000
0.020508	0.820124	0.560991	-0.002824	0.000628	0.008158	-0.258179	-0.974365	-0.729126	403	17_29_13_9760000
0.020508	0.820124	0.560991	-0.000628	0.004079	0.006589	-0.258179	-0.974365	-0.729126	404	17_29_13_9840000
0.020508	0.820124	0.560991	-0.000314	0.003138	0.004707	-0.258179	-0.974365	-0.729126	405	17_29_13_9920000
0.020508	0.820124	0.560991	-0.003452	0.005020	0.007844	-0.258179	-0.974365	-0.729126	406	17_29_14_0000000
0.020508	0.820124	0.560991	0.003138	0.006903	0.014434	-0.258301	-0.974365	-0.729126	407	17_29_14_0080000
0.020508	0.820124	0.560991	-0.005334	0.032005	-0.002824	-0.258179	-0.974365	-0.729126	408	17_29_14_0160000
0.020295	0.820124	0.560991	-0.003452	0.030122	-0.001883	-0.258057	-0.974365	-0.729248	409	17_29_14_0240000
0.020295	0.820124	0.560991	-0.004707	0.012237	0.002824	-0.257935	-0.974365	-0.729248	410	17_29_14_0320000
0.020295	0.820124	0.560991	-0.003138	0.014434	0.009099	-0.257935	-0.974365	-0.729370	411	17_29_14_0400000
0.020295	0.820124	0.560991	-0.002824	0.015689	0.010355	-0.257935	-0.974243	-0.729370	412	17_29_14_0480000
0.020295	0.820124	0.560991	-0.003138	0.003765	0.006275	-0.257935	-0.974243	-0.729370	413	17_29_14_0560000
0.020295	0.820124	0.560991	0.009099	0.011923	0.005962	-0.257935	-0.974243	-0.729370	414	17_29_14_0640000
0.020295	0.820124	0.560991	0.001569	0.009099	0.011296	-0.257935	-0.974365	-0.729370	415	17_29_14_0720000
0.020295	0.820124	0.560991	0.001255	0.013492	-0.001569	-0.257935	-0.974365	-0.729370	416	17_29_14_0800000
0.020295	0.820124	0.560991	-0.002510	0.010355	0.005648	-0.257813	-0.974365	-0.729370	417	17_29_14_0880000
0.020295	0.820124	0.560991	0.006903	0.005962	0.017885	-0.257935	-0.974365	-0.729370	418	17_29_14_0960000
0.020295	0.820124	0.560991	0.013492	0.010982	0.010041	-0.257935	-0.974365	-0.729248	419	17_29_14_1040000
0.020295	0.820338	0.560778	0.003765	0.019768	0.000314	-0.257935	-0.974487	-0.729126	420	17_29_14_1120000
0.020295	0.820338	0.560778	0.007217	0.006275	-0.002824	-0.257813	-0.974487	-0.729126	421	17_29_14_1200000
0.020295	0.820338	0.560778	0.004079	0.003452	0.002196	-0.257813	-0.974487	-0.729126	422	17_29_14_1280000
0.020295	0.820338	0.560778	-0.002824	0.006589	0.005020	-0.257813	-0.974487	-0.729126	423	17_29_14_1360000
0.020295	0.820338	0.560778	-0.005020	0.001883	0.010668	-0.257813	-0.974487	-0.729126	424	17_29_14_1440000
0.020295	0.820338	0.560778	-0.005648	0.005962	0.014120	-0.257935	-0.974487	-0.729126	425	17_29_14_1520000
0.020295	0.820338	0.560778	-0.007531	0.012551	0.002196	-0.257935	-0.974487	-0.729126	426	17_29_14_1600000
0.020295	0.820124	0.560991	-0.004079	0.020395	0.010041	-0.257935	-0.974365	-0.729248	427	17_29_14_1680000
0.020295	0.820124	0.560991	-0.000628	0.009099	0.002510	-0.257813	-0.974365	-0.729248	428	17_29_14_1760000
0.020295	0.820338	0.560778	0.005020	0.012551	0.005334	-0.257813	-0.974365	-0.729248	429	17_29_14_1840000
0.020295	0.820338	0.560778	0.008786	0.014747	0.010668	-0.257813	-0.974487	-0.729248	430	17_29_14_1920000
0.020295	0.820338	0.560778	-0.000314	0.006903	0.006903	-0.257813	-0.974487	-0.729126	431	17_29_14_2000000
0.020295	0.820338	0.560778	-0.002824	0.006589	0.005020	-0.257813	-0.974487	-0.729248	432	17_29_14_2080000
0.020295	0.820338	0.560778	0.004393	0.006589	0.006903	-0.257813	-0.974487	-0.729126	433	17_29_14_2160000
0.020295	0.820338	0.560778	0.002824	0.020709	-0.001883	-0.257813	-0.974487	-0.729126	434	17_29_14_2240000
0.020295	0.820338	0.560778	0.005334	-0.005334	0.005648	-0.257813	-0.974487	-0.729126	435	17_29_14_2320000
0.020295	0.820338	0.560778	-0.005648	0.000000	0.011296	-0.257813	-0.974487	-0.729126	436	17_29_14_2400000
0.020508	0.820338	0.560778	-0.005962	-0.000941	0.011296	-0.257935	-0.974487	-0.729126	437	17_29_14_2480000
0.020508	0.820338	0.560778	-0.007531	0.001255	0.005962	-0.258057	-0.974487	-0.729126	438	17_29_14_2560000
0.020508	0.820338	0.560778	-0.007844	0.006589	0.000941	-0.258057	-0.974365	-0.729248	439	17_29_14_2640000
0.020508	0.820338	0.560778	0.004393	0.005334	-0.000628	-0.258057	-0.974365	-0.729248	440	17_29_14_2720000
0.020508	0.820338	0.560778	-0.003452	0.007531	0.001883	-0.257935	-0.974365	-0.729248	441	17_29_14_2800000
0.020295	0.820338	0.560778	0.004079	0.011923	0.003138	-0.257935	-0.974365	-0.729248	442	17_29_14_2880000
0.020508	0.820338	0.560778	-0.005334	0.004707	0.015061	-0.257935	-0.974365	-0.729248	443	17_29_14_2960000
0.020508	0.820338	0.560778	0.002196	0.000628	0.009413	-0.258057	-0.974365	-0.729248	444	17_29_14_3040000
0.020508	0.820338	0.560778	0.001255	-0.008786	0.008158	-0.258179	-0.974365	-0.729126	445	17_29_14_3120000
0.020508	0.820338	0.560778	0.004393	0.007531	0.002510	-0.258179	-0.974365	-0.729126	446	17_29_14_3200000
0.020508	0.820338	0.560778	-0.013806	0.013179	0.013806	-0.258179	-0.974365	-0.729126	447	17_29_14_3280000
0.020722	0.820124	0.560991	-0.014120	0.003452	0.007217	-0.258301	-0.974243	-0.729248	448	17_29_14_3360000
0.020722	0.820124	0.560991	-0.003138	0.005962	0.013179	-0.258301	-0.974243	-0.729370	449	17_29_14_3440000
0.020722	0.820124	0.560991	-0.000941	0.005648	0.012237	-0.258423	-0.974243	-0.729370	450	17_29_14_3520000
0.020722	0.820124	0.560991	0.004079	0.005020	0.004707	-0.258423	-0.974243	-0.729370	451	17_29_14_3600000
0.020722	0.820124	0.560991	0.001883	0.001255	-0.000941	-0.258423	-0.974243	-0.729248	452	17_29_14_3680000
0.020722	0.820124	0.560991	0.000314	0.003765	-0.004393	-0.258423	-0.974243	-0.729248	453	17_29_14_3760000
0.020722	0.820124	0.560778	0.000628	0.000941	0.017885	-0.258423	-0.974243	-0.729248	454	17_29_14_3840000
0.020936	0.820338	0.560778	0.006589	0.016630	0.017258	-0.258545	-0.974243	-0.729248	455	17_29_14_3920000
0.020936	0.820338	0.560778	0.007217	0.010668	0.005962	-0.258545	-0.974243	-0.729248	456	17_29_14_4000000
0.020936	0.820338	0.560778	-0.000941	-0.000314	0.014747	-0.258545	-0.974365	-0.729126	457	17_29_14_4080000
0.020936	0.820338	0.560778	-0.005020	0.011923	0.009727	-0.258667	-0.974243	-0.729126	458	17_29_14_4160000
0.020936	0.820338	0.560778	0.014120	0.008158	0.012865	-0.258667	-0.974243	-0.729126	459	17_29_14_4240000
0.021149	0.820338	0.560564	0.014120	-0.004079	0.016630	-0.258789	-0.974365	-0.729004	460	17_29_14_4320000
0.021149	0.820338	0.560564	0.008786	0.003452	0.002510	-0.258789	-0.974365	-0.728882	461	17_29_14_4400000
0.021149	0.820338	0.560564	0.001883	-0.000941	0.010041	-0.258911	-0.974487	-0.728882	462	17_29_14_4480000
0.021149	0.820338	0.560564	-0.004079	0.009727	0.006275	-0.258911	-0.974487	-0.728882	463	17_29_14_4560000
0.021149	0.820338	0.560564	0.001569	0.010668	0.008158	-0.258911	-0.974487	-0.728882	464	17_29_14_4640000
0.021363	0.820551	0.560564	0.005648	0.008472	0.016316	-0.259033	-0.974487	-0.728882	465	17_29_14_4720000
0.021363	0.820551	0.560564	-0.003765	-0.003765	0.002196	-0.259033	-0.974487	-0.728882	466	17_29_14_4800000
0.021363	0.820551	0.560564	0.004707	0.008786	0.008472	-0.259033	-0.974487	-0.728760	467	17_29_14_4880000
0.021363	0.820551	0.560350	0.002824	0.009099	0.021337	-0.259155	-0.974487	-0.728760	468	17_29_14_4960000
0.021577	0.820551	0.560350	0.006903	0.003138	0.012865	-0.259277	-0.974487	-0.728760	469	17_29_14_5040000
0.021577	0.820551	0.560350	0.001569	0.010355	-0.004079	-0.259277	-0.974487	-0.728760	470	17_29_14_5120000
0.021363	0.820551	0.560350	0.003452	0.007531	0.000314	-0.259155	-0.974487	-0.728638	471	17_29_14_5200000
0.021363	0.820551	0.560350	0.004707	-0.000628	0.000941	-0.259155	-0.974609	-0.728638	472	17_29_14_5280000
0.021363	0.820551	0.560350	-0.003138	0.010355	0.006275	-0.259155	-0.974609	-0.728638	473	17_29_14_5360000
0.021363	0.820551	0.560350	-0.000941	0.004079	0.014434	-0.259155	-0.974487	-0.728638	474	17_29_14_5440000
0.021577	0.820551	0.560350	-0.002824	-0.003765	0.004393	-0.259277	-0.974487	-0.728638	475	17_29_14_5520000
0.021577	0.820551	0.560350	-0.000941	0.002824	0.000314	-0.259277	-0.974487	-0.728638	476	17_29_14_5600000
0.021577	0.820551	0.560350	-0.014120	0.003138	0.008472	-0.259277	-0.974487	-0.728638	477	17_29_14_5680000
0.021577	0.820551	0.560350	0.002196	0.009413	0.008786	-0.259399	-0.974487	-0.728760	478	17_29_14_5760000
0.021577	0.820551	0.560350	0.003138	-0.000628	0.003138	-0.259399	-0.974487	-0.728638	479	17_29_14_5840000
0.021577	0.820551	0.560350	-0.006589	0.007531	0.008786	-0.259399	-0.974487	-0.728760	480	17_29_14_5920000
0.021577	0.820551	0.560350	-0.005334	0.007217	-0.002196	-0.259399	-0.974365	-0.728760	481	17_29_14_6000000
0.021577	0.820551	0.560564	0.000000	0.013806	-0.003452	-0.259277	-0.974365	-0.728760	482	17_29_14_6080000
0.021577	0.820551	0.560564	-0.003452	0.004707	0.005648	-0.259277	-0.974365	-0.728760	483	17_29_14_6160000
0.021577	0.820551	0.560564	-0.000941	0.008158	0.003765	-0.259277	-0.974365	-0.728760	484	17_29_14_6240000
0.021577	0.820551	0.560564	0.000000	0.007217	0.000314	-0.259277	-0.974365	-0.728760	485	17_29_14_6320000
0.021577	0.820551	0.560350	0.002196	0.016630	0.009099	-0.259277	-0.974487	-0.728760	486	17_29_14_6400000
0.021577	0.820551	0.560350	0.008786	0.004393	0.003765	-0.259155	-0.974487	-0.728760	487	17_29_14_6480000
0.021577	0.820551	0.560350	0.003138	0.012551	0.007217	-0.259155	-0.974487	-0.728760	488	17_29_14_6560000
0.021577	0.820551	0.560350	-0.000314	0.009727	0.015375	-0.259277	-0.974487	-0.728760	489	17_29_14_6640000
0.021577	0.820551	0.560350	-0.005020	0.007531	0.010355	-0.259277	-0.974487	-0.728760	490	17_29_14_6720000
0.021577	0.820551	0.560350	0.008472	0.015689	-0.005962	-0.259277	-0.974487	-0.728760	491	17_29_14_6800000
0.021577	0.820551	0.560350	0.003765	0.011296	0.009727	-0.259155	-0.974487	-0.728638	492	17_29_14_6880000
0.021577	0.820551	0.560350	0.006903	0.006589	0.016944	-0.259277	-0.974487	-0.728638	493	17_29_14_6960000
0.021577	0.820551	0.560137	0.001569	0.015061	0.000941	-0.259277	-0.974609	-0.728638	494	17_29_14_7040000
0.021577	0.820551	0.560137	0.011923	0.023533	0.002196	-0.259155	-0.974609	-0.728638	495	17_29_14_7120000
0.021363	0.820765	0.560137	0.002510	0.021337	0.008158	-0.259033	-0.974609	-0.728516	496	17_29_14_7200000
0.021363	0.820765	0.560137	0.005020	0.012237	0.009413	-0.259033	-0.974609	-0.728516	497	17_29_14_7280000
0.021363	0.820765	0.560137	0.003138	0.001255	0.011610	-0.259033	-0.974731	-0.728516	498	17_29_14_7360000
0.021577	0.820765	0.560137	0.005020	0.003452	0.010355	-0.259155	-0.974731	-0.728516	499	17_29_14_7440000
0.021577	0.820765	0.559923	0.005648	0.003765	0.006903	-0.259155	-0.974731	-0.728394	500	17_29_14_7520000
0.021577	0.820765	0.559923	0.009727	0.004393	0.008158	-0.259277	-0.974731	-0.728394	501	17_29_14_7600000
0.021577	0.820765	0.559923	0.010041	0.003765	0.010355	-0.259277	-0.974854	-0.728271	502	17_29_14_7680000
0.021577	0.820978	0.559923	0.007217	0.008786	0.007531	-0.259277	-0.974854	-0.728149	503	17_29_14_7760000
0.021577	0.820978	0.559709	0.008472	0.011296	0.012865	-0.259399	-0.974854	-0.728149	504	17_29_14_7840000
0.021790	0.820978	0.559709	0.001569	0.002196	0.011296	-0.259399	-0.974854	-0.728149	505	17_29_14_7920000
0.021790	0.820978	0.559709	0.017571	0.000314	0.006275	-0.259521	-0.974976	-0.728027	506	17_29_14_8000000
0.021790	0.820978	0.559496	0.007531	0.009413	0.007844	-0.259521	-0.974976	-0.727905	507	17_29_14_8080000
0.021790	0.821192	0.559496	0.008158	0.012551	-0.000314	-0.259521	-0.975098	-0.727905	508	17_29_14_8160000
0.021790	0.821192	0.559496	0.014747	0.006903	-0.007531	-0.259399	-0.975220	-0.727783	509	17_29_14_8240000
0.021577	0.821192	0.559496	-0.003138	0.004393	0.003138	-0.259399	-0.975220	-0.727783	510	17_29_14_8320000
0.021577	0.821192	0.559496	-0.001569	0.011610	-0.000628	-0.259277	-0.975220	-0.727783	511	17_29_14_8400000
0.021577	0.821192	0.559496	0.000000	0.007217	0.000000	-0.259277	-0.975220	-0.727783	512	17_29_14_8480000
0.021577	0.821192	0.559496	-0.003138	0.001883	0.012865	-0.259277	-0.975220	-0.727783	513	17_29_14_8560000
0.021577	0.821192	0.559496	0.000941	0.010982	0.010668	-0.259277	-0.975220	-0.727783	514	17_29_14_8640000
0.021790	0.821192	0.559496	0.000628	0.003452	0.015061	-0.259399	-0.975220	-0.727783	515	17_29_14_8720000
0.021790	0.821192	0.559496	0.008786	0.003765	0.011923	-0.259521	-0.975220	-0.727661	516	17_29_14_8800000
0.021790	0.821192	0.559282	0.010668	0.011610	0.024161	-0.259521	-0.975220	-0.727661	517	17_29_14_8880000
0.022004	0.821192	0.559282	0.000941	0.014120	0.011610	-0.259644	-0.975220	-0.727661	518	17_29_14_8960000
0.022004	0.821192	0.559282	0.003138	0.001569	0.015375	-0.259644	-0.975220	-0.727539	519	17_29_14_9040000
0.022004	0.821406	0.559282	0.009099	0.012551	0.005648	-0.259766	-0.975220	-0.727539	520	17_29_14_9120000
0.022004	0.821406	0.559282	0.005962	0.016003	0.002510	-0.259644	-0.975342	-0.727539	521	17_29_14_9200000
0.022004	0.821406	0.559069	0.015375	0.005020	0.020395	-0.259766	-0.975342	-0.727417	522	17_29_14_9280000
0.022217	0.821406	0.559069	0.009099	0.001569	0.018513	-0.259888	-0.975342	-0.727295	523	17_29_14_9360000
0.022217	0.821406	0.559069	0.003138	0.000000	0.016003	-0.260010	-0.975342	-0.727295	524	17_29_14_9440000
0.022431	0.821406	0.559069	0.000628	0.003138	0.010668	-0.260132	-0.975342	-0.727173	525	17_29_14_9520000
0.022431	0.821406	0.558855	0.004393	0.010355	0.010041	-0.260132	-0.975342	-0.727173	526	17_29_14_9600000
0.022431	0.821619	0.558855	0.010668	0.010041	0.016944	-0.260132	-0.975464	-0.727173	527	17_29_14_9680000
0.022431	0.821619	0.558855	0.012237	0.011610	0.014747	-0.260254	-0.975464	-0.727051	528	17_29_14_9760000
0.022431	0.821619	0.558855	-0.003138	0.005020	0.004393	-0.260254	-0.975464	-0.727051	529	17_29_14_9840000
0.022431	0.821619	0.558855	0.007217	0.010355	0.007844	-0.260254	-0.975464	-0.727051	530	17_29_14_9920000
0.022431	0.821619	0.558641	0.012237	0.009413	0.007844	-0.260254	-0.975586	-0.726929	531	17_29_15_0000000
0.022645	0.821619	0.558641	0.014120	0.006275	0.015061	-0.260376	-0.975586	-0.726807	532	17_29_15_0080000
0.022645	0.821833	0.558428	0.018199	0.010355	0.009727	-0.260376	-0.975708	-0.726685	533	17_29_15_0160000
0.022645	0.821833	0.558428	0.014120	0.017571	0.006275	-0.260376	-0.975830	-0.726685	534	17_29_15_0240000
0.022645	0.821833	0.558428	0.006275	0.009099	0.005962	-0.260376	-0.975830	-0.726563	535	17_29_15_0320000
0.022645	0.821833	0.558214	-0.002824	0.018513	0.016316	-0.260376	-0.975830	-0.726563	536	17_29_15_0400000
0.022645	0.821833	0.558428	-0.009099	0.021650	0.014120	-0.260376	-0.975830	-0.726685	537	17_29_15_0480000
0.022645	0.821833	0.558428	0.000941	0.016003	0.021650	-0.260376	-0.975708	-0.726685	538	17_29_15_0560000
0.022645	0.821833	0.558428	0.008786	0.007844	0.015689	-0.260498	-0.975708	-0.726685	539	17_29_15_0640000
0.022858	0.821833	0.558214	-0.000314	0.003765	0.017885	-0.260498	-0.975708	-0.726685	540	17_29_15_0720000
0.022858	0.821833	0.558214	0.001569	0.004707	0.015689	-0.260620	-0.975708	-0.726563	541	17_29_15_0800000
0.022858	0.821833	0.558214	0.001883	0.011296	0.008472	-0.260742	-0.975708	-0.726563	542	17_29_15_0880000
0.022858	0.821833	0.558214	0.000628	0.005962	0.006903	-0.260742	-0.975708	-0.726563	543	17_29_15_0960000
0.022858	0.822047	0.558214	0.001255	0.007844	0.008786	-0.260742	-0.975708	-0.726563	544	17_29_15_1040000
0.022858	0.822047	0.558214	-0.002510	0.013179	0.009413	-0.260742	-0.975708	-0.726563	545	17_29_15_1120000
0.023072	0.821833	0.558214	-0.008472	0.010355	0.017571	-0.260742	-0.975586	-0.726685	546	17_29_15_1200000
0.023072	0.821833	0.558214	0.003765	0.010355	0.017571	-0.260864	-0.975586	-0.726685	547	17_29_15_1280000
0.023072	0.821833	0.558214	0.007531	0.009413	0.011296	-0.260864	-0.975586	-0.726685	548	17_29_15_1360000
0.023072	0.822047	0.558214	0.011610	0.010668	0.008472	-0.260986	-0.975708	-0.726563	549	17_29_15_1440000
0.023072	0.822047	0.558214	-0.000941	0.010982	0.008786	-0.260986	-0.975708	-0.726563	550	17_29_15_1520000
0.023072	0.822047	0.558214	-0.008786	0.012551	0.001569	-0.260864	-0.975708	-0.726563	551	17_29_15_1600000
0.023072	0.822047	0.558214	0.000941	0.011610	0.006903	-0.260864	-0.975586	-0.726563	552	17_29_15_1680000
0.023072	0.822047	0.558214	-0.002510	0.008786	0.015375	-0.260864	-0.975586	-0.726563	553	17_29_15_1760000
0.023072	0.822047	0.558214	0.002196	0.001883	0.005648	-0.260986	-0.975586	-0.726563	554	17_29_15_1840000
0.023072	0.822047	0.558214	-0.006589	0.006275	0.004079	-0.260986	-0.975586	-0.726563	555	17_29_15_1920000
0.023286	0.821833	0.558214	-0.009099	0.006589	0.010041	-0.260986	-0.975586	-0.726685	556	17_29_15_2000000
0.023286	0.821833	0.558214	-0.000941	0.010668	0.009099	-0.260986	-0.975464	-0.726685	557	17_29_15_2080000
0.023286	0.821833	0.558214	-0.004393	0.009099	0.016003	-0.261108	-0.975464	-0.726685	558	17_29_15_2160000
0.023286	0.821833	0.558428	-0.010982	0.002196	0.009727	-0.261108	-0.975464	-0.726807	559	17_29_15_2240000
0.023286	0.821833	0.558428	-0.005020	0.006903	0.013492	-0.261230	-0.975342	-0.726807	560	17_29_15_2320000
0.023286	0.821833	0.558428	-0.002824	0.012237	0.002196	-0.261230	-0.975342	-0.726929	561	17_29_15_2400000
0.023286	0.821833	0.558428	-0.000941	0.016316	-0.004393	-0.261108	-0.975342	-0.726929	562	17_29_15_2480000
0.023286	0.821833	0.558428	0.003138	0.007217	0.007217	-0.261108	-0.975342	-0.726929	563	17_29_15_2560000
0.023286	0.821833	0.558428	0.009099	0.006589	0.009099	-0.261108	-0.975342	-0.726807	564	17_29_15_2640000
0.023286	0.821833	0.558428	0.000314	0.004707	0.011296	-0.261108	-0.975342	-0.726807	565	17_29_15_2720000
0.023286	0.821833	0.558428	-0.004707	0.009413	0.010041	-0.261230	-0.975342	-0.726807	566	17_29_15_2800000
0.023286	0.821833	0.558428	0.009099	0.005962	0.004079	-0.261230	-0.975342	-0.726807	567	17_29_15_2880000
0.023499	0.821833	0.558214	0.004079	0.004393	0.015689	-0.261230	-0.975464	-0.726807	568	17_29_15_2960000
0.023499	0.821833	0.558214	-0.001255	0.008158	-0.000314	-0.261230	-0.975464	-0.726807	569	17_29_15_3040000
0.023499	0.822047	0.558214	0.005962	0.007217	0.011610	-0.261230	-0.975464	-0.726685	570	17_29_15_3120000
0.023499	0.822047	0.558214	0.013492	0.004707	0.014747	-0.261353	-0.975464	-0.726685	571	17_29_15_3200000
0.023499	0.822047	0.558214	0.007844	0.012551	0.001569	-0.261353	-0.975464	-0.726563	572	17_29_15_3280000
0.023499	0.822047	0.558000	0.004707	0.005020	0.001883	-0.261353	-0.975586	-0.726563	573	17_29_15_3360000
0.023499	0.822047	0.558000	0.016630	0.005962	0.005648	-0.261353	-0.975586	-0.726440	574	17_29_15_3440000
0.023499	0.822260	0.558000	0.015375	0.012237	0.004393	-0.261353	-0.975708	-0.726318	575	17_29_15_3520000
0.023499	0.822260	0.557787	0.012551	0.018513	0.001883	-0.261230	-0.975830	-0.726196	576	17_29_15_3600000
0.023286	0.822260	0.557787	0.002196	0.010982	0.000628	-0.261108	-0.975830	-0.726196	577	17_29_15_3680000
0.023286	0.822260	0.557787	0.000000	0.016944	0.002196	-0.261108	-0.975830	-0.726196	578	17_29_15_3760000
0.023286	0.822260	0.557787	0.008472	0.012551	0.003452	-0.260986	-0.975830	-0.726196	579	17_29_15_3840000
0.023286	0.822260	0.557787	0.000314	0.008158	-0.002510	-0.260986	-0.975952	-0.726196	580	17_29_15_3920000
0.023286	0.822260	0.557787	0.005020	0.003452	0.010982	-0.260986	-0.975952	-0.726074	581	17_29_15_4000000
0.023286	0.822260	0.557573	0.001569	0.004707	0.008472	-0.260986	-0.975952	-0.726074	582	17_29_15_4080000
0.023286	0.822260	0.557573	0.000000	0.008786	0.014434	-0.261108	-0.975952	-0.726074	583	17_29_15_4160000
0.023499	0.822474	0.557573	0.001569	0.001883	0.010982	-0.261108	-0.975952	-0.726074	584	17_29_15_4240000
0.023499	0.822474	0.557573	0.000628	0.012865	0.009099	-0.261230	-0.975952	-0.726074	585	17_29_15_4320000
0.023499	0.822260	0.557573	-0.007531	0.002510	0.001255	-0.261230	-0.975952	-0.726074	586	17_29_15_4400000
0.023499	0.822260	0.557787	-0.004079	0.000000	0.010041	-0.261230	-0.975830	-0.726074	587	17_29_15_4480000
0.023499	0.822260	0.557787	0.001569	0.003452	0.012551	-0.261353	-0.975830	-0.726074	588	17_29_15_4560000
0.023499	0.822260	0.557787	-0.008472	0.010355	0.007217	-0.261353	-0.975830	-0.726074	589	17_29_15_4640000
0.023499	0.822260	0.557787	-0.002824	0.008786	0.002196	-0.261353	-0.975830	-0.726196	590	17_29_15_4720000
0.023499	0.822260	0.557787	-0.003452	0.021337	0.010668	-0.261353	-0.975708	-0.726196	591	17_29_15_4800000
0.023499	0.822260	0.557787	-0.000628	0.021337	0.005020	-0.261230	-0.975708	-0.726318	592	17_29_15_4880000
0.023499	0.822260	0.557787	0.004393	0.016003	-0.002196	-0.261108	-0.975708	-0.726318	593	17_29_15_4960000
0.023286	0.822260	0.557787	0.008472	0.014434	0.007217	-0.261108	-0.975830	-0.726196	594	17_29_15_5040000
0.023499	0.822474	0.557573	0.018199	0.011296	0.018826	-0.261108	-0.975830	-0.726196	595	17_29_15_5120000
0.023499	0.822474	0.557573	0.009727	0.007217	0.015375	-0.261230	-0.975952	-0.726074	596	17_29_15_5200000
0.023499	0.822474	0.557573	-0.002510	0.010982	0.015061	-0.261230	-0.975952	-0.725952	597	17_29_15_5280000
0.023499	0.822474	0.557573	0.002824	0.018199	0.012551	-0.261230	-0.975952	-0.726074	598	17_29_15_5360000
0.023499	0.822474	0.557573	-0.010668	0.009413	0.015061	-0.261353	-0.975830	-0.726074	599	17_29_15_5440000
0.023499	0.822474	0.557573	-0.006589	0.010668	0.002196	-0.261353	-0.975830	-0.726074	600	17_29_15_5520000
0.023499	0.822474	0.557573	0.004707	0.009727	-0.000628	-0.261230	-0.975830	-0.726196	601	17_29_15_5600000
0.023499	0.822474	0.557573	-0.003765	0.019768	0.003765	-0.261230	-0.975830	-0.726196	602	17_29_15_5680000
0.023499	0.822474	0.557573	-0.010668	0.018199	-0.006275	-0.261108	-0.975830	-0.726196	603	17_29_15_5760000
0.023286	0.822474	0.557573	0.014120	0.014120	-0.000628	-0.260986	-0.975830	-0.726196	604	17_29_15_5840000
0.023286	0.822474	0.557573	0.005962	0.021337	0.008472	-0.260864	-0.975830	-0.726196	605	17_29_15_5920000
0.023286	0.822474	0.557573	0.004079	0.019768	0.002510	-0.260864	-0.975952	-0.726196	606	17_29_15_6000000
0.023072	0.822474	0.557573	-0.003765	0.017258	0.006275	-0.260742	-0.975952	-0.726196	607	17_29_15_6080000
0.023072	0.822474	0.557573	0.000941	0.014434	0.010982	-0.260742	-0.975952	-0.726196	608	17_29_15_6160000
0.023072	0.822474	0.557573	0.003765	0.006275	0.006275	-0.260742	-0.975952	-0.726196	609	17_29_15_6240000
0.023072	0.822474	0.557573	-0.000628	0.008472	0.006589	-0.260742	-0.975952	-0.726196	610	17_29_15_6320000
0.023286	0.822474	0.557573	0.010041	0.012551	0.019768	-0.260864	-0.975952	-0.726196	611	17_29_15_6400000
0.023286	0.822474	0.557573	-0.003138	0.012237	0.021964	-0.260864	-0.975952	-0.726196	612	17_29_15_6480000
0.023286	0.822474	0.557360	0.010041	0.009099	0.016316	-0.260986	-0.975952	-0.726196	613	17_29_15_6560000
0.023286	0.822474	0.557360	0.003452	0.015375	0.005020	-0.260986	-0.975952	-0.726074	614	17_29_15_6640000
0.023286	0.822687	0.557360	0.009413	0.019140	0.014120	-0.260986	-0.975952	-0.726074	615	17_29_15_6720000
0.023286	0.822687	0.557360	0.014747	0.012865	0.010355	-0.260986	-0.975952	-0.725952	616	17_29_15_6800000
0.023499	0.822687	0.557146	0.012865	0.014434	0.019140	-0.260986	-0.976074	-0.725830	617	17_29_15_6880000
0.023499	0.822687	0.557146	0.016316	0.005648	0.005962	-0.261108	-0.976074	-0.725830	618	17_29_15_6960000
0.023499	0.822901	0.556932	0.018199	0.004707	0.004079	-0.261108	-0.976196	-0.725586	619	17_29_15_7040000
0.023499	0.822901	0.556932	0.016003	0.007531	0.006275	-0.261108	-0.976318	-0.725464	620	17_29_15_7120000
0.023499	0.822901	0.556719	0.006903	0.014434	0.005962	-0.261108	-0.976440	-0.725464	621	17_29_15_7200000
0.023499	0.822901	0.556719	-0.002510	0.010041	0.006589	-0.261108	-0.976440	-0.725464	622	17_29_15_7280000
0.023499	0.823115	0.556719	0.011296	0.012237	0.001569	-0.260986	-0.976440	-0.725342	623	17_29_15_7360000
0.023499	0.823115	0.556719	0.009727	0.007217	0.002196	-0.260986	-0.976440	-0.725342	624	17_29_15_7440000
0.023286	0.823115	0.556719	0.001255	0.004707	0.005648	-0.260986	-0.976563	-0.725220	625	17_29_15_7520000
0.023499	0.823115	0.556719	0.005334	0.002510	0.009099	-0.260986	-0.976563	-0.725220	626	17_29_15_7600000
0.023499	0.823115	0.556505	-0.002510	0.003452	0.006589	-0.261108	-0.976563	-0.725220	627	17_29_15_7680000
0.023499	0.823115	0.556505	0.004707	0.005648	0.010982	-0.261108	-0.976563	-0.725220	628	17_29_15_7760000
0.023499	0.823115	0.556505	0.009413	0.005648	0.008786	-0.261108	-0.976563	-0.725098	629	17_29_15_7840000
0.023499	0.823115	0.556505	0.000628	0.012237	0.003765	-0.261108	-0.976563	-0.725098	630	17_29_15_7920000
0.023499	0.823115	0.556505	0.013806	0.018513	0.011610	-0.261108	-0.976685	-0.725098	631	17_29_15_8000000
0.023499	0.823328	0.556291	0.012237	0.015375	0.012865	-0.261108	-0.976685	-0.724976	632	17_29_15_8080000
0.023499	0.823328	0.556291	0.013179	0.005020	0.012551	-0.261230	-0.976807	-0.724854	633	17_29_15_8160000
0.023713	0.823328	0.556291	0.011296	0.002510	0.010668	-0.261230	-0.976807	-0.724854	634	17_29_15_8240000
0.023713	0.823328	0.556078	0.009727	0.006903	0.003138	-0.261230	-0.976929	-0.724731	635	17_29_15_8320000
0.023713	0.823542	0.556078	0.014434	-0.002510	0.006589	-0.261353	-0.976929	-0.724609	636	17_29_15_8400000
0.023713	0.823542	0.556078	0.004707	0.004707	0.017571	-0.261353	-0.976929	-0.724487	637	17_29_15_8480000
0.023927	0.823542	0.555864	0.007531	0.001883	0.007531	-0.261475	-0.977051	-0.724487	638	17_29_15_8560000
0.023927	0.823542	0.555864	0.012551	0.004079	0.006903	-0.261475	-0.977051	-0.724365	639	17_29_15_8640000
0.023927	0.823542	0.555864	0.001883	0.005648	0.009099	-0.261597	-0.977051	-0.724365	640	17_29_15_8720000
0.023927	0.823542	0.555864	0.007844	0.005648	0.010982	-0.261597	-0.977051	-0.724243	641	17_29_15_8800000
0.023927	0.823542	0.555864	0.006589	-0.000628	0.007531	-0.261597	-0.977173	-0.724243	642	17_29_15_8880000
0.023927	0.823756	0.555650	0.004393	0.014120	0.005334	-0.261719	-0.977173	-0.724243	643	17_29_15_8960000
0.023927	0.823756	0.555650	-0.003765	0.009413	0.002196	-0.261597	-0.977173	-0.724243	644	17_29_15_9040000
0.023927	0.823542	0.555650	-0.002510	0.005962	0.008786	-0.261597	-0.977173	-0.724243	645	17_29_15_9120000
0.023927	0.823542	0.555650	-0.002510	0.010041	0.013179	-0.261719	-0.977173	-0.724243	646	17_29_15_9200000
0.024140	0.823542	0.555864	-0.008472	0.001569	0.013806	-0.261719	-0.977051	-0.724243	647	17_29_15_9280000
0.024140	0.823542	0.555864	0.001883	0.013806	0.009727	-0.261841	-0.977051	-0.724365	648	17_29_15_9360000
0.024140	0.823542	0.555864	-0.002510	0.011610	0.014434	-0.261841	-0.977051	-0.724365	649	17_29_15_9440000
0.024140	0.823542	0.555864	0.006903	0.018513	0.013806	-0.261841	-0.977051	-0.724365	650	17_29_15_9520000
0.024140	0.823542	0.555650	0.005334	0.000941	0.009727	-0.261841	-0.977051	-0.724365	651	17_29_15_9600000
0.024140	0.823542	0.555650	0.003138	0.005962	0.001569	-0.261963	-0.977051	-0.724243	652	17_29_15_9680000
0.024140	0.823756	0.555650	0.007531	0.004079	0.010041	-0.261963	-0.977051	-0.724243	653	17_29_15_9760000
0.024354	0.823756	0.555650	0.001255	0.001569	0.005334	-0.261963	-0.977051	-0.724243	654	17_29_15_9840000
0.024354	0.823756	0.555650	0.000000	0.010041	0.004707	-0.261963	-0.977051	-0.724121	655	17_29_15_9920000
0.024354	0.823756	0.555650	-0.005020	0.012551	0.005962	-0.261963	-0.977051	-0.724243	656	17_29_16_0000000
0.024140	0.823756	0.555650	-0.000314	0.007531	0.001569	-0.261963	-0.977051	-0.724243	657	17_29_16_0080000
0.024140	0.823756	0.555650	0.001255	0.009727	0.008472	-0.261963	-0.977051	-0.724243	658	17_29_16_0160000
0.024140	0.823756	0.555650	0.004707	0.001569	0.004393	-0.261963	-0.977051	-0.724243	659	17_29_16_0240000
0.024354	0.823756	0.555650	0.006275	0.005020	0.002196	-0.261963	-0.977173	-0.724121	660	17_29_16_0320000
0.024354	0.823756	0.555650	0.003138	0.000000	0.010041	-0.261963	-0.977173	-0.724121	661	17_29_16_0400000
0.024354	0.823756	0.555437	0.011296	0.001255	0.002196	-0.262085	-0.977173	-0.723999	662	17_29_16_0480000
0.024354	0.823756	0.555437	0.008472	0.010982	0.004707	-0.262085	-0.977295	-0.723999	663	17_29_16_0560000
0.024354	0.823969	0.555437	0.012865	0.017258	0.007844	-0.261963	-0.977295	-0.723877	664	17_29_16_0640000
0.024140	0.823969	0.555437	-0.000314	0.018513	0.005648	-0.261963	-0.977295	-0.723877	665	17_29_16_0720000
0.024140	0.823969	0.555437	0.002196	0.014120	-0.002196	-0.261841	-0.977295	-0.723877	666	17_29_16_0800000
0.024140	0.823969	0.555437	0.005020	0.016630	0.003138	-0.261841	-0.977417	-0.723877	667	17_29_16_0880000
0.024140	0.823969	0.555223	0.007844	0.017258	0.000628	-0.261719	-0.977417	-0.723877	668	17_29_16_0960000
0.023927	0.823969	0.555223	0.005020	0.013492	0.001255	-0.261597	-0.977417	-0.723877	669	17_29_16_1040000
0.023927	0.823969	0.555223	0.003765	0.010668	0.007531	-0.261597	-0.977539	-0.723755	670	17_29_16_1120000
0.023927	0.823969	0.555223	0.005334	0.012551	0.005020	-0.261597	-0.977539	-0.723755	671	17_29_16_1200000
0.023927	0.823969	0.555223	0.003138	0.000314	0.013806	-0.261597	-0.977539	-0.723755	672	17_29_16_1280000
0.024140	0.823969	0.555223	0.005334	0.006589	0.014120	-0.261719	-0.977539	-0.723755	673	17_29_16_1360000
0.024140	0.823969	0.555223	-0.011923	0.010668	0.006275	-0.261719	-0.977539	-0.723755	674	17_29_16_1440000
0.024140	0.823969	0.555223	-0.002510	0.006275	0.003138	-0.261719	-0.977417	-0.723755	675	17_29_16_1520000
0.024140	0.823969	0.555223	0.005962	0.005020	-0.003452	-0.261719	-0.977539	-0.723755	676	17_29_16_1600000
0.024140	0.823969	0.555223	0.003138	-0.003452	-0.004393	-0.261719	-0.977539	-0.723755	677	17_29_16_1680000
0.024140	0.823969	0.555223	0.004707	0.000314	0.000628	-0.261719	-0.977539	-0.723755	678	17_29_16_1760000
0.024140	0.824183	0.555010	0.007531	0.004079	0.007844	-0.261719	-0.977661	-0.723633	679	17_29_16_1840000
0.024140	0.824183	0.555010	0.005334	-0.002196	0.000628	-0.261719	-0.977661	-0.723633	680	17_29_16_1920000
0.024140	0.824183	0.555010	0.002510	0.000000	-0.001569	-0.261719	-0.977661	-0.723511	681	17_29_16_2000000
0.024140	0.824183	0.555010	-0.005020	0.001255	0.010982	-0.261719	-0.977661	-0.723511	682	17_29_16_2080000
0.024140	0.824183	0.555010	-0.002824	0.008786	0.008158	-0.261841	-0.977661	-0.723511	683	17_29_16_2160000
0.024140	0.824183	0.555010	0.003138	0.003765	0.003452	-0.261841	-0.977661	-0.723511	684	17_29_16_2240000
0.024140	0.824183	0.555010	0.005648	0.005962	-0.000628	-0.261841	-0.977661	-0.723511	685	17_29_16_2320000
0.024140	0.824183	0.555010	-0.002510	0.004079	-0.010982	-0.261719	-0.977661	-0.723511	686	17_29_16_2400000
0.023927	0.824183	0.555010	-0.004079	0.007844	0.000628	-0.261719	-0.977661	-0.723511	687	17_29_16_2480000
0.023927	0.824183	0.555010	-0.004079	0.014434	0.008786	-0.261597	-0.977661	-0.723633	688	17_29_16_2560000
0.023927	0.824183	0.555010	0.003765	0.005648	0.007844	-0.261597	-0.977661	-0.723633	689	17_29_16_2640000
0.024140	0.824183	0.555010	0.005962	0.003452	0.013179	-0.261719	-0.977661	-0.723511	690	17_29_16_2720000
0.024140	0.824183	0.555010	0.010668	0.003765	0.005648	-0.261719	-0.977661	-0.723511	691	17_29_16_2800000
0.024140	0.824183	0.554796	0.012551	0.012551	0.000628	-0.261719	-0.977783	-0.723389	692	17_29_16_2880000
0.024140	0.824183	0.554796	0.004393	0.006589	0.000000	-0.261719	-0.977783	-0.723389	693	17_29_16_2960000
0.024140	0.824183	0.554796	0.009413	0.007531	0.007217	-0.261719	-0.977905	-0.723267	694	17_29_16_3040000
0.024140	0.824396	0.554796	-0.002510	0.002196	0.015375	-0.261719	-0.977905	-0.723267	695	17_29_16_3120000
0.024140	0.824183	0.554796	-0.010982	-0.000314	0.012551	-0.261841	-0.977783	-0.723267	696	17_29_16_3200000
0.024354	0.824183	0.554796	-0.012865	0.005648	0.005648	-0.261841	-0.977783	-0.723389	697	17_29_16_3280000
0.024354	0.824183	0.555010	-0.009099	0.000314	0.004393	-0.261963	-0.977661	-0.723511	698	17_29_16_3360000
0.024354	0.824183	0.555010	-0.003452	0.005020	-0.003765	-0.261963	-0.977661	-0.723511	699	17_29_16_3440000
0.024140	0.824183	0.555010	0.005020	0.005962	0.006275	-0.261841	-0.977661	-0.723511	700	17_29_16_3520000
0.024140	0.824183	0.555010	-0.002510	0.010668	-0.006903	-0.261841	-0.977661	-0.723511	701	17_29_16_3600000
0.024140	0.824183	0.555010	0.008158	0.004707	0.001255	-0.261719	-0.977783	-0.723511	702	17_29_16_3680000
0.024140	0.824183	0.554796	0.016630	0.005648	0.003765	-0.261719	-0.977783	-0.723389	703	17_29_16_3760000
0.024140	0.824183	0.554796	0.008158	0.010982	0.004707	-0.261719	-0.977905	-0.723267	704	17_29_16_3840000
0.024140	0.824396	0.554796	-0.000941	0.006275	0.002196	-0.261719	-0.977905	-0.723267	705	17_29_16_3920000
0.024140	0.824183	0.554796	-0.008786	0.006903	-0.000628	-0.261719	-0.977905	-0.723267	706	17_29_16_4000000
0.023927	0.824183	0.554796	-0.000314	0.008158	-0.007531	-0.261597	-0.977905	-0.723389	707	17_29_16_4080000
0.023927	0.824183	0.554796	-0.002196	0.010668	-0.004707	-0.261475	-0.977905	-0.723389	708	17_29_16_4160000
0.023927	0.824183	0.554796	-0.005020	0.000314	-0.005648	-0.261475	-0.977905	-0.723389	709	17_29_16_4240000
0.023927	0.824183	0.555010	-0.002510	-0.008158	0.016316	-0.261475	-0.977905	-0.723389	710	17_29_16_4320000
0.023927	0.824183	0.555010	0.000628	0.004707	0.006589	-0.261597	-0.977783	-0.723389	711	17_29_16_4400000
0.024140	0.824183	0.555010	-0.004079	0.006589	0.006275	-0.261597	-0.977783	-0.723389	712	17_29_16_4480000
0.024140	0.824183	0.554796	0.008786	-0.009099	0.010041	-0.261719	-0.977783	-0.723389	713	17_29_16_4560000
0.024140	0.824183	0.554796	0.010982	0.001883	0.005648	-0.261841	-0.977905	-0.723267	714	17_29_16_4640000
0.024140	0.824396	0.554796	0.012237	-0.002824	0.007844	-0.261841	-0.977905	-0.723145	715	17_29_16_4720000
0.024140	0.824396	0.554796	-0.001883	0.004393	0.000941	-0.261841	-0.977905	-0.723145	716	17_29_16_4800000
0.024140	0.824396	0.554796	0.004707	0.005962	0.007844	-0.261841	-0.977905	-0.723145	717	17_29_16_4880000
0.024354	0.824396	0.554796	-0.004707	0.012237	0.010041	-0.261963	-0.977905	-0.723145	718	17_29_16_4960000
0.024354	0.824396	0.554796	0.002196	0.014120	0.008158	-0.261963	-0.977905	-0.723145	719	17_29_16_5040000
0.024354	0.824396	0.554796	0.001883	0.015061	0.016944	-0.261963	-0.977905	-0.723145	720	17_29_16_5120000
0.024354	0.824396	0.554796	-0.003765	0.016944	0.008158	-0.261963	-0.977905	-0.723145	721	17_29_16_5200000
0.024354	0.824396	0.554796	0.005648	0.009413	0.021650	-0.261963	-0.977905	-0.723145	722	17_29_16_5280000
0.024354	0.824396	0.554582	0.016003	0.009099	0.006589	-0.261963	-0.977905	-0.723022	723	17_29_16_5360000
0.024354	0.824396	0.554582	0.007844	0.013806	0.023219	-0.262085	-0.978027	-0.723022	724	17_29_16_5440000
0.024354	0.824396	0.554582	0.005962	0.020395	0.007844	-0.262085	-0.978027	-0.723022	725	17_29_16_5520000
0.024354	0.824610	0.554582	0.004707	0.005648	0.018199	-0.262085	-0.978027	-0.722900	726	17_29_16_5600000
0.024567	0.824610	0.554582	0.001569	0.002196	0.004707	-0.262207	-0.978027	-0.722900	727	17_29_16_5680000
0.024567	0.824610	0.554369	0.001569	0.012551	0.002196	-0.262207	-0.978027	-0.722900	728	17_29_16_5760000
0.024567	0.824610	0.554369	-0.000941	0.010041	0.003452	-0.262085	-0.978027	-0.722900	729	17_29_16_5840000
0.024354	0.824610	0.554369	0.005648	0.013806	0.002196	-0.262085	-0.978027	-0.722900	730	17_29_16_5920000
0.024354	0.824610	0.554369	0.003138	0.001255	0.003765	-0.262085	-0.978027	-0.722900	731	17_29_16_6000000
0.024354	0.824610	0.554369	0.005334	0.001883	-0.002510	-0.262085	-0.978149	-0.722778	732	17_29_16_6080000
0.024354	0.824610	0.554369	-0.006589	0.009099	0.000000	-0.261963	-0.978149	-0.722778	733	17_29_16_6160000
0.024354	0.824610	0.554369	-0.002510	0.001255	0.006589	-0.261963	-0.978027	-0.722900	734	17_29_16_6240000
0.024354	0.824610	0.554369	0.010668	-0.000941	0.009099	-0.262085	-0.978149	-0.722778	735	17_29_16_6320000
0.024567	0.824610	0.554369	0.011923	-0.004393	0.010982	-0.262207	-0.978149	-0.722656	736	17_29_16_6400000
0.024567	0.824610	0.554369	-0.001255	-0.001255	0.012551	-0.262329	-0.978149	-0.722656	737	17_29_16_6480000
0.024781	0.824610	0.554369	0.003138	0.007844	0.015061	-0.262329	-0.978149	-0.722656	738	17_29_16_6560000
0.024781	0.824610	0.554369	-0.000941	0.008158	0.005962	-0.262451	-0.978149	-0.722656	739	17_29_16_6640000
0.024781	0.824610	0.554369	-0.014120	0.009727	0.004707	-0.262451	-0.978149	-0.722656	740	17_29_16_6720000
0.024781	0.824610	0.554369	-0.009727	0.008472	-0.000628	-0.262329	-0.978027	-0.722778	741	17_29_16_6800000
0.024567	0.824610	0.554369	-0.007217	0.012865	0.004707	-0.262329	-0.978027	-0.722900	742	17_29_16_6880000
0.024567	0.824396	0.554582	-0.006903	0.016944	0.007217	-0.262329	-0.977905	-0.722900	743	17_29_16_6960000
0.024567	0.824396	0.554582	-0.004393	0.003452	0.011923	-0.262329	-0.977905	-0.723022	744	17_29_16_7040000
0.024567	0.824396	0.554582	-0.009099	0.009099	-0.001255	-0.262329	-0.977905	-0.723022	745	17_29_16_7120000
0.024567	0.824396	0.554582	0.002824	-0.001255	-0.003452	-0.262207	-0.977905	-0.723022	746	17_29_16_7200000
0.024567	0.824396	0.554582	-0.000628	0.002196	-0.003452	-0.262207	-0.977905	-0.723022	747	17_29_16_7280000
0.024567	0.824396	0.554582	0.006903	0.009413	0.008786	-0.262207	-0.977905	-0.723022	748	17_29_16_7360000
0.024567	0.824396	0.554582	-0.004393	0.006589	0.004393	-0.262207	-0.977905	-0.723022	749	17_29_16_7440000
0.024567	0.824396	0.554582	0.003138	0.007844	-0.004393	-0.262207	-0.977905	-0.723022	750	17_29_16_7520000
0.024567	0.824396	0.554582	-0.000941	0.008472	0.001255	-0.262085	-0.977905	-0.723022	751	17_29_16_7600000
0.024567	0.824396	0.554582	-0.006903	0.000314	0.005962	-0.262085	-0.977905	-0.723022	752	17_29_16_7680000
0.024567	0.824396	0.554582	-0.001255	-0.001569	0.004393	-0.262207	-0.977905	-0.723022	753	17_29_16_7760000
0.024567	0.824396	0.554582	-0.006589	-0.004393	0.010982	-0.262207	-0.977905	-0.723145	754	17_29_16_7840000
0.024567	0.824396	0.554582	-0.014434	0.007844	-0.000314	-0.262329	-0.977783	-0.723145	755	17_29_16_7920000
0.024567	0.824396	0.554796	-0.005334	0.006275	-0.006903	-0.262207	-0.977783	-0.723267	756	17_29_16_8000000
0.024567	0.824396	0.554796	-0.000941	0.008158	0.006275	-0.262207	-0.977783	-0.723267	757	17_29_16_8080000
0.024567	0.824396	0.554796	0.010668	-0.002824	0.011923	-0.262207	-0.977783	-0.723267	758	17_29_16_8160000
0.024781	0.824396	0.554582	0.003452	-0.006589	0.010041	-0.262329	-0.977783	-0.723145	759	17_29_16_8240000
0.024781	0.824396	0.554582	-0.008158	-0.011923	0.006589	-0.262451	-0.977783	-0.723145	760	17_29_16_8320000
0.024781	0.824396	0.554582	0.002824	-0.010041	0.001255	-0.262573	-0.977783	-0.723145	761	17_29_16_8400000
0.024995	0.824396	0.554582	0.011923	0.007844	0.015375	-0.262573	-0.977783	-0.723022	762	17_29_16_8480000
0.024995	0.824396	0.554582	0.006903	0.024474	0.006275	-0.262573	-0.977783	-0.723022	763	17_29_16_8560000
0.024995	0.824396	0.554582	0.003452	0.005334	0.022592	-0.262695	-0.977905	-0.723022	764	17_29_16_8640000
0.024995	0.824396	0.554582	0.016316	0.014120	0.010668	-0.262695	-0.977905	-0.722900	765	17_29_16_8720000
0.024995	0.824610	0.554369	0.001255	0.010041	0.010355	-0.262695	-0.977905	-0.722900	766	17_29_16_8800000
0.024995	0.824610	0.554369	0.000628	0.004079	-0.010041	-0.262695	-0.977905	-0.722900	767	17_29_16_8880000
0.024995	0.824610	0.554369	0.008158	0.012551	0.009727	-0.262695	-0.978027	-0.722778	768	17_29_16_8960000
0.024995	0.824610	0.554369	0.008158	0.016316	0.009727	-0.262695	-0.978027	-0.722778	769	17_29_16_9040000
0.024995	0.824610	0.554369	-0.002196	0.018826	0.005648	-0.262573	-0.978027	-0.722778	770	17_29_16_9120000
0.024781	0.824610	0.554369	-0.005648	0.020082	-0.004079	-0.262451	-0.978027	-0.722778	771	17_29_16_9200000
0.024781	0.824610	0.554369	0.003765	0.008158	0.007844	-0.262451	-0.978027	-0.722900	772	17_29_16_9280000
0.024781	0.824610	0.554369	-0.001255	0.004079	-0.005334	-0.262451	-0.978027	-0.722778	773	17_29_16_9360000
0.024781	0.824610	0.554369	0.004079	0.007217	-0.001255	-0.262329	-0.978027	-0.722778	774	17_29_16_9440000
0.024781	0.824610	0.554369	0.001569	-0.007531	0.000941	-0.262329	-0.978027	-0.722778	775	17_29_16_9520000
0.024781	0.824610	0.554369	0.005962	-0.002196	0.003765	-0.262451	-0.978149	-0.722778	776	17_29_16_9600000
0.024781	0.824610	0.554369	0.004393	0.004079	-0.005648	-0.262451	-0.978149	-0.722656	777	17_29_16_9680000
0.024781	0.824610	0.554369	-0.009727	-0.016316	0.001255	-0.262451	-0.978149	-0.722656	778	17_29_16_9760000
0.024781	0.824610	0.554369	0.003138	-0.007844	-0.000941	-0.262451	-0.978149	-0.722656	779	17_29_16_9840000
0.024781	0.824610	0.554369	-0.021023	0.000628	-0.005648	-0.262451	-0.978149	-0.722778	780	17_29_16_9920000
0.024781	0.824396	0.554369	-0.010982	0.000628	-0.002824	-0.262451	-0.978027	-0.722778	781	17_29_17_0000000
0.024781	0.824396	0.554582	-0.003765	0.013806	0.004707	-0.262451	-0.978027	-0.722900	782	17_29_17_0080000
0.024781	0.824396	0.554582	-0.005648	0.006589	0.007531	-0.262451	-0.977905	-0.722900	783	17_29_17_0160000
0.024781	0.824396	0.554582	0.001883	0.007531	0.001255	-0.262329	-0.977905	-0.722900	784	17_29_17_0240000
0.024781	0.824396	0.554582	0.005962	0.003452	0.003452	-0.262329	-0.978027	-0.722900	785	17_29_17_0320000
0.024781	0.824610	0.554369	0.014120	0.005334	0.000628	-0.262329	-0.978027	-0.722900	786	17_29_17_0400000
0.024781	0.824610	0.554369	0.005962	0.003765	0.010041	-0.262329	-0.978149	-0.722778	787	17_29_17_0480000
0.024781	0.824610	0.554369	0.007844	0.000941	0.012865	-0.262451	-0.978149	-0.722656	788	17_29_17_0560000
0.024781	0.824610	0.554369	-0.003765	0.003138	0.006275	-0.262573	-0.978149	-0.722656	789	17_29_17_0640000
0.024781	0.824610	0.554369	-0.005648	0.002510	0.013806	-0.262573	-0.978027	-0.722656	790	17_29_17_0720000
0.024995	0.824610	0.554369	-0.002824	-0.003138	0.006275	-0.262695	-0.978027	-0.722778	791	17_29_17_0800000
0.024995	0.824610	0.554369	-0.003765	0.014120	0.001883	-0.262695	-0.978027	-0.722778	792	17_29_17_0880000
0.024995	0.824610	0.554369	-0.002824	0.007217	0.001883	-0.262573	-0.978027	-0.722778	793	17_29_17_0960000
0.024781	0.824610	0.554369	-0.005020	0.009099	0.001569	-0.262573	-0.978027	-0.722778	794	17_29_17_1040000
0.024781	0.824610	0.554582	0.001255	0.013492	0.006275	-0.262573	-0.978027	-0.722900	795	17_29_17_1120000
0.024781	0.824610	0.554582	0.000314	-0.000314	0.010041	-0.262573	-0.978027	-0.722900	796	17_29_17_1200000
0.024995	0.824610	0.554369	0.000941	0.005334	0.005962	-0.262573	-0.978027	-0.722778	797	17_29_17_1280000
0.024995	0.824610	0.554369	-0.000628	0.011296	0.010668	-0.262695	-0.978027	-0.722778	798	17_29_17_1360000
0.024995	0.824610	0.554369	0.009727	0.013806	0.009099	-0.262695	-0.978027	-0.722778	799	17_29_17_1440000
0.024995	0.824610	0.554369	0.008158	0.011610	0.005334	-0.262573	-0.978027	-0.722778	800	17_29_17_1520000
0.024995	0.824610	0.554369	0.004079	0.009413	0.017885	-0.262695	-0.978027	-0.722778	801	17_29_17_1600000
0.024995	0.824610	0.554369	0.003138	-0.003765	0.014120	-0.262817	-0.978027	-0.722656	802	17_29_17_1680000
0.025208	0.824610	0.554369	-0.004393	0.004079	0.013179	-0.262817	-0.978027	-0.722656	803	17_29_17_1760000
0.025208	0.824610	0.554369	0.008158	0.006275	0.012551	-0.262939	-0.978027	-0.722656	804	17_29_17_1840000
0.025208	0.824610	0.554369	0.003765	0.006589	-0.003138	-0.262939	-0.978027	-0.722656	805	17_29_17_1920000
0.025208	0.824610	0.554155	0.007844	0.012551	0.001255	-0.262939	-0.978149	-0.722534	806	17_29_17_2000000
0.025208	0.824610	0.554155	0.001883	0.009727	0.000941	-0.262817	-0.978149	-0.722534	807	17_29_17_2080000
0.024995	0.824610	0.554155	0.006903	0.021964	0.001255	-0.262695	-0.978149	-0.722534	808	17_29_17_2160000
0.024995	0.824824	0.554155	0.005020	0.003765	0.005020	-0.262695	-0.978271	-0.722534	809	17_29_17_2240000
0.024995	0.824824	0.554155	-0.002824	0.005962	0.001883	-0.262695	-0.978271	-0.722534	810	17_29_17_2320000
0.024995	0.824824	0.554155	-0.002824	0.004707	0.008158	-0.262695	-0.978271	-0.722534	811	17_29_17_2400000
0.024995	0.824824	0.554155	-0.000628	0.005962	0.005962	-0.262695	-0.978149	-0.722534	812	17_29_17_2480000
0.024995	0.824610	0.554155	-0.008158	0.000000	-0.000314	-0.262695	-0.978149	-0.722534	813	17_29_17_2560000
0.024995	0.824610	0.554155	0.004707	0.010041	0.014434	-0.262817	-0.978149	-0.722534	814	17_29_17_2640000
0.025208	0.824824	0.554155	0.005648	0.007531	0.011610	-0.262817	-0.978149	-0.722534	815	17_29_17_2720000
0.025208	0.824824	0.554155	0.005334	0.012237	-0.002510	-0.262817	-0.978149	-0.722534	816	17_29_17_2800000
0.024995	0.824824	0.554155	0.002510	0.007844	0.007217	-0.262695	-0.978271	-0.722534	817	17_29_17_2880000
0.025208	0.824824	0.554155	0.016316	0.003765	0.005648	-0.262817	-0.978271	-0.722412	818	17_29_17_2960000
0.024995	0.824824	0.553941	0.008786	0.011296	-0.003765	-0.262695	-0.978394	-0.722290	819	17_29_17_3040000
0.024995	0.824824	0.553941	0.016316	0.015061	0.000941	-0.262695	-0.978394	-0.722290	820	17_29_17_3120000
0.024995	0.825037	0.553728	0.030750	0.008472	-0.002510	-0.262573	-0.978638	-0.722046	821	17_29_17_3200000
0.024995	0.825037	0.553514	0.016630	0.009413	0.004079	-0.262573	-0.978760	-0.721924	822	17_29_17_3280000
0.024995	0.825251	0.553514	0.009413	0.005962	0.012551	-0.262573	-0.978760	-0.721802	823	17_29_17_3360000
0.024995	0.825251	0.553514	0.007217	0.007844	0.001569	-0.262573	-0.978882	-0.721802	824	17_29_17_3440000
0.024995	0.825251	0.553514	0.011296	-0.004079	0.008472	-0.262573	-0.978882	-0.721680	825	17_29_17_3520000
0.024995	0.825251	0.553301	0.007844	0.002510	0.004393	-0.262695	-0.978882	-0.721558	826	17_29_17_3600000
0.024995	0.825251	0.553301	-0.002824	-0.000941	0.006275	-0.262695	-0.979004	-0.721558	827	17_29_17_3680000
0.024995	0.825251	0.553301	0.003765	0.009727	0.006589	-0.262695	-0.979004	-0.721558	828	17_29_17_3760000
0.024995	0.825251	0.553301	0.004707	0.005648	0.014120	-0.262817	-0.979004	-0.721558	829	17_29_17_3840000
0.024995	0.825251	0.553301	0.001883	0.006589	-0.003138	-0.262817	-0.979004	-0.721436	830	17_29_17_3920000
0.024995	0.825251	0.553301	0.001569	0.015061	-0.005962	-0.262695	-0.979004	-0.721436	831	17_29_17_4000000
0.024995	0.825251	0.553301	-0.002196	0.013806	0.000314	-0.262573	-0.979004	-0.721558	832	17_29_17_4080000
0.024995	0.825251	0.553301	0.005020	0.008158	0.005648	-0.262573	-0.979004	-0.721558	833	17_29_17_4160000
0.024995	0.825251	0.553301	-0.015061	0.007844	-0.002196	-0.262451	-0.979004	-0.721558	834	17_29_17_4240000
0.024781	0.825251	0.553301	-0.007531	0.008472	0.001255	-0.262451	-0.979004	-0.721680	835	17_29_17_4320000
0.024781	0.825251	0.553301	0.004707	0.002824	0.000000	-0.262451	-0.979004	-0.721680	836	17_29_17_4400000
0.024781	0.825251	0.553301	-0.005962	0.007217	0.005648	-0.262451	-0.979004	-0.721680	837	17_29_17_4480000
0.024781	0.825251	0.553514	-0.000628	0.011923	0.004707	-0.262451	-0.978882	-0.721680	838	17_29_17_4560000
0.024781	0.825251	0.553514	-0.011610	0.019140	0.009099	-0.262329	-0.978882	-0.721802	839	17_29_17_4640000
0.024781	0.825251	0.553514	-0.010668	0.015375	0.005020	-0.262329	-0.978882	-0.721924	840	17_29_17_4720000
0.024781	0.825251	0.553514	-0.000941	0.008786	0.001255	-0.262329	-0.978760	-0.721924	841	17_29_17_4800000
0.024781	0.825251	0.553514	0.005334	0.001255	-0.000941	-0.262329	-0.978760	-0.721924	842	17_29_17_4880000
0.024781	0.825251	0.553514	-0.005020	0.005648	0.003452	-0.262207	-0.978760	-0.721924	843	17_29_17_4960000
0.024781	0.825251	0.553514	0.014120	0.008786	-0.001883	-0.262207	-0.978882	-0.721924	844	17_29_17_5040000
0.024567	0.825251	0.553514	0.006903	0.010355	0.000628	-0.262207	-0.978882	-0.721802	845	17_29_17_5120000
0.024567	0.825251	0.553514	0.005962	0.007844	0.015061	-0.262207	-0.979004	-0.721802	846	17_29_17_5200000
0.024781	0.825251	0.553301	0.005648	-0.001569	-0.001569	-0.262207	-0.979004	-0.721680	847	17_29_17_5280000
0.024781	0.825251	0.553301	0.000941	-0.000314	0.000628	-0.262207	-0.979004	-0.721680	848	17_29_17_5360000
0.024781	0.825251	0.553301	0.008786	0.009413	0.005020	-0.262207	-0.979004	-0.721680	849	17_29_17_5440000
0.024781	0.825251	0.553301	-0.004707	0.004393	0.004079	-0.262207	-0.979004	-0.721680	850	17_29_17_5520000
0.024567	0.825251	0.553301	-0.012865	0.004079	-0.002510	-0.262207	-0.979004	-0.721680	851	17_29_17_5600000
0.024567	0.825251	0.553301	-0.000628	0.011296	0.004393	-0.262207	-0.979004	-0.721802	852	17_29_17_5680000
0.024567	0.825251	0.553514	-0.005648	0.007844	0.015061	-0.262207	-0.979004	-0.721802	853	17_29_17_5760000
0.024781	0.825251	0.553514	-0.000628	0.002824	0.017885	-0.262329	-0.978882	-0.721802	854	17_29_17_5840000
0.024781	0.825251	0.553514	-0.005648	0.005020	0.011923	-0.262329	-0.978882	-0.721802	855	17_29_17_5920000
0.024781	0.825251	0.553514	-0.005962	0.000941	0.010668	-0.262451	-0.978760	-0.721802	856	17_29_17_6000000
0.024995	0.825251	0.553514	-0.004393	0.014120	0.010041	-0.262451	-0.978760	-0.721924	857	17_29_17_6080000
0.024781	0.825251	0.553514	-0.005334	0.016003	-0.002510	-0.262451	-0.978760	-0.721924	858	17_29_17_6160000
0.024781	0.825251	0.553514	0.001883	0.016316	0.005962	-0.262329	-0.978760	-0.722046	859	17_29_17_6240000
0.024781	0.825251	0.553514	0.010355	0.011923	0.003138	-0.262329	-0.978760	-0.721924	860	17_29_17_6320000
0.024781	0.825251	0.553514	0.005334	0.018199	-0.001255	-0.262207	-0.978882	-0.721924	861	17_29_17_6400000
0.024567	0.825251	0.553514	-0.015061	0.003452	-0.002824	-0.262207	-0.978760	-0.721924	862	17_29_17_6480000
0.024567	0.825037	0.553514	-0.004393	0.005334	0.001255	-0.262085	-0.978760	-0.722046	863	17_29_17_6560000
0.024567	0.825037	0.553514	0.005020	0.005962	-0.006903	-0.262085	-0.978760	-0.722046	864	17_29_17_6640000
0.024567	0.825251	0.553514	0.005962	0.004393	-0.004707	-0.261963	-0.978882	-0.722046	865	17_29_17_6720000
0.024567	0.825251	0.553514	0.005020	-0.006275	0.006903	-0.261963	-0.978882	-0.721924	866	17_29_17_6800000
0.024567	0.825251	0.553514	0.009099	-0.006903	0.007217	-0.262085	-0.978882	-0.721924	867	17_29_17_6880000
0.024567	0.825251	0.553301	0.008786	0.000941	0.002824	-0.262207	-0.979004	-0.721802	868	17_29_17_6960000
0.024781	0.825251	0.553301	0.008786	-0.004393	0.003452	-0.262207	-0.979004	-0.721680	869	17_29_17_7040000
0.024781	0.825251	0.553301	-0.002510	0.000314	-0.000314	-0.262207	-0.979004	-0.721680	870	17_29_17_7120000
0.024567	0.825251	0.553301	-0.003452	0.013806	-0.003138	-0.262207	-0.979004	-0.721680	871	17_29_17_7200000
0.024567	0.825251	0.553301	0.005962	0.015061	-0.001569	-0.262085	-0.979004	-0.721680	872	17_29_17_7280000
0.024567	0.825251	0.553301	-0.005334	-0.001255	0.005334	-0.262085	-0.979004	-0.721680	873	17_29_17_7360000
0.024567	0.825251	0.553301	-0.010041	0.002824	0.010668	-0.262085	-0.979004	-0.721680	874	17_29_17_7440000
0.024781	0.825251	0.553514	-0.006275	-0.001569	0.016316	-0.262207	-0.978882	-0.721802	875	17_29_17_7520000
0.024781	0.825251	0.553514	0.009413	0.007531	0.017885	-0.262329	-0.978882	-0.721802	876	17_29_17_7600000
0.024781	0.825251	0.553301	0.003765	0.024161	0.008158	-0.262329	-0.978882	-0.721680	877	17_29_17_7680000
0.024781	0.825251	0.553514	-0.021023	0.018826	0.009727	-0.262329	-0.978882	-0.721802	878	17_29_17_7760000
0.024781	0.825037	0.553514	-0.016003	0.000628	0.011923	-0.262329	-0.978760	-0.722046	879	17_29_17_7840000
0.024781	0.825037	0.553514	0.001883	0.004707	0.001883	-0.262329	-0.978760	-0.722046	880	17_29_17_7920000
0.024781	0.825037	0.553728	-0.005962	0.002824	0.005334	-0.262329	-0.978760	-0.722046	881	17_29_17_8000000
0.024781	0.825037	0.553728	-0.000628	-0.001255	0.002196	-0.262329	-0.978638	-0.722046	882	17_29_17_8080000
0.024995	0.825037	0.553728	-0.004707	-0.009413	0.005334	-0.262451	-0.978638	-0.722046	883	17_29_17_8160000
0.024995	0.825037	0.553728	0.003138	-0.000941	0.010668	-0.262573	-0.978638	-0.722046	884	17_29_17_8240000
0.024995	0.825037	0.553728	0.006903	0.001255	0.006903	-0.262573	-0.978638	-0.721924	885	17_29_17_8320000
0.024995	0.825037	0.553514	0.004707	0.001255	0.009099	-0.262695	-0.978760	-0.721924	886	17_29_17_8400000
0.024995	0.825037	0.553514	0.008158	0.008472	-0.001569	-0.262695	-0.978760	-0.721924	887	17_29_17_8480000
0.024995	0.825251	0.553514	0.013179	0.010982	0.000000	-0.262573	-0.978760	-0.721802	888	17_29_17_8560000
0.024995	0.825251	0.553514	0.010041	0.006589	-0.000941	-0.262573	-0.978882	-0.721680	889	17_29_17_8640000
0.024995	0.825251	0.553301	0.013492	0.000941	0.015061	-0.262573	-0.978882	-0.721680	890	17_29_17_8720000
0.024995	0.825251	0.553301	0.005962	0.007531	0.014120	-0.262695	-0.979004	-0.721558	891	17_29_17_8800000
0.025208	0.825465	0.553087	0.021650	0.014120	0.013806	-0.262695	-0.979004	-0.721436	892	17_29_17_8880000
0.025208	0.825465	0.553087	0.005020	-0.003138	0.010355	-0.262817	-0.979126	-0.721313	893	17_29_17_8960000
0.025208	0.825465	0.553087	0.007844	-0.001255	0.005962	-0.262817	-0.979126	-0.721313	894	17_29_17_9040000
0.025208	0.825465	0.553087	0.011296	0.009413	0.013806	-0.262939	-0.979126	-0.721191	895	17_29_17_9120000
0.025208	0.825465	0.552873	0.011296	0.016630	0.008158	-0.262939	-0.979248	-0.721191	896	17_29_17_9200000
0.025208	0.825678	0.552873	0.006589	0.015375	0.004079	-0.262817	-0.979248	-0.721069	897	17_29_17_9280000
0.025208	0.825678	0.552873	0.001883	0.011296	0.000628	-0.262817	-0.979248	-0.721069	898	17_29_17_9360000
0.025208	0.825678	0.552873	0.007531	0.000628	0.009413	-0.262817	-0.979370	-0.721069	899	17_29_17_9440000
0.025208	0.825678	0.552873	0.004393	0.012237	0.001255	-0.262817	-0.979370	-0.721069	900	17_29_17_9520000
0.025208	0.825678	0.552660	0.000314	0.010041	0.011296	-0.262817	-0.979370	-0.721069	901	17_29_17_9600000
0.025208	0.825678	0.552660	0.011610	0.019768	0.004079	-0.262817	-0.979370	-0.720947	902	17_29_17_9680000
0.025208	0.825678	0.552660	0.005648	0.022278	0.001883	-0.262695	-0.979370	-0.720947	903	17_29_17_9760000
0.024995	0.825678	0.552660	-0.017571	0.014434	0.011923	-0.262695	-0.979370	-0.721069	904	17_29_17_9840000
0.025208	0.825678	0.552873	-0.006589	0.015689	0.014120	-0.262695	-0.979248	-0.721191	905	17_29_17_9920000
0.025208	0.825678	0.552873	0.003452	0.013179	0.007531	-0.262695	-0.979248	-0.721191	906	17_29_18_0000000
0.024995	0.825678	0.552873	0.005020	0.017885	0.006275	-0.262573	-0.979248	-0.721191	907	17_29_18_0080000
0.024995	0.825678	0.552873	-0.004393	0.001883	0.003452	-0.262573	-0.979248	-0.721191	908	17_29_18_0160000
0.024995	0.825678	0.552873	0.007844	0.007217	0.003765	-0.262573	-0.979370	-0.721191	909	17_29_18_0240000
0.025208	0.825678	0.552660	0.000628	0.008158	0.009413	-0.262573	-0.979370	-0.721069	910	17_29_18_0320000
0.025208	0.825678	0.552873	-0.004707	0.018826	0.008472	-0.262573	-0.979370	-0.721191	911	17_29_18_0400000
0.024995	0.825678	0.552873	-0.002824	0.014434	0.006275	-0.262573	-0.979248	-0.721191	912	17_29_18_0480000
0.024995	0.825678	0.552873	0.001569	0.010982	0.008158	-0.262573	-0.979248	-0.721191	913	17_29_18_0560000
0.024995	0.825678	0.552873	-0.006589	0.005020	0.007844	-0.262573	-0.979248	-0.721313	914	17_29_18_0640000
0.025208	0.825678	0.552873	-0.002510	0.005020	0.009099	-0.262573	-0.979248	-0.721313	915	17_29_18_0720000
0.025208	0.825678	0.552873	0.008158	0.009099	0.008472	-0.262695	-0.979248	-0.721313	916	17_29_18_0800000
0.025208	0.825678	0.552873	0.000941	0.008158	0.005020	-0.262695	-0.979248	-0.721191	917	17_29_18_0880000
0.025208	0.825678	0.552873	-0.005962	0.010668	0.001255	-0.262573	-0.979248	-0.721313	918	17_29_18_0960000
0.025208	0.825678	0.552873	0.001883	-0.000941	-0.004707	-0.262573	-0.979248	-0.721313	919	17_29_18_1040000
0.024995	0.825678	0.552873	0.000314	0.001255	0.001883	-0.262573	-0.979248	-0.721313	920	17_29_18_1120000
0.024995	0.825678	0.552873	0.001883	0.005648	0.003138	-0.262573	-0.979248	-0.721313	921	17_29_18_1200000
0.024995	0.825678	0.552873	-0.004393	0.003452	0.005334	-0.262573	-0.979248	-0.721313	922	17_29_18_1280000
0.025208	0.825678	0.552873	-0.005648	0.009099	0.006275	-0.262573	-0.979248	-0.721313	923	17_29_18_1360000
0.024995	0.825678	0.552873	0.002824	0.009099	0.003452	-0.262573	-0.979248	-0.721313	924	17_29_18_1440000
0.024995	0.825678	0.552873	-0.003452	0.010355	0.005334	-0.262573	-0.979248	-0.721313	925	17_29_18_1520000
0.024995	0.825678	0.552873	-0.007217	0.007531	0.010041	-0.262573	-0.979126	-0.721436	926	17_29_18_1600000
0.024995	0.825465	0.552873	-0.003452	0.015375	0.010041	-0.262573	-0.979126	-0.721436	927	17_29_18_1680000
0.024995	0.825465	0.552873	0.003765	0.013492	0.001883	-0.262573	-0.979126	-0.721436	928	17_29_18_1760000
0.024995	0.825678	0.552873	0.004079	0.022592	0.005648	-0.262451	-0.979126	-0.721436	929	17_29_18_1840000
0.024995	0.825678	0.552873	0.009413	0.003452	0.012237	-0.262451	-0.979248	-0.721436	930	17_29_18_1920000
0.024995	0.825678	0.552873	-0.000628	0.006275	0.009099	-0.262573	-0.979248	-0.721436	931	17_29_18_2000000
0.024995	0.825678	0.552873	0.000000	-0.000314	0.004393	-0.262573	-0.979248	-0.721436	932	17_29_18_2080000
0.024995	0.825678	0.552873	-0.002824	0.002824	-0.000628	-0.262573	-0.979126	-0.721436	933	17_29_18_2160000
0.025208	0.825678	0.552873	-0.000628	0.007217	0.010668	-0.262573	-0.979126	-0.721436	934	17_29_18_2240000
0.025208	0.825678	0.552873	-0.007844	0.001883	0.005334	-0.262573	-0.979126	-0.721436	935	17_29_18_2320000
0.025208	0.825678	0.552873	0.001883	0.015061	0.000314	-0.262573	-0.979126	-0.721436	936	17_29_18_2400000
0.024995	0.825678	0.552873	0.006903	0.018513	-0.005962	-0.262451	-0.979126	-0.721436	937	17_29_18_2480000
0.024995	0.825678	0.552873	0.007531	0.012551	-0.000628	-0.262329	-0.979248	-0.721436	938	17_29_18_2560000
0.024995	0.825678	0.552873	0.010982	0.006589	0.004079	-0.262329	-0.979248	-0.721313	939	17_29_18_2640000
0.024781	0.825678	0.552660	0.004079	0.016316	-0.007531	-0.262207	-0.979370	-0.721313	940	17_29_18_2720000
0.024781	0.825678	0.552660	-0.000314	0.013492	-0.005334	-0.262085	-0.979370	-0.721313	941	17_29_18_2800000
0.024781	0.825678	0.552660	0.003138	-0.003452	0.006275	-0.262085	-0.979370	-0.721313	942	17_29_18_2880000
0.024781	0.825678	0.552660	0.013179	0.007844	0.010668	-0.262207	-0.979370	-0.721191	943	17_29_18_2960000
0.024781	0.825892	0.552660	0.004707	0.023847	0.015061	-0.262207	-0.979492	-0.721191	944	17_29_18_3040000
0.024781	0.825892	0.552660	0.000941	0.022592	0.016003	-0.262207	-0.979492	-0.721191	945	17_29_18_3120000
0.024781	0.825892	0.552660	-0.000628	0.017885	0.011923	-0.262207	-0.979370	-0.721191	946	17_29_18_3200000
0.024781	0.825892	0.552660	0.007844	0.014434	0.001569	-0.262085	-0.979492	-0.721191	947	17_29_18_3280000
0.024781	0.825892	0.552446	0.008158	0.001255	0.010041	-0.262085	-0.979492	-0.721191	948	17_29_18_3360000
0.024781	0.825892	0.552446	-0.002510	0.009099	0.004079	-0.262085	-0.979492	-0.721191	949	17_29_18_3440000
0.024781	0.825892	0.552660	-0.006589	0.010041	0.006275	-0.262085	-0.979492	-0.721191	950	17_29_18_3520000
0.024781	0.825892	0.552660	-0.012237	0.002510	-0.001883	-0.262085	-0.979370	-0.721313	951	17_29_18_3600000
0.024781	0.825892	0.552660	-0.004393	0.005962	0.015061	-0.262085	-0.979370	-0.721313	952	17_29_18_3680000
0.024781	0.825678	0.552660	-0.005648	0.014120	0.009413	-0.262207	-0.979370	-0.721313	953	17_29_18_3760000
0.024781	0.825678	0.552660	0.010982	0.013806	0.004393	-0.262207	-0.979370	-0.721313	954	17_29_18_3840000
0.024781	0.825892	0.552660	0.000628	0.003765	0.001255	-0.262085	-0.979370	-0.721313	955	17_29_18_3920000
0.024781	0.825892	0.552660	0.010982	0.004707	0.014747	-0.262207	-0.979370	-0.721313	956	17_29_18_4000000
0.024781	0.825892	0.552660	0.011923	-0.005334	0.005334	-0.262207	-0.979492	-0.721191	957	17_29_18_4080000
0.024781	0.825892	0.552446	0.010041	0.002510	-0.001255	-0.262207	-0.979492	-0.721069	958	17_29_18_4160000
0.024781	0.825892	0.552446	0.009099	0.007217	0.000941	-0.262207	-0.979614	-0.720947	959	17_29_18_4240000
0.024781	0.825892	0.552446	-0.004707	0.008158	0.009413	-0.262207	-0.979614	-0.720947	960	17_29_18_4320000
0.024781	0.825892	0.552446	-0.008786	0.007531	0.003765	-0.262207	-0.979492	-0.721069	961	17_29_18_4400000
0.024781	0.825892	0.552446	0.000628	0.004707	0.015375	-0.262329	-0.979492	-0.721069	962	17_29_18_4480000
0.024995	0.825892	0.552446	0.007531	0.007531	0.003765	-0.262329	-0.979492	-0.721069	963	17_29_18_4560000
0.024995	0.825892	0.552446	-0.000314	0.008786	-0.000628	-0.262329	-0.979492	-0.721069	964	17_29_18_4640000
0.024995	0.825892	0.552446	-0.002824	-0.001255	0.003452	-0.262329	-0.979492	-0.721069	965	17_29_18_4720000
0.024995	0.825892	0.552446	0.000314	0.010041	0.007217	-0.262329	-0.979492	-0.721069	966	17_29_18_4800000
0.024995	0.825892	0.552446	0.005962	0.008472	0.007844	-0.262329	-0.979492	-0.721069	967	17_29_18_4880000
0.024995	0.825892	0.552446	-0.004707	0.009413	0.007531	-0.262329	-0.979492	-0.721069	968	17_29_18_4960000
0.024995	0.825892	0.552446	-0.002510	0.006275	0.003138	-0.262329	-0.979492	-0.721069	969	17_29_18_5040000
0.024995	0.825892	0.552446	-0.000314	0.001255	0.005648	-0.262329	-0.979492	-0.721069	970	17_29_18_5120000
0.024995	0.825892	0.552446	0.004707	0.001883	0.001569	-0.262329	-0.979492	-0.721069	971	17_29_18_5200000
0.024995	0.825892	0.552446	0.002510	0.010355	0.003765	-0.262329	-0.979492	-0.721069	972	17_29_18_5280000
0.024995	0.825892	0.552446	0.005020	0.010041	-0.001255	-0.262329	-0.979614	-0.721069	973	17_29_18_5360000
0.024781	0.825892	0.552446	0.000628	0.007531	0.001255	-0.262207	-0.979614	-0.720947	974	17_29_18_5440000
0.024781	0.825892	0.552446	0.000314	0.010041	0.005648	-0.262207	-0.979614	-0.720947	975	17_29_18_5520000
0.024781	0.826106	0.552446	0.009413	0.002824	0.005334	-0.262207	-0.979614	-0.720947	976	17_29_18_5600000
0.024781	0.826106	0.552232	0.005962	0.005962	0.005962	-0.262207	-0.979614	-0.720947	977	17_29_18_5680000
0.024995	0.826106	0.552232	0.017885	0.010041	0.012237	-0.262207	-0.979736	-0.720825	978	17_29_18_5760000
0.024995	0.826106	0.552232	0.018513	0.010982	0.010982	-0.262329	-0.979858	-0.720703	979	17_29_18_5840000
0.024995	0.826319	0.552019	0.015689	0.011610	-0.001883	-0.262329	-0.979858	-0.720581	980	17_29_18_5920000
0.024781	0.826319	0.552019	0.015375	0.013179	-0.000941	-0.262207	-0.979980	-0.720459	981	17_29_18_6000000
0.024781	0.826319	0.551805	0.001883	0.017258	0.010041	-0.262085	-0.980103	-0.720459	982	17_29_18_6080000
0.024781	0.826319	0.552019	-0.014747	0.006903	-0.001255	-0.262085	-0.979980	-0.720459	983	17_29_18_6160000
0.024781	0.826319	0.552019	-0.010668	0.005334	0.010355	-0.262085	-0.979980	-0.720581	984	17_29_18_6240000
0.024781	0.826106	0.552019	-0.003138	0.005334	0.002510	-0.262085	-0.979858	-0.720703	985	17_29_18_6320000
0.024781	0.826319	0.552019	0.013492	0.006903	0.004393	-0.262085	-0.979858	-0.720581	986	17_29_18_6400000
0.024781	0.826319	0.552019	0.016944	0.009727	0.014747	-0.262207	-0.979980	-0.720459	987	17_29_18_6480000
0.024781	0.826319	0.551805	0.014120	0.006275	-0.000941	-0.262207	-0.980103	-0.720337	988	17_29_18_6560000
0.024781	0.826319	0.551805	-0.001255	0.006589	0.016316	-0.262207	-0.980103	-0.720337	989	17_29_18_6640000
0.024995	0.826319	0.551805	0.011610	0.014120	0.002824	-0.262207	-0.980103	-0.720337	990	17_29_18_6720000
0.024781	0.826533	0.551592	0.018199	0.002510	0.007217	-0.262207	-0.980225	-0.720215	991	17_29_18_6800000
0.024995	0.826533	0.551592	0.010041	0.004393	0.001569	-0.262207	-0.980225	-0.720093	992	17_29_18_6880000
0.024781	0.826533	0.551592	0.004079	0.010982	-0.001255	-0.262207	-0.980347	-0.720093	993	17_29_18_6960000
0.024781	0.826533	0.551592	0.001883	0.017571	0.001255	-0.262085	-0.980347	-0.720093	994	17_29_18_7040000
0.024781	0.826533	0.551592	-0.000314	0.019454	0.008158	-0.262085	-0.980347	-0.720093	995	17_29_18_7120000
0.024781	0.826533	0.551592	0.000314	0.008158	0.009099	-0.262085	-0.980347	-0.720093	996	17_29_18_7200000
0.024781	0.826533	0.551592	-0.001569	0.010982	0.007217	-0.262085	-0.980347	-0.720093	997	17_29_18_7280000
0.024781	0.826533	0.551592	-0.008786	0.006903	0.008158	-0.262085	-0.980347	-0.720093	998	17_29_18_7360000
0.024781	0.826533	0.551592	0.000314	0.000941	0.007531	-0.262085	-0.980225	-0.720215	999	17_29_18_7440000
0.024781	0.826533	0.551592	0.007844	0.005962	0.007531	-0.262085	-0.980225	-0.720093	1000	17_29_18_7520000
0.024781	0.826533	0.551378	0.014120	0.006589	0.017258	-0.262207	-0.980347	-0.720093	1001	17_29_18_7600000
0.024995	0.826533	0.551378	0.005648	0.012551	0.020395	-0.262329	-0.980347	-0.719971	1002	17_29_18_7680000
0.024995	0.826533	0.551378	0.001255	0.009099	0.010982	-0.262329	-0.980347	-0.719971	1003	17_29_18_7760000
0.024995	0.826533	0.551378	0.001883	0.003765	0.002196	-0.262329	-0.980347	-0.719971	1004	17_29_18_7840000
0.024995	0.826746	0.551378	0.003138	0.011296	0.009413	-0.262329	-0.980347	-0.719971	1005	17_29_18_7920000
0.024995	0.826746	0.551378	0.001883	0.008472	0.016003	-0.262451	-0.980347	-0.719971	1006	17_29_18_8000000
0.025208	0.826746	0.551378	-0.000941	0.011610	0.032005	-0.262573	-0.980347	-0.719971	1007	17_29_18_8080000
0.025422	0.826746	0.551378	-0.000628	0.010355	0.025416	-0.262695	-0.980225	-0.719971	1008	17_29_18_8160000
0.025422	0.826746	0.551378	-0.001883	0.000000	0.027612	-0.262817	-0.980225	-0.719971	1009	17_29_18_8240000
0.025636	0.826746	0.551378	0.012865	0.001255	0.021964	-0.263062	-0.980225	-0.719849	1010	17_29_18_8320000
0.025849	0.826746	0.551164	0.008786	0.000314	0.018826	-0.263184	-0.980225	-0.719849	1011	17_29_18_8400000
0.025849	0.826746	0.551164	0.013179	-0.004079	0.022906	-0.263428	-0.980225	-0.719727	1012	17_29_18_8480000
0.026063	0.826746	0.551164	0.010982	0.001255	0.028240	-0.263550	-0.980225	-0.719604	1013	17_29_18_8560000
0.026276	0.826960	0.550951	0.028240	0.002824	0.023533	-0.263794	-0.980347	-0.719482	1014	17_29_18_8640000
0.026490	0.826960	0.550737	0.016630	-0.000314	0.033574	-0.264038	-0.980347	-0.719238	1015	17_29_18_8720000
0.026704	0.826960	0.550737	0.008786	0.001883	0.030122	-0.264282	-0.980469	-0.719116	1016	17_29_18_8800000
0.026704	0.827174	0.550737	0.017258	0.001255	0.022278	-0.264404	-0.980469	-0.718994	1017	17_29_18_8880000
0.026917	0.827174	0.550523	0.026357	0.007531	0.033574	-0.264648	-0.980469	-0.718872	1018	17_29_18_8960000
0.027131	0.827174	0.550310	0.014120	0.004707	0.025416	-0.264771	-0.980591	-0.718750	1019	17_29_18_9040000
0.027131	0.827174	0.550310	-0.003765	0.010668	0.016316	-0.264893	-0.980591	-0.718750	1020	17_29_18_9120000
0.027345	0.827174	0.550310	-0.003452	-0.000628	0.025730	-0.265015	-0.980469	-0.718750	1021	17_29_18_9200000
0.027558	0.827174	0.550310	0.008158	-0.005020	0.023219	-0.265259	-0.980469	-0.718628	1022	17_29_18_9280000
0.027772	0.827174	0.550310	0.014120	0.005020	0.044242	-0.265503	-0.980469	-0.718628	1023	17_29_18_9360000
0.027985	0.827387	0.550096	0.022278	0.002196	0.027926	-0.265747	-0.980469	-0.718506	1024	17_29_18_9440000
0.027985	0.827387	0.550096	0.023847	0.007217	0.032005	-0.265991	-0.980591	-0.718262	1025	17_29_18_9520000
0.028199	0.827601	0.549883	0.015061	0.006903	0.020709	-0.266113	-0.980591	-0.718140	1026	17_29_18_9600000
0.028413	0.827601	0.549883	0.000628	0.010982	0.018826	-0.266235	-0.980591	-0.718018	1027	17_29_18_9680000
0.028413	0.827601	0.549883	-0.005334	0.012865	0.026985	-0.266357	-0.980591	-0.718140	1028	17_29_18_9760000
0.028626	0.827387	0.549883	0.001569	0.000314	0.016316	-0.266479	-0.980591	-0.718140	1029	17_29_18_9840000
0.028626	0.827387	0.549883	-0.005020	0.000941	0.012237	-0.266602	-0.980469	-0.718140	1030	17_29_18_9920000
0.028626	0.827387	0.549883	-0.005962	0.008786	0.009413	-0.266602	-0.980469	-0.718140	1031	17_29_19_0000000
0.028626	0.827387	0.549883	0.009727	-0.000314	0.001255	-0.266724	-0.980469	-0.718140	1032	17_29_19_0080000
0.028626	0.827387	0.549883	-0.000628	0.001569	0.007531	-0.266724	-0.980469	-0.718140	1033	17_29_19_0160000
0.028626	0.827387	0.549883	0.012551	0.006903	0.004707	-0.266724	-0.980469	-0.718018	1034	17_29_19_0240000
0.028840	0.827601	0.549883	-0.000314	0.002824	0.009099	-0.266724	-0.980591	-0.718018	1035	17_29_19_0320000
0.028840	0.827601	0.549883	0.007531	0.005334	0.005962	-0.266846	-0.980591	-0.718018	1036	17_29_19_0400000
0.028840	0.827601	0.549883	-0.004393	0.005648	0.007531	-0.266846	-0.980591	-0.717896	1037	17_29_19_0480000
0.028840	0.827601	0.549883	0.008472	0.001883	-0.007844	-0.266846	-0.980591	-0.717896	1038	17_29_19_0560000
0.028626	0.827601	0.549669	0.015375	0.005962	-0.000314	-0.266724	-0.980713	-0.717896	1039	17_29_19_0640000
0.028626	0.827601	0.549669	0.007217	0.001569	0.000941	-0.266724	-0.980713	-0.717773	1040	17_29_19_0720000
0.028626	0.827601	0.549669	-0.000941	0.007531	-0.005962	-0.266724	-0.980713	-0.717773	1041	17_29_19_0800000
0.028626	0.827601	0.549669	-0.009099	0.001883	-0.010668	-0.266602	-0.980713	-0.717773	1042	17_29_19_0880000
0.028626	0.827601	0.549669	0.000628	0.001569	0.002824	-0.266602	-0.980713	-0.717773	1043	17_29_19_0960000
0.028626	0.827601	0.549669	0.013179	0.005020	0.003138	-0.266602	-0.980835	-0.717773	1044	17_29_19_1040000
0.028626	0.827601	0.549669	0.005962	0.009099	-0.005648	-0.266479	-0.980835	-0.717651	1045	17_29_19_1120000
0.028413	0.827815	0.549455	0.010982	0.017258	0.005020	-0.266479	-0.980957	-0.717651	1046	17_29_19_1200000
0.028413	0.827815	0.549455	0.012865	0.005020	-0.003765	-0.266357	-0.980957	-0.717529	1047	17_29_19_1280000
0.028413	0.827815	0.549455	0.001255	0.017258	0.013806	-0.266357	-0.981079	-0.717529	1048	17_29_19_1360000
0.028413	0.827815	0.549455	0.013806	0.011296	0.002824	-0.266357	-0.981079	-0.717407	1049	17_29_19_1440000
0.028413	0.827815	0.549242	0.005962	0.018513	0.002196	-0.266357	-0.981079	-0.717407	1050	17_29_19_1520000
0.028199	0.827815	0.549242	0.000628	0.014434	0.002824	-0.266235	-0.981201	-0.717407	1051	17_29_19_1600000
0.028199	0.827815	0.549242	0.001883	0.019140	0.003138	-0.266113	-0.981201	-0.717407	1052	17_29_19_1680000
0.028199	0.828028	0.549242	0.014434	0.015375	-0.000628	-0.266113	-0.981201	-0.717407	1053	17_29_19_1760000
0.027985	0.828028	0.549242	0.009099	0.019768	-0.000941	-0.265991	-0.981323	-0.717285	1054	17_29_19_1840000
0.027985	0.828028	0.549028	0.005334	0.013179	-0.007531	-0.265869	-0.981323	-0.717285	1055	17_29_19_1920000
0.027985	0.828028	0.549028	0.005962	0.005962	0.000941	-0.265747	-0.981445	-0.717285	1056	17_29_19_2000000
0.027985	0.828028	0.549028	0.016316	0.014434	-0.001569	-0.265747	-0.981445	-0.717163	1057	17_29_19_2080000
0.027772	0.828028	0.549028	0.001883	0.014434	0.011610	-0.265625	-0.981445	-0.717163	1058	17_29_19_2160000
0.027772	0.828242	0.549028	0.007844	0.016316	0.001569	-0.265625	-0.981567	-0.717163	1059	17_29_19_2240000
0.027772	0.828242	0.548814	0.005962	0.017571	0.000000	-0.265503	-0.981567	-0.717041	1060	17_29_19_2320000
0.027772	0.828242	0.548814	0.014120	0.004393	0.013179	-0.265503	-0.981567	-0.717041	1061	17_29_19_2400000
0.027772	0.828242	0.548814	-0.007844	0.003452	0.009099	-0.265625	-0.981567	-0.717041	1062	17_29_19_2480000
0.027772	0.828242	0.548814	-0.007217	0.008158	0.001569	-0.265625	-0.981567	-0.717041	1063	17_29_19_2560000
0.027985	0.828242	0.548814	-0.002510	-0.001883	0.004393	-0.265625	-0.981567	-0.717041	1064	17_29_19_2640000
0.027985	0.828242	0.548814	0.003765	0.005020	0.005334	-0.265625	-0.981567	-0.717041	1065	17_29_19_2720000
0.027772	0.828242	0.548814	-0.010041	0.011923	-0.010982	-0.265625	-0.981567	-0.717163	1066	17_29_19_2800000
0.027772	0.828028	0.549028	0.003452	0.016944	0.013179	-0.265503	-0.981567	-0.717163	1067	17_29_19_2880000
0.027772	0.828028	0.549028	-0.007217	0.025416	0.005648	-0.265503	-0.981445	-0.717163	1068	17_29_19_2960000
0.027772	0.828028	0.549028	-0.002196	0.023533	-0.007217	-0.265381	-0.981445	-0.717285	1069	17_29_19_3040000
0.027558	0.828028	0.549028	0.002196	0.012237	-0.008786	-0.265137	-0.981567	-0.717285	1070	17_29_19_3120000
0.027558	0.828028	0.549028	0.004707	0.005962	0.000314	-0.265137	-0.981567	-0.717285	1071	17_29_19_3200000
0.027345	0.828028	0.549028	-0.010355	0.006275	-0.007217	-0.265015	-0.981567	-0.717285	1072	17_29_19_3280000
0.027345	0.828028	0.549028	-0.008786	0.005648	0.000628	-0.265015	-0.981445	-0.717407	1073	17_29_19_3360000
0.027345	0.828028	0.549242	-0.016630	0.013179	-0.012865	-0.264893	-0.981445	-0.717529	1074	17_29_19_3440000
0.027131	0.828028	0.549242	-0.014434	-0.002824	-0.008786	-0.264771	-0.981445	-0.717651	1075	17_29_19_3520000
0.027131	0.827815	0.549455	-0.019140	0.000000	-0.007217	-0.264771	-0.981323	-0.717773	1076	17_29_19_3600000
0.027131	0.827815	0.549455	-0.001569	-0.001255	-0.002824	-0.264648	-0.981323	-0.717773	1077	17_29_19_3680000
0.027131	0.827815	0.549455	-0.007217	-0.002510	-0.002196	-0.264648	-0.981323	-0.717773	1078	17_29_19_3760000
0.027131	0.827815	0.549455	-0.003452	0.000314	-0.000628	-0.264648	-0.981201	-0.717896	1079	17_29_19_3840000
0.027131	0.827815	0.549455	-0.002510	0.000941	-0.005020	-0.264648	-0.981201	-0.717896	1080	17_29_19_3920000
0.027131	0.827815	0.549455	-0.018826	-0.007531	-0.009413	-0.264648	-0.981201	-0.717896	1081	17_29_19_4000000
0.027131	0.827601	0.549669	-0.013179	-0.010982	-0.007217	-0.264648	-0.981079	-0.718018	1082	17_29_19_4080000
0.027131	0.827601	0.549669	-0.007844	-0.014747	-0.003765	-0.264648	-0.981079	-0.718018	1083	17_29_19_4160000
0.027131	0.827601	0.549669	-0.001883	-0.013806	-0.006275	-0.264648	-0.981079	-0.718018	1084	17_29_19_4240000
0.027131	0.827601	0.549883	-0.000941	-0.005648	-0.007531	-0.264648	-0.981079	-0.718018	1085	17_29_19_4320000
0.027131	0.827601	0.549883	0.001569	-0.007217	-0.006903	-0.264648	-0.981079	-0.718018	1086	17_29_19_4400000
0.027131	0.827601	0.549883	-0.005962	-0.003138	-0.013179	-0.264648	-0.981201	-0.718018	1087	17_29_19_4480000
0.026917	0.827601	0.549883	-0.007844	0.000314	-0.017885	-0.264526	-0.981079	-0.718018	1088	17_29_19_4560000
0.026917	0.827601	0.549883	-0.003765	0.000941	-0.004707	-0.264404	-0.981079	-0.718140	1089	17_29_19_4640000
0.026917	0.827601	0.549883	-0.012551	-0.003452	-0.005648	-0.264404	-0.981079	-0.718140	1090	17_29_19_4720000
0.026917	0.827387	0.549883	-0.001883	0.007844	0.000314	-0.264404	-0.981079	-0.718140	1091	17_29_19_4800000
0.026704	0.827387	0.550096	-0.006589	0.009413	-0.003452	-0.264282	-0.981079	-0.718262	1092	17_29_19_4880000
0.026704	0.827387	0.550096	0.000314	0.002510	0.004707	-0.264282	-0.981079	-0.718262	1093	17_29_19_4960000
0.026704	0.827387	0.550096	-0.006903	0.009099	-0.008158	-0.264282	-0.981079	-0.718262	1094	17_29_19_5040000
0.026704	0.827387	0.550096	0.005962	0.006589	0.003765	-0.264160	-0.981079	-0.718262	1095	17_29_19_5120000
0.026704	0.827387	0.550096	0.003765	0.002510	0.004393	-0.264160	-0.981079	-0.718262	1096	17_29_19_5200000
0.026704	0.827387	0.550096	0.004079	0.009727	0.005962	-0.264160	-0.981079	-0.718262	1097	17_29_19_5280000
0.026704	0.827387	0.550096	0.000628	0.009727	-0.012551	-0.264160	-0.981079	-0.718262	1098	17_29_19_5360000
0.026490	0.827387	0.550096	-0.006589	0.011296	-0.009727	-0.264038	-0.981201	-0.718262	1099	17_29_19_5440000
0.026276	0.827387	0.550096	-0.015375	0.011296	-0.015375	-0.263794	-0.981079	-0.718384	1100	17_29_19_5520000
0.026276	0.827387	0.550096	-0.003765	0.018199	-0.009727	-0.263672	-0.981079	-0.718506	1101	17_29_19_5600000
0.026063	0.827387	0.550096	0.003452	0.010668	-0.000628	-0.263550	-0.981079	-0.718506	1102	17_29_19_5680000
0.026063	0.827387	0.550096	0.007531	0.015061	0.001255	-0.263428	-0.981201	-0.718506	1103	17_29_19_5760000
0.026063	0.827387	0.550096	0.007844	0.016944	0.001255	-0.263428	-0.981201	-0.718384	1104	17_29_19_5840000
0.025849	0.827387	0.550096	0.009727	0.015689	-0.006589	-0.263306	-0.981201	-0.718384	1105	17_29_19_5920000
0.025849	0.827387	0.550096	-0.004393	0.005962	0.005962	-0.263184	-0.981323	-0.718384	1106	17_29_19_6000000
0.025849	0.827387	0.550096	0.009099	0.015689	0.009099	-0.263184	-0.981323	-0.718384	1107	17_29_19_6080000
0.025849	0.827601	0.549883	0.010041	0.010668	0.002510	-0.263184	-0.981323	-0.718262	1108	17_29_19_6160000
0.025849	0.827601	0.549883	0.005962	0.018199	0.003765	-0.263184	-0.981323	-0.718262	1109	17_29_19_6240000
0.025636	0.827601	0.549883	0.003765	0.017571	-0.004079	-0.263062	-0.981445	-0.718262	1110	17_29_19_6320000
0.025636	0.827601	0.549883	-0.003452	0.012237	0.000000	-0.262939	-0.981445	-0.718262	1111	17_29_19_6400000
0.025636	0.827601	0.549883	0.004079	0.010355	0.000941	-0.262939	-0.981445	-0.718262	1112	17_29_19_6480000
0.025636	0.827601	0.549883	0.004707	0.003452	0.003765	-0.262939	-0.981445	-0.718262	1113	17_29_19_6560000
0.025636	0.827601	0.549883	0.003765	-0.001883	0.005648	-0.262939	-0.981445	-0.718262	1114	17_29_19_6640000
0.025636	0.827601	0.549883	0.007531	0.002824	0.006903	-0.262939	-0.981567	-0.718140	1115	17_29_19_6720000
0.025636	0.827815	0.549669	0.026357	0.007531	0.009413	-0.263062	-0.981567	-0.718018	1116	17_29_19_6800000
0.025636	0.827815	0.549669	0.009413	0.003138	0.010041	-0.263062	-0.981689	-0.717896	1117	17_29_19_6880000
0.025849	0.827815	0.549455	0.001569	0.004707	0.001255	-0.263062	-0.981689	-0.717896	1118	17_29_19_6960000
0.025849	0.827815	0.549455	0.003138	0.004393	0.009099	-0.263062	-0.981689	-0.717773	1119	17_29_19_7040000
0.025849	0.827815	0.549455	0.007531	-0.002824	-0.003138	-0.263062	-0.981689	-0.717773	1120	17_29_19_7120000
0.025849	0.827815	0.549455	-0.005962	0.005334	0.002824	-0.263062	-0.981812	-0.717773	1121	17_29_19_7200000
0.025849	0.827815	0.549455	-0.004393	0.006903	0.003765	-0.263062	-0.981689	-0.717773	1122	17_29_19_7280000
0.025849	0.827815	0.549455	-0.001569	0.004079	0.014747	-0.263184	-0.981689	-0.717773	1123	17_29_19_7360000
0.025849	0.827815	0.549669	0.000941	0.004707	0.003138	-0.263184	-0.981689	-0.717773	1124	17_29_19_7440000
0.025849	0.827815	0.549669	-0.005648	0.008786	-0.004393	-0.263184	-0.981689	-0.717896	1125	17_29_19_7520000
0.025849	0.827815	0.549669	-0.002510	-0.000941	0.000941	-0.263062	-0.981689	-0.717896	1126	17_29_19_7600000
0.025849	0.827815	0.549669	0.002824	0.006275	-0.001569	-0.263062	-0.981689	-0.717896	1127	17_29_19_7680000
0.025849	0.827815	0.549669	0.003765	-0.001883	0.009099	-0.263184	-0.981689	-0.717896	1128	17_29_19_7760000
0.025849	0.827815	0.549455	0.015689	0.000314	0.014120	-0.263184	-0.981689	-0.717773	1129	17_29_19_7840000
0.025849	0.827815	0.549455	0.011610	0.007844	0.002510	-0.263306	-0.981812	-0.717651	1130	17_29_19_7920000
0.025849	0.828028	0.549455	0.010041	-0.002824	0.005020	-0.263306	-0.981812	-0.717529	1131	17_29_19_8000000
0.025849	0.828028	0.549242	0.015375	-0.000628	-0.011610	-0.263306	-0.981934	-0.717407	1132	17_29_19_8080000
0.025849	0.828028	0.549242	0.006903	-0.005020	-0.001569	-0.263184	-0.982056	-0.717407	1133	17_29_19_8160000
