sensor_ID	000666015715
Accel_X	Accel_Y	Accel_Z	Roll	Pitch	Yaw	Mag_X	Mag_Y	Mag_Z	Count	SysTime
-0.175781	-0.703125	-0.084961	-0.243732	0.065620	-0.224984	0.726563	1.078125	0.585938	0	16_14_46_3120000
-0.181641	-0.697266	-0.087891	-0.243732	0.074995	-0.234358	0.738281	0.972656	0.503906	1	16_14_46_3281290
-0.175781	-0.708984	-0.096680	-0.253107	0.065620	-0.234358	0.726563	0.937500	0.468750	2	16_14_46_3442580
-0.166992	-0.703125	-0.084961	-0.243732	0.065620	-0.234358	0.738281	0.914063	0.492188	3	16_14_46_3603870
-0.172852	-0.708984	-0.079102	-0.243732	0.065620	-0.234358	0.726563	0.902344	0.480469	4	16_14_46_3765160
-0.175781	-0.717773	-0.082031	-0.243732	0.074995	-0.234358	0.738281	0.843750	0.480469	5	16_14_46_3926450
-0.169922	-0.700195	-0.096680	-0.243732	0.074995	-0.234358	0.738281	0.878906	0.515625	6	16_14_46_4087740
-0.181641	-0.708984	-0.087891	-0.253107	0.074995	-0.224984	0.726563	1.207031	0.562500	7	16_14_46_4249030
-0.184570	-0.708984	-0.082031	-0.253107	0.065620	-0.234358	0.726563	0.902344	0.468750	8	16_14_46_4410320
-0.175781	-0.703125	-0.087891	-0.253107	0.065620	-0.224984	0.726563	0.937500	0.468750	9	16_14_46_4571610
-0.178711	-0.700195	-0.079102	-0.243732	0.074995	-0.234358	0.832031	1.054688	0.515625	10	16_14_46_4732900
-0.181641	-0.700195	-0.090820	-0.243732	0.074995	-0.234358	0.703125	0.914063	0.492188	11	16_14_46_4894190
-0.172852	-0.706055	-0.090820	-0.243732	0.074995	-0.234358	0.726563	0.960938	0.503906	12	16_14_46_5055480
-0.184570	-0.711914	-0.093750	-0.243732	0.074995	-0.224984	0.902344	1.195313	0.480469	13	16_14_46_5216770
-0.169922	-0.706055	-0.093750	-0.243732	0.065620	-0.234358	0.726563	0.960938	0.457031	14	16_14_46_5378060
-0.169922	-0.703125	-0.087891	-0.243732	0.074995	-0.224984	0.738281	0.925781	0.503906	15	16_14_46_5539350
-0.169922	-0.714844	-0.084961	-0.243732	0.074995	-0.224984	0.726563	0.914063	0.492188	16	16_14_46_5700640
-0.181641	-0.714844	-0.087891	-0.243732	0.074995	-0.215609	0.726563	0.937500	0.468750	17	16_14_46_5861930
-0.175781	-0.706055	-0.087891	-0.243732	0.074995	-0.224984	0.738281	0.890625	0.503906	18	16_14_46_6023220
-0.169922	-0.711914	-0.084961	-0.243732	0.065620	-0.224984	0.738281	0.890625	0.503906	19	16_14_46_6184510
-0.178711	-0.703125	-0.090820	-0.243732	0.065620	-0.234358	0.738281	0.972656	0.515625	20	16_14_46_6345800
-0.190430	-0.708984	-0.084961	-0.243732	0.065620	-0.234358	0.714844	0.972656	0.515625	21	16_14_46_6507090
-0.169922	-0.706055	-0.099609	-0.243732	0.074995	-0.234358	0.726563	0.984375	0.468750	22	16_14_46_6668380
-0.184570	-0.706055	-0.090820	-0.243732	0.074995	-0.234358	0.820313	1.042969	0.503906	23	16_14_46_6829670
-0.172852	-0.697266	-0.090820	-0.243732	0.074995	-0.224984	0.726563	0.972656	0.492188	24	16_14_46_6990960
-0.181641	-0.714844	-0.093750	-0.243732	0.074995	-0.234358	1.066406	1.429688	0.527344	25	16_14_46_7152250
-0.175781	-0.711914	-0.084961	-0.243732	0.074995	-0.224984	0.726563	0.984375	0.492188	26	16_14_46_7313540
-0.181641	-0.711914	-0.090820	-0.243732	0.074995	-0.234358	0.738281	0.925781	0.503906	27	16_14_46_7474830
-0.181641	-0.700195	-0.079102	-0.243732	0.074995	-0.234358	0.785156	0.984375	0.480469	28	16_14_46_7636120
-0.190430	-0.717773	-0.084961	-0.243732	0.074995	-0.234358	0.726563	0.890625	0.468750	29	16_14_46_7797410
-0.181641	-0.708984	-0.087891	-0.243732	0.074995	-0.234358	0.750000	0.937500	0.492188	30	16_14_46_7958700
-0.178711	-0.708984	-0.096680	-0.243732	0.074995	-0.234358	0.738281	0.878906	0.492188	31	16_14_46_8119990
-0.172852	-0.711914	-0.090820	-0.253107	0.074995	-0.234358	0.726563	0.820313	0.515625	32	16_14_46_8281280
-0.175781	-0.708984	-0.082031	-0.243732	0.074995	-0.234358	0.726563	0.855469	0.503906	33	16_14_46_8442570
-0.169922	-0.717773	-0.084961	-0.243732	0.074995	-0.234358	0.738281	0.914063	0.468750	34	16_14_46_8603860
-0.175781	-0.711914	-0.084961	-0.243732	0.074995	-0.224984	0.726563	0.914063	0.457031	35	16_14_46_8765150
-0.178711	-0.714844	-0.087891	-0.243732	0.074995	-0.224984	0.738281	0.960938	0.457031	36	16_14_46_8926440
-0.175781	-0.714844	-0.084961	-0.243732	0.074995	-0.224984	0.726563	0.855469	0.480469	37	16_14_46_9087730
-0.166992	-0.708984	-0.087891	-0.253107	0.074995	-0.234358	0.738281	0.855469	0.492188	38	16_14_46_9249020
-0.184570	-0.706055	-0.084961	-0.243732	0.074995	-0.234358	0.738281	0.937500	0.492188	39	16_14_46_9410310
-0.181641	-0.711914	-0.082031	-0.243732	0.074995	-0.234358	0.738281	0.937500	0.480469	40	16_14_46_9571600
-0.187500	-0.720703	-0.090820	-0.253107	0.074995	-0.234358	0.773438	0.960938	0.468750	41	16_14_46_9732890
-0.181641	-0.703125	-0.090820	-0.243732	0.074995	-0.224984	0.738281	0.960938	0.457031	42	16_14_46_9894180
-0.178711	-0.708984	-0.096680	-0.243732	0.074995	-0.224984	0.738281	0.972656	0.468750	43	16_14_47_0055470
-0.175781	-0.706055	-0.084961	-0.253107	0.074995	-0.234358	0.726563	1.007813	0.492188	44	16_14_47_0216760
-0.175781	-0.711914	-0.090820	-0.243732	0.074995	-0.234358	0.738281	0.960938	0.468750	45	16_14_47_0378050
-0.175781	-0.708984	-0.093750	-0.243732	0.084369	-0.234358	0.878906	1.125000	0.492188	46	16_14_47_0539340
-0.190430	-0.708984	-0.082031	-0.243732	0.074995	-0.234358	0.960938	1.546875	0.574219	47	16_14_47_0700630
-0.184570	-0.717773	-0.090820	-0.243732	0.074995	-0.234358	0.726563	0.890625	0.515625	48	16_14_47_0861920
-0.184570	-0.703125	-0.090820	-0.243732	0.074995	-0.224984	0.738281	1.113281	0.539063	49	16_14_47_1023210
-0.181641	-0.708984	-0.090820	-0.243732	0.065620	-0.224984	0.726563	0.937500	0.480469	50	16_14_47_1184500
-0.178711	-0.708984	-0.090820	-0.243732	0.074995	-0.224984	0.738281	0.890625	0.480469	51	16_14_47_1345790
-0.178711	-0.717773	-0.090820	-0.243732	0.074995	-0.224984	0.738281	0.796875	0.492188	52	16_14_47_1507080
-0.178711	-0.706055	-0.087891	-0.243732	0.074995	-0.224984	0.726563	0.855469	0.468750	53	16_14_47_1668370
-0.184570	-0.697266	-0.087891	-0.243732	0.074995	-0.224984	0.738281	0.949219	0.480469	54	16_14_47_1829660
-0.178711	-0.703125	-0.090820	-0.253107	0.074995	-0.224984	0.738281	0.914063	0.527344	55	16_14_47_1990950
-0.175781	-0.714844	-0.090820	-0.243732	0.065620	-0.234358	0.726563	0.937500	0.515625	56	16_14_47_2152240
-0.178711	-0.703125	-0.084961	-0.243732	0.074995	-0.234358	0.726563	0.937500	0.480469	57	16_14_47_2313530
-0.175781	-0.720703	-0.087891	-0.253107	0.074995	-0.224984	0.726563	0.937500	0.480469	58	16_14_47_2474820
-0.187500	-0.700195	-0.090820	-0.253107	0.074995	-0.224984	0.726563	0.867188	0.503906	59	16_14_47_2636110
-0.175781	-0.706055	-0.084961	-0.243732	0.074995	-0.224984	0.738281	0.960938	0.574219	60	16_14_47_2797400
-0.181641	-0.708984	-0.087891	-0.243732	0.074995	-0.224984	0.738281	0.937500	0.539063	61	16_14_47_2958690
-0.169922	-0.708984	-0.084961	-0.243732	0.074995	-0.224984	0.714844	0.890625	0.515625	62	16_14_47_3119980
-0.169922	-0.711914	-0.084961	-0.243732	0.074995	-0.224984	0.726563	0.867188	0.468750	63	16_14_47_3281270
-0.184570	-0.714844	-0.084961	-0.243732	0.074995	-0.234358	0.726563	0.890625	0.457031	64	16_14_47_3442560
-0.181641	-0.708984	-0.084961	-0.243732	0.074995	-0.234358	0.726563	0.937500	0.480469	65	16_14_47_3603850
-0.172852	-0.708984	-0.084961	-0.243732	0.065620	-0.234358	0.738281	0.914063	0.503906	66	16_14_47_3765140
-0.175781	-0.697266	-0.087891	-0.243732	0.065620	-0.224984	0.750000	0.984375	0.503906	67	16_14_47_3926430
-0.178711	-0.708984	-0.084961	-0.243732	0.065620	-0.224984	0.703125	0.914063	0.503906	68	16_14_47_4087720
-0.187500	-0.706055	-0.090820	-0.243732	0.074995	-0.224984	0.738281	0.855469	0.480469	69	16_14_47_4249010
-0.175781	-0.708984	-0.082031	-0.243732	0.074995	-0.224984	0.820313	1.019531	0.457031	70	16_14_47_4410300
-0.181641	-0.708984	-0.087891	-0.243732	0.074995	-0.224984	0.796875	1.031250	0.492188	71	16_14_47_4571590
-0.181641	-0.703125	-0.090820	-0.243732	0.074995	-0.224984	0.726563	0.937500	0.503906	72	16_14_47_4732880
-0.184570	-0.720703	-0.087891	-0.243732	0.065620	-0.224984	0.785156	0.960938	0.503906	73	16_14_47_4894170
-0.178711	-0.708984	-0.084961	-0.243732	0.074995	-0.234358	0.738281	0.867188	0.503906	74	16_14_47_5055460
-0.181641	-0.706055	-0.087891	-0.243732	0.074995	-0.224984	0.726563	0.960938	0.492188	75	16_14_47_5216750
-0.181641	-0.700195	-0.087891	-0.253107	0.074995	-0.224984	0.738281	0.937500	0.480469	76	16_14_47_5378040
-0.169922	-0.706055	-0.082031	-0.243732	0.074995	-0.234358	0.738281	0.996094	0.503906	77	16_14_47_5539330
-0.175781	-0.708984	-0.087891	-0.243732	0.074995	-0.234358	0.738281	0.902344	0.492188	78	16_14_47_5700620
-0.181641	-0.706055	-0.082031	-0.243732	0.065620	-0.234358	0.738281	0.914063	0.480469	79	16_14_47_5861910
-0.169922	-0.703125	-0.090820	-0.243732	0.065620	-0.234358	0.726563	0.855469	0.468750	80	16_14_47_6023200
-0.169922	-0.700195	-0.093750	-0.243732	0.074995	-0.234358	0.726563	0.902344	0.492188	81	16_14_47_6184490
-0.181641	-0.703125	-0.096680	-0.243732	0.074995	-0.234358	0.726563	0.890625	0.480469	82	16_14_47_6345780
-0.184570	-0.708984	-0.084961	-0.243732	0.074995	-0.234358	0.773438	0.890625	0.468750	83	16_14_47_6507070
-0.193359	-0.703125	-0.087891	-0.243732	0.074995	-0.234358	0.726563	0.890625	0.468750	84	16_14_47_6668360
-0.187500	-0.708984	-0.090820	-0.243732	0.074995	-0.224984	0.738281	0.960938	0.480469	85	16_14_47_6829650
-0.178711	-0.708984	-0.090820	-0.253107	0.065620	-0.224984	0.726563	0.878906	0.480469	86	16_14_47_6990940
-0.172852	-0.697266	-0.090820	-0.243732	0.074995	-0.224984	0.738281	0.867188	0.480469	87	16_14_47_7152230
-0.181641	-0.706055	-0.090820	-0.243732	0.065620	-0.234358	0.738281	0.937500	0.480469	88	16_14_47_7313520
-0.181641	-0.703125	-0.090820	-0.243732	0.074995	-0.234358	0.738281	0.984375	0.468750	89	16_14_47_7474810
-0.169922	-0.708984	-0.087891	-0.243732	0.074995	-0.234358	0.738281	0.972656	0.480469	90	16_14_47_7636100
-0.184570	-0.708984	-0.090820	-0.243732	0.074995	-0.234358	0.726563	0.984375	0.492188	91	16_14_47_7797390
-0.187500	-0.706055	-0.087891	-0.243732	0.074995	-0.224984	0.679688	0.937500	0.515625	92	16_14_47_7958680
-0.175781	-0.711914	-0.079102	-0.243732	0.074995	-0.234358	0.691406	0.937500	0.480469	93	16_14_47_8119970
-0.172852	-0.708984	-0.082031	-0.243732	0.074995	-0.234358	0.726563	0.925781	0.445313	94	16_14_47_8281260
-0.181641	-0.711914	-0.090820	-0.253107	0.074995	-0.224984	0.726563	0.890625	0.445313	95	16_14_47_8442550
-0.181641	-0.706055	-0.082031	-0.243732	0.074995	-0.224984	0.726563	0.878906	0.457031	96	16_14_47_8603840
-0.184570	-0.708984	-0.090820	-0.243732	0.074995	-0.224984	1.031250	1.253906	0.527344	97	16_14_47_8765130
-0.184570	-0.703125	-0.093750	-0.253107	0.074995	-0.224984	0.726563	0.949219	0.515625	98	16_14_47_8926420
-0.181641	-0.708984	-0.084961	-0.243732	0.074995	-0.224984	0.738281	0.937500	0.515625	99	16_14_47_9087710
-0.181641	-0.703125	-0.093750	-0.243732	0.074995	-0.234358	0.726563	0.867188	0.503906	100	16_14_47_9249000
-0.175781	-0.708984	-0.084961	-0.253107	0.074995	-0.224984	0.750000	0.937500	0.515625	101	16_14_47_9410290
-0.178711	-0.711914	-0.096680	-0.243732	0.074995	-0.234358	0.738281	0.972656	0.503906	102	16_14_47_9571580
-0.178711	-0.711914	-0.090820	-0.243732	0.065620	-0.224984	0.703125	0.937500	0.503906	103	16_14_47_9732870
-0.187500	-0.711914	-0.084961	-0.243732	0.065620	-0.224984	0.738281	0.843750	0.480469	104	16_14_47_9894160
-0.169922	-0.706055	-0.096680	-0.243732	0.065620	-0.215609	0.738281	0.890625	0.503906	105	16_14_48_0055450
-0.169922	-0.714844	-0.087891	-0.243732	0.074995	-0.224984	0.738281	0.902344	0.539063	106	16_14_48_0216740
-0.175781	-0.711914	-0.084961	-0.243732	0.074995	-0.234358	0.726563	0.949219	0.527344	107	16_14_48_0378030
-0.166992	-0.711914	-0.099609	-0.243732	0.065620	-0.234358	0.738281	0.984375	0.503906	108	16_14_48_0539320
-0.178711	-0.717773	-0.087891	-0.243732	0.065620	-0.224984	0.738281	0.949219	0.480469	109	16_14_48_0700610
-0.172852	-0.714844	-0.087891	-0.243732	0.065620	-0.234358	0.726563	0.855469	0.468750	110	16_14_48_0861900
-0.169922	-0.717773	-0.090820	-0.243732	0.074995	-0.234358	0.726563	1.125000	0.562500	111	16_14_48_1023190
-0.178711	-0.708984	-0.093750	-0.253107	0.074995	-0.234358	0.726563	0.855469	0.503906	112	16_14_48_1184480
-0.178711	-0.711914	-0.090820	-0.243732	0.074995	-0.224984	0.726563	0.902344	0.468750	113	16_14_48_1345770
-0.166992	-0.703125	-0.093750	-0.243732	0.074995	-0.224984	0.738281	0.890625	0.480469	114	16_14_48_1507060
-0.181641	-0.706055	-0.082031	-0.243732	0.074995	-0.234358	0.726563	0.890625	0.503906	115	16_14_48_1668350
-0.178711	-0.706055	-0.084961	-0.243732	0.074995	-0.224984	0.738281	0.925781	0.492188	116	16_14_48_1829640
-0.172852	-0.694336	-0.090820	-0.243732	0.065620	-0.224984	0.820313	1.078125	0.492188	117	16_14_48_1990930
-0.181641	-0.708984	-0.084961	-0.243732	0.074995	-0.234358	0.726563	0.914063	0.468750	118	16_14_48_2152220
-0.187500	-0.711914	-0.093750	-0.243732	0.074995	-0.234358	0.726563	0.855469	0.457031	119	16_14_48_2313510
-0.181641	-0.706055	-0.099609	-0.243732	0.074995	-0.224984	0.726563	0.960938	0.480469	120	16_14_48_2474800
-0.166992	-0.714844	-0.093750	-0.253107	0.065620	-0.234358	0.738281	0.960938	0.492188	121	16_14_48_2636090
-0.181641	-0.700195	-0.090820	-0.243732	0.065620	-0.224984	0.703125	1.066406	0.597656	122	16_14_48_2797380
-0.181641	-0.703125	-0.093750	-0.253107	0.074995	-0.234358	0.726563	0.937500	0.503906	123	16_14_48_2958670
-0.178711	-0.708984	-0.090820	-0.243732	0.074995	-0.234358	0.808594	1.007813	0.503906	124	16_14_48_3119960
-0.181641	-0.706055	-0.082031	-0.243732	0.074995	-0.224984	0.726563	0.878906	0.468750	125	16_14_48_3281250
-0.184570	-0.703125	-0.093750	-0.253107	0.074995	-0.234358	0.738281	0.902344	0.468750	126	16_14_48_3442540
-0.175781	-0.703125	-0.093750	-0.243732	0.065620	-0.234358	0.726563	0.867188	0.503906	127	16_14_48_3603830
-0.178711	-0.706055	-0.087891	-0.243732	0.074995	-0.234358	0.726563	0.937500	0.527344	128	16_14_48_3765120
-0.172852	-0.720703	-0.108398	-0.243732	0.074995	-0.234358	0.738281	0.960938	0.492188	129	16_14_48_3926410
-0.184570	-0.697266	-0.099609	-0.243732	0.065620	-0.224984	0.726563	0.937500	0.445313	130	16_14_48_4087700
-0.166992	-0.708984	-0.087891	-0.243732	0.074995	-0.234358	0.726563	0.914063	0.480469	131	16_14_48_4248990
-0.172852	-0.703125	-0.087891	-0.243732	0.074995	-0.224984	0.726563	0.855469	0.503906	132	16_14_48_4410280
-0.187500	-0.703125	-0.090820	-0.243732	0.074995	-0.224984	0.738281	0.914063	0.468750	133	16_14_48_4571570
-0.181641	-0.711914	-0.084961	-0.243732	0.074995	-0.224984	0.726563	0.902344	0.480469	134	16_14_48_4732860
-0.184570	-0.714844	-0.093750	-0.243732	0.074995	-0.224984	0.738281	0.914063	0.527344	135	16_14_48_4894150
-0.184570	-0.711914	-0.102539	-0.243732	0.074995	-0.234358	0.738281	0.937500	0.503906	136	16_14_48_5055440
-0.178711	-0.717773	-0.096680	-0.243732	0.074995	-0.234358	0.738281	0.914063	0.480469	137	16_14_48_5216730
-0.181641	-0.706055	-0.090820	-0.243732	0.074995	-0.224984	0.726563	0.925781	0.480469	138	16_14_48_5378020
-0.164063	-0.711914	-0.079102	-0.243732	0.074995	-0.224984	1.007813	1.289063	0.515625	139	16_14_48_5539310
-0.181641	-0.706055	-0.090820	-0.243732	0.065620	-0.224984	0.996094	1.476563	0.539063	140	16_14_48_5700600
-0.178711	-0.703125	-0.096680	-0.253107	0.074995	-0.224984	0.726563	0.925781	0.457031	141	16_14_48_5861890
-0.175781	-0.708984	-0.082031	-0.243732	0.074995	-0.224984	0.738281	0.867188	0.468750	142	16_14_48_6023180
-0.181641	-0.706055	-0.090820	-0.253107	0.074995	-0.224984	0.738281	0.914063	0.503906	143	16_14_48_6184470
-0.184570	-0.708984	-0.093750	-0.253107	0.065620	-0.224984	0.726563	0.890625	0.492188	144	16_14_48_6345760
-0.172852	-0.708984	-0.096680	-0.243732	0.074995	-0.224984	0.726563	0.914063	0.503906	145	16_14_48_6507050
-0.172852	-0.714844	-0.090820	-0.253107	0.074995	-0.234358	0.738281	0.867188	0.515625	146	16_14_48_6668340
-0.187500	-0.708984	-0.082031	-0.243732	0.074995	-0.224984	0.726563	0.925781	0.468750	147	16_14_48_6829630
-0.175781	-0.711914	-0.084961	-0.243732	0.065620	-0.224984	0.738281	0.960938	0.468750	148	16_14_48_6990920
-0.181641	-0.708984	-0.090820	-0.243732	0.065620	-0.224984	0.750000	0.902344	0.457031	149	16_14_48_7152210
-0.172852	-0.711914	-0.084961	-0.243732	0.065620	-0.224984	0.738281	0.902344	0.457031	150	16_14_48_7313500
-0.181641	-0.703125	-0.093750	-0.243732	0.065620	-0.224984	0.949219	1.441406	0.503906	151	16_14_48_7474790
-0.175781	-0.711914	-0.090820	-0.243732	0.074995	-0.234358	0.703125	0.925781	0.468750	152	16_14_48_7636080
-0.178711	-0.714844	-0.093750	-0.243732	0.065620	-0.224984	0.726563	0.960938	0.480469	153	16_14_48_7797370
-0.178711	-0.711914	-0.090820	-0.243732	0.065620	-0.224984	0.750000	0.937500	0.492188	154	16_14_48_7958660
-0.178711	-0.703125	-0.087891	-0.243732	0.065620	-0.224984	0.738281	0.960938	0.480469	155	16_14_48_8119950
-0.175781	-0.711914	-0.096680	-0.243732	0.065620	-0.224984	0.726563	0.972656	0.503906	156	16_14_48_8281240
-0.169922	-0.714844	-0.090820	-0.243732	0.065620	-0.224984	0.726563	1.019531	0.480469	157	16_14_48_8442530
-0.169922	-0.700195	-0.090820	-0.243732	0.074995	-0.224984	1.019531	1.359375	0.503906	158	16_14_48_8603820
-0.181641	-0.703125	-0.082031	-0.243732	0.074995	-0.224984	0.761719	0.984375	0.515625	159	16_14_48_8765110
-0.178711	-0.706055	-0.087891	-0.243732	0.074995	-0.224984	0.726563	0.925781	0.492188	160	16_14_48_8926400
-0.184570	-0.706055	-0.096680	-0.243732	0.074995	-0.215609	0.949219	1.406250	0.527344	161	16_14_48_9087690
-0.169922	-0.711914	-0.087891	-0.243732	0.065620	-0.234358	0.726563	0.914063	0.492188	162	16_14_48_9248980
-0.187500	-0.703125	-0.090820	-0.253107	0.065620	-0.224984	0.726563	0.843750	0.480469	163	16_14_48_9410270
-0.181641	-0.708984	-0.090820	-0.243732	0.065620	-0.224984	0.726563	0.914063	0.492188	164	16_14_48_9571560
-0.178711	-0.708984	-0.093750	-0.243732	0.065620	-0.234358	0.738281	0.914063	0.480469	165	16_14_48_9732850
-0.172852	-0.708984	-0.084961	-0.253107	0.065620	-0.234358	0.726563	0.914063	0.503906	166	16_14_48_9894140
-0.181641	-0.708984	-0.087891	-0.243732	0.074995	-0.224984	0.750000	0.937500	0.480469	167	16_14_49_0055430
-0.164063	-0.714844	-0.093750	-0.243732	0.074995	-0.224984	0.726563	0.937500	0.503906	168	16_14_49_0216720
-0.169922	-0.708984	-0.084961	-0.253107	0.065620	-0.234358	0.738281	0.960938	0.503906	169	16_14_49_0378010
-0.181641	-0.706055	-0.084961	-0.243732	0.065620	-0.234358	0.750000	0.960938	0.515625	170	16_14_49_0539300
-0.172852	-0.703125	-0.087891	-0.243732	0.065620	-0.224984	0.738281	0.972656	0.527344	171	16_14_49_0700590
-0.181641	-0.706055	-0.079102	-0.243732	0.074995	-0.224984	0.738281	0.937500	0.468750	172	16_14_49_0861880
-0.172852	-0.706055	-0.084961	-0.253107	0.065620	-0.224984	0.726563	0.949219	0.445313	173	16_14_49_1023170
-0.184570	-0.708984	-0.093750	-0.253107	0.065620	-0.224984	0.738281	0.902344	0.480469	174	16_14_49_1184460
-0.181641	-0.708984	-0.096680	-0.243732	0.074995	-0.224984	0.714844	0.914063	0.480469	175	16_14_49_1345750
-0.181641	-0.703125	-0.084961	-0.253107	0.065620	-0.224984	0.726563	0.914063	0.492188	176	16_14_49_1507040
-0.181641	-0.711914	-0.084961	-0.243732	0.074995	-0.224984	0.726563	0.867188	0.468750	177	16_14_49_1668330
-0.178711	-0.706055	-0.082031	-0.243732	0.074995	-0.224984	0.726563	0.867188	0.410156	178	16_14_49_1829620
-0.169922	-0.700195	-0.087891	-0.253107	0.065620	-0.234358	0.726563	0.855469	0.433594	179	16_14_49_1990910
-0.175781	-0.700195	-0.087891	-0.253107	0.074995	-0.234358	0.726563	0.855469	0.503906	180	16_14_49_2152200
-0.172852	-0.703125	-0.093750	-0.234358	0.074995	-0.234358	0.996094	1.125000	0.550781	181	16_14_49_2313490
-0.187500	-0.703125	-0.087891	-0.243732	0.074995	-0.234358	0.726563	0.878906	0.503906	182	16_14_49_2474780
-0.184570	-0.708984	-0.082031	-0.243732	0.074995	-0.234358	0.773438	0.937500	0.515625	183	16_14_49_2636070
-0.181641	-0.700195	-0.087891	-0.243732	0.065620	-0.224984	0.808594	1.218750	0.562500	184	16_14_49_2797360
-0.184570	-0.700195	-0.087891	-0.243732	0.074995	-0.224984	0.726563	0.890625	0.480469	185	16_14_49_2958650
-0.184570	-0.703125	-0.096680	-0.243732	0.074995	-0.224984	0.750000	0.937500	0.480469	186	16_14_49_3119940
-0.184570	-0.706055	-0.087891	-0.243732	0.074995	-0.224984	0.738281	0.878906	0.503906	187	16_14_49_3281230
-0.178711	-0.708984	-0.087891	-0.253107	0.074995	-0.224984	0.714844	0.937500	0.480469	188	16_14_49_3442520
-0.184570	-0.717773	-0.084961	-0.243732	0.074995	-0.234358	0.726563	0.855469	0.468750	189	16_14_49_3603810
-0.164063	-0.708984	-0.096680	-0.243732	0.065620	-0.224984	0.726563	0.867188	0.480469	190	16_14_49_3765100
-0.175781	-0.714844	-0.090820	-0.243732	0.074995	-0.224984	0.750000	0.984375	0.503906	191	16_14_49_3926390
-0.181641	-0.708984	-0.093750	-0.243732	0.074995	-0.234358	0.726563	1.019531	0.515625	192	16_14_49_4087680
-0.187500	-0.708984	-0.096680	-0.243732	0.074995	-0.224984	0.726563	0.937500	0.503906	193	16_14_49_4248970
-0.181641	-0.714844	-0.084961	-0.253107	0.074995	-0.224984	0.726563	0.902344	0.503906	194	16_14_49_4410260
-0.181641	-0.708984	-0.079102	-0.243732	0.074995	-0.224984	0.726563	0.914063	0.492188	195	16_14_49_4571550
-0.158203	-0.708984	-0.084961	-0.243732	0.065620	-0.224984	0.738281	0.855469	0.527344	196	16_14_49_4732840
-0.178711	-0.706055	-0.084961	-0.243732	0.074995	-0.234358	0.738281	0.914063	0.515625	197	16_14_49_4894130
-0.181641	-0.706055	-0.087891	-0.243732	0.074995	-0.234358	0.703125	0.890625	0.492188	198	16_14_49_5055420
-0.184570	-0.720703	-0.076172	-0.243732	0.084369	-0.234358	0.726563	0.937500	0.468750	199	16_14_49_5216710
-0.190430	-0.711914	-0.084961	-0.243732	0.074995	-0.234358	0.726563	0.984375	0.457031	200	16_14_49_5378000
-0.187500	-0.711914	-0.082031	-0.243732	0.074995	-0.234358	0.726563	0.878906	0.457031	201	16_14_49_5539290
-0.169922	-0.697266	-0.090820	-0.243732	0.074995	-0.224984	0.726563	0.902344	0.480469	202	16_14_49_5700580
-0.181641	-0.708984	-0.096680	-0.253107	0.074995	-0.224984	0.738281	0.972656	0.492188	203	16_14_49_5861870
-0.181641	-0.711914	-0.084961	-0.243732	0.074995	-0.234358	0.726563	0.914063	0.503906	204	16_14_49_6023160
-0.178711	-0.708984	-0.084961	-0.243732	0.074995	-0.234358	0.726563	0.937500	0.480469	205	16_14_49_6184450
-0.181641	-0.720703	-0.082031	-0.243732	0.074995	-0.224984	0.738281	0.890625	0.515625	206	16_14_49_6345740
-0.181641	-0.706055	-0.093750	-0.243732	0.084369	-0.224984	0.738281	0.914063	0.527344	207	16_14_49_6507030
-0.178711	-0.708984	-0.084961	-0.243732	0.084369	-0.234358	0.726563	0.937500	0.492188	208	16_14_49_6668320
-0.175781	-0.708984	-0.090820	-0.243732	0.074995	-0.234358	0.843750	1.031250	0.503906	209	16_14_49_6829610
-0.181641	-0.708984	-0.090820	-0.243732	0.074995	-0.234358	0.726563	0.914063	0.480469	210	16_14_49_6990900
-0.178711	-0.708984	-0.090820	-0.243732	0.074995	-0.234358	0.726563	0.890625	0.457031	211	16_14_49_7152190
-0.175781	-0.720703	-0.090820	-0.243732	0.065620	-0.224984	0.726563	0.972656	0.480469	212	16_14_49_7313480
-0.175781	-0.714844	-0.087891	-0.243732	0.074995	-0.224984	0.960938	1.359375	0.527344	213	16_14_49_7474770
-0.181641	-0.720703	-0.084961	-0.243732	0.074995	-0.224984	0.738281	0.890625	0.468750	214	16_14_49_7636060
-0.172852	-0.697266	-0.082031	-0.243732	0.074995	-0.234358	0.738281	0.878906	0.503906	215	16_14_49_7797350
-0.181641	-0.708984	-0.093750	-0.243732	0.074995	-0.234358	0.726563	0.902344	0.468750	216	16_14_49_7958640
-0.184570	-0.717773	-0.079102	-0.243732	0.074995	-0.234358	0.738281	0.890625	0.445313	217	16_14_49_8119930
-0.187500	-0.711914	-0.087891	-0.243732	0.084369	-0.224984	0.726563	0.878906	0.468750	218	16_14_49_8281220
-0.181641	-0.703125	-0.082031	-0.253107	0.074995	-0.224984	0.738281	0.914063	0.480469	219	16_14_49_8442510
-0.175781	-0.706055	-0.090820	-0.243732	0.074995	-0.234358	0.738281	0.914063	0.468750	220	16_14_49_8603800
-0.181641	-0.711914	-0.090820	-0.243732	0.074995	-0.224984	0.949219	1.101563	0.515625	221	16_14_49_8765090
-0.178711	-0.711914	-0.096680	-0.243732	0.074995	-0.234358	0.750000	0.937500	0.480469	222	16_14_49_8926380
-0.181641	-0.703125	-0.084961	-0.243732	0.074995	-0.234358	0.726563	0.937500	0.492188	223	16_14_49_9087670
-0.193359	-0.711914	-0.090820	-0.243732	0.074995	-0.234358	0.714844	0.902344	0.503906	224	16_14_49_9248960
-0.172852	-0.708984	-0.084961	-0.243732	0.074995	-0.234358	0.726563	0.937500	0.503906	225	16_14_49_9410250
-0.178711	-0.720703	-0.090820	-0.243732	0.074995	-0.234358	0.726563	0.890625	0.492188	226	16_14_49_9571540
-0.193359	-0.714844	-0.087891	-0.234358	0.074995	-0.234358	0.738281	0.914063	0.527344	227	16_14_49_9732830
-0.184570	-0.708984	-0.090820	-0.243732	0.065620	-0.224984	0.750000	0.960938	0.515625	228	16_14_49_9894120
-0.175781	-0.706055	-0.087891	-0.243732	0.074995	-0.224984	0.738281	0.949219	0.492188	229	16_14_50_0055410
-0.178711	-0.708984	-0.090820	-0.243732	0.074995	-0.224984	0.878906	1.089844	0.527344	230	16_14_50_0216700
-0.178711	-0.703125	-0.084961	-0.243732	0.084369	-0.224984	0.726563	0.972656	0.503906	231	16_14_50_0377990
-0.181641	-0.703125	-0.087891	-0.243732	0.074995	-0.224984	0.726563	0.949219	0.468750	232	16_14_50_0539280
-0.175781	-0.717773	-0.090820	-0.243732	0.074995	-0.234358	0.738281	0.867188	0.468750	233	16_14_50_0700570
-0.181641	-0.706055	-0.087891	-0.243732	0.084369	-0.234358	0.925781	1.359375	0.539063	234	16_14_50_0861860
-0.169922	-0.703125	-0.087891	-0.243732	0.074995	-0.224984	0.726563	0.937500	0.468750	235	16_14_50_1023150
-0.184570	-0.708984	-0.090820	-0.243732	0.074995	-0.224984	0.691406	0.937500	0.457031	236	16_14_50_1184440
-0.187500	-0.697266	-0.093750	-0.243732	0.065620	-0.234358	0.738281	0.972656	0.457031	237	16_14_50_1345730
-0.193359	-0.706055	-0.082031	-0.243732	0.074995	-0.224984	0.726563	0.937500	0.480469	238	16_14_50_1507020
-0.175781	-0.708984	-0.084961	-0.243732	0.074995	-0.224984	0.703125	0.925781	0.527344	239	16_14_50_1668310
-0.172852	-0.708984	-0.087891	-0.253107	0.074995	-0.224984	0.738281	0.960938	0.492188	240	16_14_50_1829600
-0.172852	-0.714844	-0.084961	-0.243732	0.074995	-0.224984	0.738281	1.007813	0.468750	241	16_14_50_1990890
-0.178711	-0.703125	-0.090820	-0.243732	0.074995	-0.224984	0.726563	0.972656	0.503906	242	16_14_50_2152180
-0.178711	-0.703125	-0.090820	-0.243732	0.074995	-0.234358	0.726563	0.972656	0.492188	243	16_14_50_2313470
-0.184570	-0.703125	-0.090820	-0.253107	0.074995	-0.234358	0.726563	0.902344	0.468750	244	16_14_50_2474760
-0.181641	-0.711914	-0.090820	-0.243732	0.074995	-0.234358	0.726563	0.890625	0.445313	245	16_14_50_2636050
-0.184570	-0.714844	-0.090820	-0.243732	0.074995	-0.224984	0.726563	0.902344	0.457031	246	16_14_50_2797340
-0.169922	-0.706055	-0.093750	-0.243732	0.074995	-0.234358	0.726563	0.890625	0.468750	247	16_14_50_2958630
-0.172852	-0.708984	-0.084961	-0.243732	0.074995	-0.234358	0.750000	0.914063	0.445313	248	16_14_50_3119920
-0.184570	-0.711914	-0.087891	-0.243732	0.074995	-0.224984	0.726563	0.925781	0.457031	249	16_14_50_3281210
-0.169922	-0.703125	-0.087891	-0.243732	0.074995	-0.234358	0.726563	0.960938	0.480469	250	16_14_50_3442500
-0.178711	-0.703125	-0.093750	-0.243732	0.074995	-0.224984	0.703125	0.937500	0.468750	251	16_14_50_3603790
-0.178711	-0.703125	-0.093750	-0.243732	0.074995	-0.224984	0.738281	0.972656	0.457031	252	16_14_50_3765080
-0.169922	-0.711914	-0.096680	-0.243732	0.074995	-0.224984	0.726563	0.937500	0.480469	253	16_14_50_3926370
-0.172852	-0.703125	-0.093750	-0.253107	0.074995	-0.234358	0.726563	0.960938	0.503906	254	16_14_50_4087660
-0.181641	-0.706055	-0.082031	-0.243732	0.074995	-0.234358	0.738281	1.007813	0.480469	255	16_14_50_4248950
-0.181641	-0.711914	-0.096680	-0.243732	0.074995	-0.224984	0.738281	0.914063	0.468750	256	16_14_50_4410240
-0.181641	-0.708984	-0.096680	-0.243732	0.065620	-0.224984	0.738281	0.855469	0.503906	257	16_14_50_4571530
-0.172852	-0.711914	-0.099609	-0.253107	0.074995	-0.224984	0.691406	0.867188	0.492188	258	16_14_50_4732820
-0.181641	-0.706055	-0.090820	-0.243732	0.074995	-0.224984	0.726563	0.902344	0.503906	259	16_14_50_4894110
-0.181641	-0.703125	-0.087891	-0.243732	0.074995	-0.234358	0.726563	0.960938	0.550781	260	16_14_50_5055400
-0.184570	-0.714844	-0.090820	-0.243732	0.074995	-0.224984	0.726563	0.972656	0.539063	261	16_14_50_5216690
-0.190430	-0.714844	-0.093750	-0.243732	0.074995	-0.234358	0.726563	0.925781	0.527344	262	16_14_50_5377980
-0.184570	-0.703125	-0.090820	-0.243732	0.065620	-0.224984	0.738281	0.925781	0.515625	263	16_14_50_5539270
-0.172852	-0.711914	-0.090820	-0.243732	0.074995	-0.224984	0.726563	0.855469	0.480469	264	16_14_50_5700560
-0.178711	-0.706055	-0.090820	-0.243732	0.074995	-0.224984	0.738281	0.785156	0.480469	265	16_14_50_5861850
-0.175781	-0.703125	-0.093750	-0.243732	0.074995	-0.234358	0.738281	0.937500	0.492188	266	16_14_50_6023140
-0.181641	-0.714844	-0.090820	-0.243732	0.074995	-0.224984	0.808594	1.101563	0.621094	267	16_14_50_6184430
-0.181641	-0.711914	-0.096680	-0.243732	0.074995	-0.234358	0.738281	0.914063	0.527344	268	16_14_50_6345720
-0.181641	-0.714844	-0.093750	-0.243732	0.065620	-0.234358	0.726563	0.960938	0.503906	269	16_14_50_6507010
-0.181641	-0.714844	-0.090820	-0.243732	0.074995	-0.224984	0.714844	0.902344	0.445313	270	16_14_50_6668300
-0.175781	-0.708984	-0.079102	-0.243732	0.065620	-0.224984	0.726563	0.902344	0.480469	271	16_14_50_6829590
-0.172852	-0.706055	-0.090820	-0.243732	0.074995	-0.224984	0.738281	0.902344	0.503906	272	16_14_50_6990880
-0.172852	-0.720703	-0.090820	-0.243732	0.074995	-0.234358	0.714844	0.890625	0.480469	273	16_14_50_7152170
-0.181641	-0.714844	-0.090820	-0.243732	0.074995	-0.224984	1.042969	1.324219	0.562500	274	16_14_50_7313460
-0.164063	-0.714844	-0.096680	-0.243732	0.074995	-0.224984	0.726563	0.843750	0.503906	275	16_14_50_7474750
-0.187500	-0.714844	-0.093750	-0.253107	0.074995	-0.224984	0.738281	0.925781	0.492188	276	16_14_50_7636040
-0.178711	-0.703125	-0.096680	-0.243732	0.074995	-0.224984	0.738281	1.207031	0.503906	277	16_14_50_7797330
-0.178711	-0.711914	-0.093750	-0.243732	0.074995	-0.224984	0.738281	0.867188	0.457031	278	16_14_50_7958620
-0.184570	-0.711914	-0.084961	-0.243732	0.074995	-0.234358	0.726563	0.867188	0.492188	279	16_14_50_8119910
-0.172852	-0.703125	-0.099609	-0.243732	0.074995	-0.234358	0.726563	0.902344	0.503906	280	16_14_50_8281200
-0.187500	-0.708984	-0.090820	-0.253107	0.074995	-0.234358	0.726563	0.855469	0.503906	281	16_14_50_8442490
-0.193359	-0.708984	-0.096680	-0.243732	0.065620	-0.224984	0.691406	0.914063	0.492188	282	16_14_50_8603780
-0.175781	-0.708984	-0.099609	-0.243732	0.065620	-0.224984	0.726563	0.984375	0.457031	283	16_14_50_8765070
-0.175781	-0.717773	-0.090820	-0.243732	0.065620	-0.234358	0.738281	0.914063	0.457031	284	16_14_50_8926360
-0.178711	-0.703125	-0.093750	-0.243732	0.074995	-0.224984	0.738281	0.902344	0.480469	285	16_14_50_9087650
-0.184570	-0.708984	-0.087891	-0.243732	0.074995	-0.224984	0.925781	1.406250	0.574219	286	16_14_50_9248940
-0.184570	-0.708984	-0.084961	-0.253107	0.074995	-0.224984	0.785156	1.125000	0.574219	287	16_14_50_9410230
-0.178711	-0.708984	-0.082031	-0.253107	0.065620	-0.224984	0.726563	1.031250	0.527344	288	16_14_50_9571520
-0.178711	-0.700195	-0.090820	-0.243732	0.065620	-0.224984	0.738281	1.007813	0.503906	289	16_14_50_9732810
-0.187500	-0.708984	-0.084961	-0.253107	0.074995	-0.234358	0.726563	0.925781	0.480469	290	16_14_50_9894100
-0.169922	-0.708984	-0.084961	-0.243732	0.074995	-0.234358	0.726563	0.902344	0.492188	291	16_14_51_0055390
-0.172852	-0.708984	-0.090820	-0.243732	0.074995	-0.224984	0.738281	0.949219	0.445313	292	16_14_51_0216680
-0.172852	-0.711914	-0.087891	-0.243732	0.074995	-0.224984	0.714844	0.890625	0.445313	293	16_14_51_0377970
-0.178711	-0.700195	-0.093750	-0.253107	0.065620	-0.224984	0.738281	0.914063	0.457031	294	16_14_51_0539260
-0.175781	-0.703125	-0.090820	-0.253107	0.056246	-0.224984	0.703125	0.820313	0.480469	295	16_14_51_0700550
-0.181641	-0.708984	-0.090820	-0.253107	0.065620	-0.224984	0.726563	0.820313	0.457031	296	16_14_51_0861840
-0.166992	-0.706055	-0.082031	-0.253107	0.056246	-0.234358	0.726563	0.914063	0.492188	297	16_14_51_1023130
-0.166992	-0.720703	-0.084961	-0.243732	0.056246	-0.234358	0.726563	0.867188	0.515625	298	16_14_51_1184420
-0.166992	-0.714844	-0.090820	-0.234358	0.056246	-0.243732	0.726563	0.972656	0.468750	299	16_14_51_1345710
-0.178711	-0.717773	-0.090820	-0.234358	0.056246	-0.243732	0.738281	0.996094	0.480469	300	16_14_51_1507000
-0.187500	-0.729492	-0.099609	-0.234358	0.056246	-0.234358	0.738281	0.914063	0.527344	301	16_14_51_1668290
-0.193359	-0.714844	-0.096680	-0.253107	0.065620	-0.234358	0.738281	0.914063	0.480469	302	16_14_51_1829580
-0.190430	-0.706055	-0.102539	-0.262481	0.056246	-0.224984	0.750000	0.914063	0.445313	303	16_14_51_1990870
-0.172852	-0.708984	-0.096680	-0.253107	0.056246	-0.224984	0.972656	1.148438	0.527344	304	16_14_51_2152160
-0.184570	-0.708984	-0.108398	-0.262481	0.065620	-0.215609	0.726563	0.925781	0.503906	305	16_14_51_2313450
-0.181641	-0.708984	-0.099609	-0.262481	0.074995	-0.224984	0.750000	0.925781	0.492188	306	16_14_51_2474740
-0.181641	-0.691406	-0.090820	-0.262481	0.074995	-0.224984	0.738281	0.902344	0.445313	307	16_14_51_2636030
-0.196289	-0.685547	-0.093750	-0.262481	0.084369	-0.224984	0.726563	0.960938	0.457031	308	16_14_51_2797320
-0.187500	-0.694336	-0.087891	-0.262481	0.074995	-0.224984	0.714844	0.996094	0.515625	309	16_14_51_2958610
-0.193359	-0.703125	-0.090820	-0.271855	0.074995	-0.215609	0.726563	0.972656	0.492188	310	16_14_51_3119900
-0.193359	-0.700195	-0.090820	-0.262481	0.065620	-0.215609	0.726563	0.949219	0.468750	311	16_14_51_3281190
-0.190430	-0.697266	-0.087891	-0.262481	0.065620	-0.215609	0.726563	0.972656	0.480469	312	16_14_51_3442480
-0.193359	-0.714844	-0.084961	-0.262481	0.065620	-0.196861	0.738281	0.890625	0.480469	313	16_14_51_3603770
-0.184570	-0.703125	-0.087891	-0.262481	0.056246	-0.206235	0.750000	0.937500	0.468750	314	16_14_51_3765060
-0.172852	-0.697266	-0.084961	-0.262481	0.056246	-0.196861	0.726563	0.925781	0.457031	315	16_14_51_3926350
-0.169922	-0.706055	-0.079102	-0.262481	0.065620	-0.196861	0.726563	0.878906	0.445313	316	16_14_51_4087640
-0.169922	-0.703125	-0.084961	-0.262481	0.065620	-0.206235	0.750000	0.960938	0.457031	317	16_14_51_4248930
-0.161133	-0.708984	-0.070313	-0.253107	0.065620	-0.206235	0.726563	0.972656	0.480469	318	16_14_51_4410220
-0.164063	-0.703125	-0.082031	-0.262481	0.074995	-0.215609	0.714844	0.914063	0.503906	319	16_14_51_4571510
-0.164063	-0.706055	-0.073242	-0.262481	0.084369	-0.215609	0.785156	0.960938	0.515625	320	16_14_51_4732800
-0.158203	-0.714844	-0.076172	-0.262481	0.074995	-0.215609	0.738281	0.937500	0.492188	321	16_14_51_4894090
-0.187500	-0.714844	-0.082031	-0.262481	0.074995	-0.215609	0.738281	0.855469	0.492188	322	16_14_51_5055380
-0.164063	-0.708984	-0.079102	-0.262481	0.065620	-0.215609	0.726563	0.937500	0.492188	323	16_14_51_5216670
-0.155273	-0.708984	-0.073242	-0.262481	0.065620	-0.215609	0.726563	0.914063	0.468750	324	16_14_51_5377960
-0.158203	-0.714844	-0.070313	-0.262481	0.065620	-0.215609	0.726563	0.902344	0.457031	325	16_14_51_5539250
-0.158203	-0.708984	-0.073242	-0.262481	0.074995	-0.224984	0.726563	0.902344	0.503906	326	16_14_51_5700540
-0.166992	-0.708984	-0.073242	-0.262481	0.074995	-0.224984	0.726563	0.949219	0.503906	327	16_14_51_5861830
-0.161133	-0.711914	-0.070313	-0.253107	0.065620	-0.215609	0.714844	0.937500	0.492188	328	16_14_51_6023120
-0.164063	-0.714844	-0.073242	-0.262481	0.065620	-0.215609	0.726563	0.832031	0.480469	329	16_14_51_6184410
-0.166992	-0.706055	-0.073242	-0.262481	0.065620	-0.224984	0.726563	0.820313	0.480469	330	16_14_51_6345700
-0.169922	-0.708984	-0.073242	-0.243732	0.056246	-0.215609	0.714844	0.949219	0.515625	331	16_14_51_6506990
-0.155273	-0.714844	-0.073242	-0.253107	0.056246	-0.224984	0.691406	0.937500	0.480469	332	16_14_51_6668280
-0.164063	-0.708984	-0.061523	-0.243732	0.065620	-0.224984	0.832031	1.054688	0.457031	333	16_14_51_6829570
-0.172852	-0.708984	-0.073242	-0.243732	0.065620	-0.224984	0.726563	0.902344	0.480469	334	16_14_51_6990860
-0.169922	-0.703125	-0.073242	-0.243732	0.056246	-0.224984	0.726563	0.949219	0.480469	335	16_14_51_7152150
-0.169922	-0.697266	-0.070313	-0.243732	0.065620	-0.224984	0.726563	0.937500	0.492188	336	16_14_51_7313440
-0.169922	-0.711914	-0.073242	-0.243732	0.074995	-0.224984	0.726563	0.902344	0.480469	337	16_14_51_7474730
-0.161133	-0.708984	-0.070313	-0.243732	0.065620	-0.224984	0.902344	1.242188	0.550781	338	16_14_51_7636020
-0.169922	-0.700195	-0.073242	-0.243732	0.065620	-0.215609	0.773438	1.324219	0.515625	339	16_14_51_7797310
-0.166992	-0.708984	-0.070313	-0.243732	0.065620	-0.215609	0.726563	0.984375	0.480469	340	16_14_51_7958600
-0.161133	-0.714844	-0.073242	-0.243732	0.074995	-0.224984	0.785156	0.996094	0.574219	341	16_14_51_8119890
-0.172852	-0.708984	-0.079102	-0.243732	0.074995	-0.224984	0.726563	0.820313	0.503906	342	16_14_51_8281180
-0.166992	-0.711914	-0.076172	-0.243732	0.065620	-0.224984	0.714844	0.878906	0.492188	343	16_14_51_8442470
-0.169922	-0.714844	-0.073242	-0.243732	0.065620	-0.215609	0.726563	0.914063	0.457031	344	16_14_51_8603760
-0.158203	-0.717773	-0.076172	-0.243732	0.065620	-0.215609	0.714844	0.914063	0.468750	345	16_14_51_8765050
-0.164063	-0.711914	-0.067383	-0.243732	0.065620	-0.215609	0.726563	0.890625	0.503906	346	16_14_51_8926340
-0.161133	-0.711914	-0.067383	-0.243732	0.074995	-0.215609	0.726563	0.914063	0.515625	347	16_14_51_9087630
-0.164063	-0.714844	-0.067383	-0.253107	0.074995	-0.224984	0.726563	0.949219	0.527344	348	16_14_51_9248920
-0.164063	-0.708984	-0.082031	-0.243732	0.074995	-0.234358	0.714844	0.925781	0.492188	349	16_14_51_9410210
-0.164063	-0.706055	-0.084961	-0.243732	0.074995	-0.234358	0.761719	0.925781	0.503906	350	16_14_51_9571500
-0.181641	-0.711914	-0.073242	-0.243732	0.074995	-0.234358	0.726563	0.890625	0.480469	351	16_14_51_9732790
-0.172852	-0.717773	-0.070313	-0.243732	0.074995	-0.224984	0.714844	0.972656	0.503906	352	16_14_51_9894080
-0.164063	-0.711914	-0.079102	-0.243732	0.074995	-0.234358	0.738281	0.960938	0.480469	353	16_14_52_0055370
-0.164063	-0.706055	-0.073242	-0.243732	0.074995	-0.224984	0.714844	0.867188	0.457031	354	16_14_52_0216660
-0.166992	-0.708984	-0.073242	-0.243732	0.074995	-0.234358	0.714844	0.902344	0.503906	355	16_14_52_0377950
-0.172852	-0.711914	-0.055664	-0.243732	0.074995	-0.234358	0.714844	0.890625	0.503906	356	16_14_52_0539240
-0.158203	-0.708984	-0.082031	-0.243732	0.074995	-0.224984	1.031250	1.359375	0.527344	357	16_14_52_0700530
-0.169922	-0.720703	-0.076172	-0.243732	0.074995	-0.234358	0.738281	1.042969	0.468750	358	16_14_52_0861820
-0.172852	-0.714844	-0.073242	-0.243732	0.074995	-0.234358	0.703125	1.007813	0.421875	359	16_14_52_1023110
-0.161133	-0.711914	-0.073242	-0.243732	0.074995	-0.234358	0.726563	0.960938	0.445313	360	16_14_52_1184400
-0.164063	-0.711914	-0.073242	-0.243732	0.074995	-0.234358	0.726563	0.878906	0.445313	361	16_14_52_1345690
-0.161133	-0.711914	-0.079102	-0.243732	0.074995	-0.234358	0.785156	1.031250	0.527344	362	16_14_52_1506980
-0.178711	-0.706055	-0.079102	-0.243732	0.074995	-0.224984	0.820313	1.101563	0.539063	363	16_14_52_1668270
-0.169922	-0.714844	-0.067383	-0.243732	0.074995	-0.234358	0.726563	0.984375	0.480469	364	16_14_52_1829560
-0.166992	-0.711914	-0.076172	-0.243732	0.074995	-0.234358	0.726563	0.890625	0.457031	365	16_14_52_1990850
-0.164063	-0.708984	-0.076172	-0.243732	0.074995	-0.234358	0.714844	0.914063	0.445313	366	16_14_52_2152140
-0.166992	-0.708984	-0.073242	-0.243732	0.074995	-0.234358	0.691406	0.878906	0.457031	367	16_14_52_2313430
-0.166992	-0.714844	-0.073242	-0.243732	0.084369	-0.234358	0.960938	1.101563	0.515625	368	16_14_52_2474720
-0.181641	-0.708984	-0.082031	-0.243732	0.074995	-0.234358	0.726563	0.902344	0.457031	369	16_14_52_2636010
-0.172852	-0.708984	-0.076172	-0.243732	0.074995	-0.234358	0.726563	0.984375	0.468750	370	16_14_52_2797300
-0.164063	-0.697266	-0.070313	-0.243732	0.084369	-0.234358	0.750000	0.960938	0.503906	371	16_14_52_2958590
-0.169922	-0.717773	-0.084961	-0.243732	0.074995	-0.234358	0.738281	0.914063	0.492188	372	16_14_52_3119880
-0.164063	-0.726563	-0.076172	-0.243732	0.084369	-0.234358	0.726563	0.937500	0.480469	373	16_14_52_3281170
-0.178711	-0.723633	-0.079102	-0.243732	0.084369	-0.234358	0.738281	0.984375	0.492188	374	16_14_52_3442460
-0.172852	-0.714844	-0.090820	-0.243732	0.074995	-0.234358	0.714844	1.007813	0.480469	375	16_14_52_3603750
-0.172852	-0.708984	-0.087891	-0.243732	0.074995	-0.234358	0.738281	0.996094	0.457031	376	16_14_52_3765040
-0.169922	-0.708984	-0.076172	-0.243732	0.074995	-0.234358	0.726563	0.902344	0.480469	377	16_14_52_3926330
-0.172852	-0.708984	-0.070313	-0.243732	0.074995	-0.234358	1.007813	1.230469	0.539063	378	16_14_52_4087620
-0.166992	-0.720703	-0.076172	-0.243732	0.074995	-0.234358	0.726563	0.937500	0.480469	379	16_14_52_4248910
-0.164063	-0.714844	-0.076172	-0.243732	0.074995	-0.234358	0.726563	0.949219	0.445313	380	16_14_52_4410200
-0.161133	-0.717773	-0.073242	-0.243732	0.074995	-0.234358	0.714844	0.914063	0.445313	381	16_14_52_4571490
-0.164063	-0.720703	-0.082031	-0.243732	0.074995	-0.234358	0.714844	0.949219	0.457031	382	16_14_52_4732780
-0.172852	-0.714844	-0.076172	-0.243732	0.074995	-0.224984	0.726563	0.984375	0.480469	383	16_14_52_4894070
-0.169922	-0.703125	-0.064453	-0.243732	0.074995	-0.224984	0.714844	0.960938	0.527344	384	16_14_52_5055360
-0.164063	-0.723633	-0.073242	-0.243732	0.074995	-0.234358	0.726563	0.972656	0.492188	385	16_14_52_5216650
-0.181641	-0.714844	-0.076172	-0.243732	0.084369	-0.234358	0.738281	0.937500	0.503906	386	16_14_52_5377940
-0.169922	-0.708984	-0.073242	-0.243732	0.074995	-0.224984	0.738281	0.914063	0.480469	387	16_14_52_5539230
-0.175781	-0.720703	-0.076172	-0.243732	0.074995	-0.234358	0.738281	0.914063	0.468750	388	16_14_52_5700520
-0.166992	-0.711914	-0.079102	-0.243732	0.084369	-0.234358	0.714844	0.914063	0.457031	389	16_14_52_5861810
-0.166992	-0.706055	-0.084961	-0.243732	0.074995	-0.234358	0.738281	0.960938	0.445313	390	16_14_52_6023100
-0.178711	-0.720703	-0.070313	-0.243732	0.084369	-0.234358	0.773438	1.359375	0.492188	391	16_14_52_6184390
-0.172852	-0.708984	-0.084961	-0.243732	0.084369	-0.234358	0.738281	0.878906	0.457031	392	16_14_52_6345680
-0.175781	-0.703125	-0.070313	-0.243732	0.084369	-0.234358	0.738281	0.855469	0.468750	393	16_14_52_6506970
-0.175781	-0.714844	-0.084961	-0.243732	0.074995	-0.224984	0.785156	0.984375	0.468750	394	16_14_52_6668260
-0.181641	-0.720703	-0.084961	-0.243732	0.084369	-0.234358	0.726563	0.984375	0.503906	395	16_14_52_6829550
-0.175781	-0.706055	-0.079102	-0.243732	0.074995	-0.234358	0.714844	0.925781	0.503906	396	16_14_52_6990840
-0.164063	-0.700195	-0.079102	-0.243732	0.074995	-0.224984	0.714844	0.843750	0.480469	397	16_14_52_7152130
-0.169922	-0.711914	-0.079102	-0.243732	0.074995	-0.234358	0.726563	0.914063	0.468750	398	16_14_52_7313420
-0.172852	-0.711914	-0.082031	-0.243732	0.074995	-0.234358	0.726563	0.937500	0.457031	399	16_14_52_7474710
-0.166992	-0.708984	-0.076172	-0.243732	0.074995	-0.234358	0.714844	0.890625	0.492188	400	16_14_52_7636000
-0.172852	-0.714844	-0.084961	-0.243732	0.074995	-0.224984	0.738281	0.878906	0.527344	401	16_14_52_7797290
-0.172852	-0.703125	-0.076172	-0.243732	0.074995	-0.224984	0.726563	0.867188	0.515625	402	16_14_52_7958580
-0.175781	-0.708984	-0.073242	-0.243732	0.074995	-0.234358	0.785156	0.996094	0.492188	403	16_14_52_8119870
-0.169922	-0.706055	-0.076172	-0.243732	0.074995	-0.224984	0.726563	0.914063	0.480469	404	16_14_52_8281160
-0.169922	-0.708984	-0.084961	-0.243732	0.065620	-0.234358	0.738281	0.972656	0.492188	405	16_14_52_8442450
-0.172852	-0.714844	-0.079102	-0.243732	0.074995	-0.224984	0.738281	0.960938	0.445313	406	16_14_52_8603740
-0.169922	-0.703125	-0.073242	-0.243732	0.074995	-0.234358	0.738281	0.878906	0.480469	407	16_14_52_8765030
-0.181641	-0.708984	-0.076172	-0.243732	0.074995	-0.224984	0.726563	0.890625	0.503906	408	16_14_52_8926320
-0.169922	-0.711914	-0.082031	-0.243732	0.074995	-0.224984	0.726563	0.972656	0.468750	409	16_14_52_9087610
-0.172852	-0.703125	-0.082031	-0.243732	0.074995	-0.234358	0.726563	0.937500	0.445313	410	16_14_52_9248900
-0.169922	-0.708984	-0.090820	-0.243732	0.074995	-0.224984	0.726563	0.914063	0.468750	411	16_14_52_9410190
-0.178711	-0.708984	-0.084961	-0.243732	0.074995	-0.224984	0.738281	1.335938	0.550781	412	16_14_52_9571480
-0.178711	-0.708984	-0.090820	-0.243732	0.074995	-0.224984	0.738281	0.902344	0.515625	413	16_14_52_9732770
-0.169922	-0.720703	-0.084961	-0.243732	0.074995	-0.224984	0.714844	0.878906	0.515625	414	16_14_52_9894060
-0.169922	-0.723633	-0.084961	-0.243732	0.074995	-0.224984	0.738281	0.890625	0.480469	415	16_14_53_0055350
-0.172852	-0.708984	-0.087891	-0.243732	0.074995	-0.234358	0.726563	0.855469	0.421875	416	16_14_53_0216640
-0.175781	-0.708984	-0.076172	-0.243732	0.074995	-0.224984	0.726563	0.820313	0.433594	417	16_14_53_0377930
-0.166992	-0.700195	-0.079102	-0.243732	0.074995	-0.234358	0.750000	0.878906	0.480469	418	16_14_53_0539220
-0.172852	-0.720703	-0.079102	-0.243732	0.074995	-0.234358	0.726563	0.972656	0.468750	419	16_14_53_0700510
-0.172852	-0.720703	-0.079102	-0.243732	0.074995	-0.234358	0.738281	0.996094	0.445313	420	16_14_53_0861800
-0.166992	-0.714844	-0.084961	-0.243732	0.074995	-0.224984	0.714844	0.960938	0.492188	421	16_14_53_1023090
-0.169922	-0.708984	-0.079102	-0.243732	0.084369	-0.224984	0.832031	1.335938	0.597656	422	16_14_53_1184380
-0.172852	-0.720703	-0.082031	-0.243732	0.074995	-0.234358	0.738281	0.902344	0.503906	423	16_14_53_1345670
-0.166992	-0.723633	-0.076172	-0.243732	0.074995	-0.224984	0.726563	0.996094	0.503906	424	16_14_53_1506960
-0.175781	-0.714844	-0.082031	-0.243732	0.074995	-0.234358	0.738281	0.949219	0.492188	425	16_14_53_1668250
-0.169922	-0.711914	-0.087891	-0.243732	0.074995	-0.224984	0.726563	0.925781	0.445313	426	16_14_53_1829540
-0.161133	-0.714844	-0.079102	-0.243732	0.074995	-0.234358	0.738281	0.960938	0.457031	427	16_14_53_1990830
-0.172852	-0.714844	-0.079102	-0.243732	0.074995	-0.234358	0.726563	0.902344	0.503906	428	16_14_53_2152120
-0.181641	-0.720703	-0.084961	-0.243732	0.084369	-0.234358	0.738281	0.902344	0.515625	429	16_14_53_2313410
-0.184570	-0.714844	-0.090820	-0.243732	0.084369	-0.224984	0.750000	0.925781	0.503906	430	16_14_53_2474700
-0.175781	-0.717773	-0.093750	-0.243732	0.074995	-0.234358	0.714844	0.937500	0.515625	431	16_14_53_2635990
-0.181641	-0.708984	-0.076172	-0.243732	0.074995	-0.224984	0.726563	0.914063	0.503906	432	16_14_53_2797280
-0.181641	-0.706055	-0.082031	-0.243732	0.074995	-0.234358	0.738281	0.902344	0.468750	433	16_14_53_2958570
-0.178711	-0.711914	-0.082031	-0.253107	0.074995	-0.224984	0.738281	0.902344	0.480469	434	16_14_53_3119860
-0.172852	-0.711914	-0.079102	-0.243732	0.074995	-0.234358	0.726563	0.914063	0.480469	435	16_14_53_3281150
-0.181641	-0.711914	-0.082031	-0.243732	0.074995	-0.234358	0.714844	0.937500	0.468750	436	16_14_53_3442440
-0.172852	-0.706055	-0.084961	-0.243732	0.074995	-0.224984	0.843750	1.148438	0.503906	437	16_14_53_3603730
-0.172852	-0.703125	-0.087891	-0.253107	0.074995	-0.234358	0.726563	0.972656	0.468750	438	16_14_53_3765020
-0.166992	-0.714844	-0.084961	-0.243732	0.074995	-0.224984	0.703125	0.960938	0.468750	439	16_14_53_3926310
-0.166992	-0.703125	-0.073242	-0.243732	0.074995	-0.224984	0.738281	0.960938	0.515625	440	16_14_53_4087600
-0.169922	-0.703125	-0.079102	-0.243732	0.074995	-0.224984	0.726563	0.914063	0.515625	441	16_14_53_4248890
-0.172852	-0.717773	-0.084961	-0.243732	0.074995	-0.224984	0.726563	0.949219	0.503906	442	16_14_53_4410180
-0.169922	-0.703125	-0.082031	-0.253107	0.074995	-0.224984	0.726563	0.878906	0.480469	443	16_14_53_4571470
-0.164063	-0.720703	-0.076172	-0.243732	0.074995	-0.224984	0.738281	0.890625	0.468750	444	16_14_53_4732760
-0.181641	-0.708984	-0.079102	-0.243732	0.074995	-0.234358	0.738281	0.960938	0.492188	445	16_14_53_4894050
-0.181641	-0.711914	-0.073242	-0.243732	0.074995	-0.224984	0.714844	0.960938	0.480469	446	16_14_53_5055340
-0.169922	-0.711914	-0.082031	-0.243732	0.074995	-0.224984	0.726563	0.949219	0.468750	447	16_14_53_5216630
-0.181641	-0.717773	-0.073242	-0.243732	0.074995	-0.234358	0.714844	0.914063	0.468750	448	16_14_53_5377920
-0.175781	-0.711914	-0.087891	-0.253107	0.074995	-0.224984	0.726563	0.914063	0.457031	449	16_14_53_5539210
-0.172852	-0.714844	-0.084961	-0.253107	0.074995	-0.234358	0.738281	0.878906	0.503906	450	16_14_53_5700500
-0.169922	-0.708984	-0.087891	-0.243732	0.074995	-0.224984	0.750000	0.925781	0.503906	451	16_14_53_5861790
-0.178711	-0.723633	-0.082031	-0.243732	0.074995	-0.234358	0.726563	0.902344	0.480469	452	16_14_53_6023080
-0.178711	-0.714844	-0.082031	-0.243732	0.074995	-0.224984	0.726563	0.937500	0.492188	453	16_14_53_6184370
-0.181641	-0.708984	-0.082031	-0.253107	0.074995	-0.234358	0.726563	1.089844	0.550781	454	16_14_53_6345660
-0.187500	-0.714844	-0.079102	-0.253107	0.074995	-0.224984	0.738281	0.937500	0.515625	455	16_14_53_6506950
-0.172852	-0.714844	-0.079102	-0.243732	0.074995	-0.224984	0.808594	0.972656	0.515625	456	16_14_53_6668240
-0.178711	-0.708984	-0.079102	-0.243732	0.065620	-0.234358	0.750000	0.925781	0.480469	457	16_14_53_6829530
-0.178711	-0.703125	-0.084961	-0.253107	0.074995	-0.234358	0.726563	0.949219	0.480469	458	16_14_53_6990820
-0.175781	-0.697266	-0.084961	-0.243732	0.065620	-0.224984	0.738281	0.960938	0.492188	459	16_14_53_7152110
-0.172852	-0.697266	-0.079102	-0.243732	0.074995	-0.224984	0.738281	0.914063	0.468750	460	16_14_53_7313400
-0.178711	-0.711914	-0.079102	-0.243732	0.074995	-0.224984	0.714844	0.832031	0.457031	461	16_14_53_7474690
-0.181641	-0.717773	-0.079102	-0.243732	0.074995	-0.224984	0.726563	0.890625	0.492188	462	16_14_53_7635980
-0.175781	-0.714844	-0.082031	-0.243732	0.074995	-0.224984	0.890625	1.406250	0.539063	463	16_14_53_7797270
-0.158203	-0.711914	-0.073242	-0.243732	0.074995	-0.234358	0.714844	0.843750	0.457031	464	16_14_53_7958560
-0.169922	-0.708984	-0.082031	-0.243732	0.065620	-0.224984	0.738281	1.031250	0.527344	465	16_14_53_8119850
-0.175781	-0.697266	-0.082031	-0.243732	0.065620	-0.224984	0.738281	0.937500	0.527344	466	16_14_53_8281140
-0.178711	-0.723633	-0.079102	-0.243732	0.074995	-0.224984	0.738281	0.960938	0.457031	467	16_14_53_8442430
-0.178711	-0.711914	-0.076172	-0.243732	0.074995	-0.224984	0.726563	0.937500	0.457031	468	16_14_53_8603720
-0.169922	-0.708984	-0.084961	-0.253107	0.074995	-0.224984	0.726563	0.820313	0.503906	469	16_14_53_8765010
-0.181641	-0.714844	-0.076172	-0.243732	0.074995	-0.224984	0.726563	0.855469	0.492188	470	16_14_53_8926300
-0.166992	-0.711914	-0.082031	-0.253107	0.065620	-0.224984	0.714844	0.960938	0.480469	471	16_14_53_9087590
-0.164063	-0.714844	-0.073242	-0.253107	0.074995	-0.224984	0.738281	1.007813	0.503906	472	16_14_53_9248880
-0.172852	-0.708984	-0.082031	-0.253107	0.074995	-0.224984	0.714844	0.914063	0.480469	473	16_14_53_9410170
-0.175781	-0.708984	-0.087891	-0.243732	0.074995	-0.224984	0.843750	1.312500	0.527344	474	16_14_53_9571460
-0.178711	-0.703125	-0.090820	-0.243732	0.074995	-0.224984	0.714844	0.867188	0.480469	475	16_14_53_9732750
-0.175781	-0.708984	-0.084961	-0.243732	0.065620	-0.224984	0.726563	0.984375	0.480469	476	16_14_53_9894040
-0.172852	-0.714844	-0.084961	-0.243732	0.065620	-0.224984	0.726563	0.972656	0.468750	477	16_14_54_0055330
-0.181641	-0.714844	-0.084961	-0.243732	0.074995	-0.234358	0.738281	0.972656	0.468750	478	16_14_54_0216620
-0.178711	-0.714844	-0.079102	-0.253107	0.074995	-0.234358	0.726563	0.937500	0.457031	479	16_14_54_0377910
-0.172852	-0.700195	-0.082031	-0.243732	0.065620	-0.224984	0.726563	0.914063	0.457031	480	16_14_54_0539200
-0.161133	-0.720703	-0.082031	-0.243732	0.065620	-0.224984	0.691406	0.820313	0.492188	481	16_14_54_0700490
-0.166992	-0.703125	-0.084961	-0.253107	0.074995	-0.224984	0.855469	1.113281	0.539063	482	16_14_54_0861780
-0.166992	-0.708984	-0.073242	-0.243732	0.074995	-0.234358	0.914063	1.230469	0.597656	483	16_14_54_1023070
-0.175781	-0.714844	-0.087891	-0.243732	0.074995	-0.224984	0.738281	0.878906	0.480469	484	16_14_54_1184360
-0.169922	-0.708984	-0.082031	-0.243732	0.074995	-0.224984	0.738281	0.890625	0.468750	485	16_14_54_1345650
-0.166992	-0.708984	-0.079102	-0.243732	0.074995	-0.234358	0.726563	0.914063	0.503906	486	16_14_54_1506940
-0.175781	-0.708984	-0.082031	-0.243732	0.074995	-0.224984	0.726563	0.855469	0.492188	487	16_14_54_1668230
-0.169922	-0.711914	-0.084961	-0.243732	0.084369	-0.224984	0.703125	0.843750	0.480469	488	16_14_54_1829520
-0.169922	-0.714844	-0.084961	-0.243732	0.074995	-0.234358	0.726563	0.832031	0.468750	489	16_14_54_1990810
-0.172852	-0.714844	-0.073242	-0.243732	0.074995	-0.234358	0.738281	0.902344	0.503906	490	16_14_54_2152100
-0.181641	-0.706055	-0.082031	-0.243732	0.074995	-0.234358	0.726563	0.914063	0.480469	491	16_14_54_2313390
-0.175781	-0.708984	-0.082031	-0.243732	0.074995	-0.234358	0.726563	0.902344	0.468750	492	16_14_54_2474680
-0.175781	-0.711914	-0.079102	-0.243732	0.074995	-0.224984	0.738281	0.937500	0.457031	493	16_14_54_2635970
-0.178711	-0.708984	-0.084961	-0.243732	0.074995	-0.234358	0.703125	0.890625	0.445313	494	16_14_54_2797260
-0.181641	-0.711914	-0.087891	-0.243732	0.074995	-0.234358	0.750000	1.078125	0.539063	495	16_14_54_2958550
-0.169922	-0.711914	-0.076172	-0.243732	0.074995	-0.224984	0.750000	1.089844	0.550781	496	16_14_54_3119840
-0.172852	-0.703125	-0.082031	-0.253107	0.074995	-0.234358	0.726563	0.937500	0.503906	497	16_14_54_3281130
-0.181641	-0.703125	-0.079102	-0.243732	0.074995	-0.224984	0.726563	0.878906	0.480469	498	16_14_54_3442420
-0.184570	-0.708984	-0.082031	-0.243732	0.074995	-0.224984	0.726563	0.843750	0.457031	499	16_14_54_3603710
-0.161133	-0.706055	-0.073242	-0.243732	0.074995	-0.234358	0.691406	0.878906	0.457031	500	16_14_54_3765000
-0.166992	-0.711914	-0.079102	-0.243732	0.074995	-0.234358	0.714844	0.937500	0.468750	501	16_14_54_3926290
-0.172852	-0.706055	-0.082031	-0.243732	0.074995	-0.234358	0.726563	0.960938	0.457031	502	16_14_54_4087580
-0.161133	-0.717773	-0.073242	-0.243732	0.074995	-0.234358	0.726563	0.925781	0.445313	503	16_14_54_4248870
-0.175781	-0.720703	-0.082031	-0.243732	0.074995	-0.234358	0.726563	0.843750	0.433594	504	16_14_54_4410160
-0.172852	-0.720703	-0.079102	-0.243732	0.074995	-0.234358	0.726563	0.878906	0.433594	505	16_14_54_4571450
-0.169922	-0.714844	-0.076172	-0.243732	0.074995	-0.234358	0.726563	1.148438	0.492188	506	16_14_54_4732740
-0.178711	-0.711914	-0.090820	-0.243732	0.074995	-0.224984	0.726563	0.937500	0.492188	507	16_14_54_4894030
-0.172852	-0.706055	-0.076172	-0.243732	0.065620	-0.224984	0.738281	0.914063	0.527344	508	16_14_54_5055320
-0.158203	-0.714844	-0.084961	-0.243732	0.074995	-0.234358	0.714844	0.902344	0.503906	509	16_14_54_5216610
-0.166992	-0.703125	-0.087891	-0.253107	0.084369	-0.224984	0.726563	0.890625	0.457031	510	16_14_54_5377900
-0.175781	-0.706055	-0.076172	-0.253107	0.084369	-0.224984	0.726563	0.867188	0.445313	511	16_14_54_5539190
-0.175781	-0.700195	-0.076172	-0.243732	0.074995	-0.224984	0.714844	0.914063	0.480469	512	16_14_54_5700480
-0.172852	-0.708984	-0.076172	-0.243732	0.074995	-0.224984	0.726563	0.914063	0.480469	513	16_14_54_5861770
-0.184570	-0.714844	-0.079102	-0.234358	0.074995	-0.234358	0.972656	1.359375	0.527344	514	16_14_54_6023060
-0.175781	-0.700195	-0.082031	-0.243732	0.074995	-0.224984	0.726563	0.914063	0.468750	515	16_14_54_6184350
-0.181641	-0.706055	-0.084961	-0.243732	0.074995	-0.224984	0.726563	0.937500	0.457031	516	16_14_54_6345640
-0.169922	-0.708984	-0.079102	-0.243732	0.074995	-0.215609	0.726563	0.937500	0.445313	517	16_14_54_6506930
-0.169922	-0.714844	-0.082031	-0.253107	0.065620	-0.224984	0.726563	0.914063	0.480469	518	16_14_54_6668220
-0.166992	-0.720703	-0.082031	-0.243732	0.074995	-0.215609	0.726563	0.914063	0.503906	519	16_14_54_6829510
-0.169922	-0.714844	-0.082031	-0.243732	0.074995	-0.224984	0.738281	0.902344	0.550781	520	16_14_54_6990800
-0.178711	-0.720703	-0.076172	-0.243732	0.074995	-0.224984	0.714844	0.867188	0.503906	521	16_14_54_7152090
-0.169922	-0.714844	-0.084961	-0.243732	0.074995	-0.224984	0.679688	0.890625	0.492188	522	16_14_54_7313380
-0.169922	-0.717773	-0.079102	-0.243732	0.074995	-0.234358	0.738281	0.902344	0.480469	523	16_14_54_7474670
-0.166992	-0.708984	-0.073242	-0.243732	0.084369	-0.224984	0.972656	1.488281	0.515625	524	16_14_54_7635960
-0.172852	-0.700195	-0.082031	-0.243732	0.074995	-0.234358	0.714844	0.960938	0.503906	525	16_14_54_7797250
-0.172852	-0.708984	-0.073242	-0.243732	0.074995	-0.224984	0.761719	1.007813	0.503906	526	16_14_54_7958540
-0.169922	-0.703125	-0.082031	-0.253107	0.074995	-0.224984	0.726563	0.996094	0.457031	527	16_14_54_8119830
-0.172852	-0.714844	-0.087891	-0.243732	0.074995	-0.224984	0.726563	0.972656	0.457031	528	16_14_54_8281120
-0.172852	-0.708984	-0.079102	-0.243732	0.074995	-0.224984	0.726563	0.914063	0.468750	529	16_14_54_8442410
-0.175781	-0.714844	-0.082031	-0.253107	0.074995	-0.224984	0.726563	0.960938	0.457031	530	16_14_54_8603700
-0.178711	-0.708984	-0.082031	-0.243732	0.074995	-0.234358	0.714844	0.960938	0.468750	531	16_14_54_8764990
-0.178711	-0.708984	-0.084961	-0.253107	0.065620	-0.224984	0.726563	0.972656	0.515625	532	16_14_54_8926280
-0.169922	-0.711914	-0.082031	-0.243732	0.065620	-0.224984	0.703125	0.914063	0.515625	533	16_14_54_9087570
-0.178711	-0.708984	-0.079102	-0.243732	0.065620	-0.224984	0.738281	0.925781	0.457031	534	16_14_54_9248860
-0.172852	-0.720703	-0.073242	-0.253107	0.074995	-0.224984	0.726563	0.972656	0.480469	535	16_14_54_9410150
-0.181641	-0.708984	-0.082031	-0.253107	0.074995	-0.224984	0.738281	0.914063	0.515625	536	16_14_54_9571440
-0.181641	-0.711914	-0.084961	-0.253107	0.074995	-0.224984	0.738281	0.914063	0.480469	537	16_14_54_9732730
-0.175781	-0.720703	-0.076172	-0.243732	0.065620	-0.224984	0.726563	0.996094	0.539063	538	16_14_54_9894020
-0.175781	-0.703125	-0.073242	-0.243732	0.074995	-0.224984	0.738281	0.949219	0.468750	539	16_14_55_0055310
-0.166992	-0.706055	-0.079102	-0.253107	0.065620	-0.224984	0.726563	0.960938	0.445313	540	16_14_55_0216600
-0.172852	-0.720703	-0.079102	-0.243732	0.074995	-0.234358	0.726563	0.937500	0.468750	541	16_14_55_0377890
-0.175781	-0.703125	-0.070313	-0.253107	0.074995	-0.234358	0.726563	0.914063	0.503906	542	16_14_55_0539180
-0.161133	-0.703125	-0.067383	-0.243732	0.074995	-0.234358	0.726563	0.890625	0.480469	543	16_14_55_0700470
-0.181641	-0.723633	-0.084961	-0.253107	0.065620	-0.234358	0.714844	0.890625	0.480469	544	16_14_55_0861760
-0.178711	-0.708984	-0.084961	-0.243732	0.074995	-0.234358	0.878906	1.089844	0.480469	545	16_14_55_1023050
-0.178711	-0.723633	-0.079102	-0.243732	0.065620	-0.224984	0.738281	0.925781	0.457031	546	16_14_55_1184340
-0.172852	-0.720703	-0.087891	-0.253107	0.065620	-0.224984	0.714844	0.960938	0.468750	547	16_14_55_1345630
-0.169922	-0.711914	-0.076172	-0.253107	0.065620	-0.224984	0.750000	1.054688	0.468750	548	16_14_55_1506920
-0.187500	-0.703125	-0.073242	-0.253107	0.065620	-0.224984	0.691406	0.996094	0.457031	549	16_14_55_1668210
-0.169922	-0.708984	-0.070313	-0.253107	0.074995	-0.224984	0.726563	0.984375	0.492188	550	16_14_55_1829500
-0.178711	-0.711914	-0.082031	-0.243732	0.074995	-0.234358	0.738281	0.867188	0.480469	551	16_14_55_1990790
-0.184570	-0.708984	-0.082031	-0.243732	0.074995	-0.224984	0.738281	0.855469	0.457031	552	16_14_55_2152080
-0.181641	-0.714844	-0.090820	-0.253107	0.065620	-0.224984	0.890625	1.042969	0.503906	553	16_14_55_2313370
-0.181641	-0.706055	-0.076172	-0.253107	0.065620	-0.215609	0.726563	0.890625	0.445313	554	16_14_55_2474660
-0.166992	-0.708984	-0.076172	-0.253107	0.065620	-0.224984	0.726563	0.902344	0.445313	555	16_14_55_2635950
-0.184570	-0.714844	-0.082031	-0.243732	0.065620	-0.224984	0.714844	0.902344	0.503906	556	16_14_55_2797240
-0.175781	-0.717773	-0.079102	-0.243732	0.065620	-0.215609	0.808594	1.371094	0.539063	557	16_14_55_2958530
-0.178711	-0.711914	-0.079102	-0.253107	0.065620	-0.215609	0.726563	0.820313	0.480469	558	16_14_55_3119820
-0.169922	-0.720703	-0.067383	-0.253107	0.065620	-0.215609	0.726563	0.914063	0.480469	559	16_14_55_3281110
-0.169922	-0.714844	-0.070313	-0.243732	0.065620	-0.224984	0.726563	0.925781	0.457031	560	16_14_55_3442400
-0.169922	-0.708984	-0.076172	-0.243732	0.056246	-0.215609	0.714844	0.914063	0.468750	561	16_14_55_3603690
-0.169922	-0.714844	-0.073242	-0.243732	0.065620	-0.215609	0.726563	0.902344	0.480469	562	16_14_55_3764980
-0.178711	-0.717773	-0.073242	-0.281230	0.056246	-0.215609	0.878906	1.125000	0.480469	563	16_14_55_3926270
-0.169922	-0.714844	-0.082031	-0.253107	0.065620	-0.215609	0.714844	0.914063	0.492188	564	16_14_55_4087560
-0.169922	-0.703125	-0.070313	-0.243732	0.065620	-0.215609	0.714844	0.960938	0.492188	565	16_14_55_4248850
-0.172852	-0.717773	-0.076172	-0.243732	0.056246	-0.215609	0.750000	0.972656	0.480469	566	16_14_55_4410140
-0.181641	-0.711914	-0.073242	-0.243732	0.065620	-0.224984	0.726563	0.972656	0.480469	567	16_14_55_4571430
-0.169922	-0.711914	-0.073242	-0.262481	0.056246	-0.224984	0.726563	0.937500	0.480469	568	16_14_55_4732720
-0.169922	-0.697266	-0.073242	-0.243732	0.056246	-0.224984	0.785156	0.984375	0.550781	569	16_14_55_4894010
-0.169922	-0.711914	-0.076172	-0.243732	0.065620	-0.224984	0.726563	0.832031	0.457031	570	16_14_55_5055300
-0.161133	-0.708984	-0.073242	-0.243732	0.065620	-0.224984	0.738281	0.820313	0.468750	571	16_14_55_5216590
-0.172852	-0.708984	-0.073242	-0.253107	0.065620	-0.224984	0.726563	0.855469	0.468750	572	16_14_55_5377880
-0.178711	-0.714844	-0.079102	-0.243732	0.056246	-0.224984	0.738281	0.867188	0.468750	573	16_14_55_5539170
-0.169922	-0.708984	-0.082031	-0.253107	0.056246	-0.224984	0.738281	0.914063	0.503906	574	16_14_55_5700460
-0.169922	-0.714844	-0.064453	-0.243732	0.056246	-0.215609	0.925781	1.218750	0.527344	575	16_14_55_5861750
-0.172852	-0.697266	-0.073242	-0.243732	0.056246	-0.215609	0.726563	0.925781	0.515625	576	16_14_55_6023040
-0.164063	-0.703125	-0.070313	-0.243732	0.056246	-0.224984	0.714844	0.867188	0.492188	577	16_14_55_6184330
-0.152344	-0.711914	-0.067383	-0.243732	0.056246	-0.234358	0.714844	0.832031	0.457031	578	16_14_55_6345620
-0.161133	-0.714844	-0.073242	-0.253107	0.065620	-0.224984	0.679688	0.867188	0.468750	579	16_14_55_6506910
-0.172852	-0.711914	-0.076172	-0.243732	0.065620	-0.224984	0.726563	0.972656	0.457031	580	16_14_55_6668200
-0.181641	-0.708984	-0.076172	-0.243732	0.065620	-0.224984	0.726563	0.925781	0.445313	581	16_14_55_6829490
-0.175781	-0.720703	-0.079102	-0.243732	0.065620	-0.224984	0.726563	0.949219	0.445313	582	16_14_55_6990780
-0.172852	-0.714844	-0.073242	-0.243732	0.065620	-0.224984	0.726563	0.949219	0.457031	583	16_14_55_7152070
-0.166992	-0.717773	-0.073242	-0.253107	0.056246	-0.215609	0.726563	0.914063	0.457031	584	16_14_55_7313360
-0.166992	-0.714844	-0.076172	-0.253107	0.065620	-0.224984	0.714844	0.890625	0.468750	585	16_14_55_7474650
-0.164063	-0.700195	-0.070313	-0.243732	0.065620	-0.224984	0.738281	0.937500	0.480469	586	16_14_55_7635940
-0.169922	-0.708984	-0.070313	-0.253107	0.065620	-0.224984	0.738281	0.902344	0.468750	587	16_14_55_7797230
-0.152344	-0.717773	-0.073242	-0.243732	0.065620	-0.224984	0.738281	0.855469	0.492188	588	16_14_55_7958520
-0.164063	-0.726563	-0.070313	-0.243732	0.074995	-0.234358	0.738281	0.855469	0.492188	589	16_14_55_8119810
-0.169922	-0.711914	-0.076172	-0.243732	0.074995	-0.234358	0.714844	0.878906	0.457031	590	16_14_55_8281100
-0.169922	-0.714844	-0.073242	-0.243732	0.074995	-0.234358	0.714844	0.902344	0.457031	591	16_14_55_8442390
-0.169922	-0.711914	-0.079102	-0.243732	0.074995	-0.234358	0.726563	0.949219	0.480469	592	16_14_55_8603680
-0.181641	-0.711914	-0.073242	-0.243732	0.084369	-0.234358	0.738281	0.878906	0.457031	593	16_14_55_8764970
-0.172852	-0.708984	-0.082031	-0.243732	0.074995	-0.234358	0.667969	0.796875	0.433594	594	16_14_55_8926260
-0.172852	-0.714844	-0.073242	-0.243732	0.074995	-0.234358	0.726563	0.925781	0.457031	595	16_14_55_9087550
-0.172852	-0.711914	-0.067383	-0.234358	0.074995	-0.224984	1.007813	1.312500	0.480469	596	16_14_55_9248840
-0.161133	-0.714844	-0.073242	-0.243732	0.074995	-0.224984	0.691406	0.890625	0.445313	597	16_14_55_9410130
-0.161133	-0.714844	-0.079102	-0.243732	0.084369	-0.234358	0.726563	0.937500	0.457031	598	16_14_55_9571420
-0.155273	-0.711914	-0.073242	-0.243732	0.084369	-0.234358	0.726563	0.937500	0.468750	599	16_14_55_9732710
-0.175781	-0.720703	-0.073242	-0.234358	0.084369	-0.224984	0.714844	0.855469	0.468750	600	16_14_55_9894000
-0.175781	-0.711914	-0.076172	-0.243732	0.084369	-0.234358	0.714844	0.914063	0.492188	601	16_14_56_0055290
-0.161133	-0.708984	-0.076172	-0.243732	0.084369	-0.234358	0.738281	0.937500	0.503906	602	16_14_56_0216580
-0.181641	-0.703125	-0.070313	-0.243732	0.084369	-0.234358	0.726563	0.925781	0.492188	603	16_14_56_0377870
-0.169922	-0.711914	-0.073242	-0.243732	0.074995	-0.234358	0.726563	0.855469	0.515625	604	16_14_56_0539160
-0.164063	-0.708984	-0.073242	-0.243732	0.084369	-0.234358	0.738281	0.914063	0.503906	605	16_14_56_0700450
-0.166992	-0.720703	-0.079102	-0.243732	0.074995	-0.234358	0.726563	0.902344	0.492188	606	16_14_56_0861740
-0.161133	-0.720703	-0.082031	-0.234358	0.084369	-0.234358	0.738281	0.832031	0.480469	607	16_14_56_1023030
-0.166992	-0.723633	-0.073242	-0.243732	0.084369	-0.234358	0.726563	0.867188	0.480469	608	16_14_56_1184320
-0.178711	-0.723633	-0.073242	-0.243732	0.084369	-0.234358	0.738281	0.878906	0.503906	609	16_14_56_1345610
-0.166992	-0.717773	-0.076172	-0.243732	0.074995	-0.234358	0.679688	0.914063	0.503906	610	16_14_56_1506900
-0.178711	-0.723633	-0.073242	-0.243732	0.074995	-0.234358	0.703125	0.949219	0.480469	611	16_14_56_1668190
-0.169922	-0.711914	-0.079102	-0.243732	0.074995	-0.234358	0.738281	0.937500	0.492188	612	16_14_56_1829480
-0.172852	-0.708984	-0.073242	-0.243732	0.074995	-0.234358	0.714844	0.902344	0.468750	613	16_14_56_1990770
-0.169922	-0.714844	-0.076172	-0.243732	0.084369	-0.234358	0.726563	0.890625	0.445313	614	16_14_56_2152060
-0.181641	-0.717773	-0.067383	-0.243732	0.084369	-0.234358	0.738281	0.820313	0.457031	615	16_14_56_2313350
-0.172852	-0.706055	-0.073242	-0.243732	0.084369	-0.234358	0.738281	0.902344	0.457031	616	16_14_56_2474640
-0.164063	-0.697266	-0.076172	-0.243732	0.084369	-0.234358	0.738281	0.914063	0.492188	617	16_14_56_2635930
-0.172852	-0.711914	-0.073242	-0.234358	0.084369	-0.234358	0.726563	0.914063	0.503906	618	16_14_56_2797220
-0.181641	-0.714844	-0.076172	-0.243732	0.084369	-0.234358	0.726563	0.914063	0.480469	619	16_14_56_2958510
-0.175781	-0.720703	-0.073242	-0.243732	0.084369	-0.234358	0.726563	0.960938	0.492188	620	16_14_56_3119800
-0.172852	-0.708984	-0.076172	-0.243732	0.084369	-0.234358	0.738281	0.902344	0.515625	621	16_14_56_3281090
-0.193359	-0.708984	-0.076172	-0.243732	0.084369	-0.234358	0.785156	0.937500	0.503906	622	16_14_56_3442380
-0.175781	-0.708984	-0.082031	-0.243732	0.074995	-0.234358	0.726563	0.925781	0.480469	623	16_14_56_3603670
-0.158203	-0.703125	-0.079102	-0.243732	0.084369	-0.234358	0.738281	0.855469	0.492188	624	16_14_56_3764960
-0.181641	-0.708984	-0.073242	-0.243732	0.084369	-0.234358	0.925781	1.078125	0.480469	625	16_14_56_3926250
-0.184570	-0.708984	-0.073242	-0.243732	0.084369	-0.234358	0.738281	0.855469	0.480469	626	16_14_56_4087540
-0.184570	-0.714844	-0.090820	-0.243732	0.084369	-0.224984	0.738281	0.832031	0.480469	627	16_14_56_4248830
-0.178711	-0.703125	-0.079102	-0.243732	0.084369	-0.234358	0.714844	0.937500	0.468750	628	16_14_56_4410120
-0.175781	-0.708984	-0.079102	-0.243732	0.084369	-0.234358	0.703125	0.960938	0.457031	629	16_14_56_4571410
-0.172852	-0.714844	-0.073242	-0.243732	0.084369	-0.224984	0.773438	1.312500	0.492188	630	16_14_56_4732700
-0.169922	-0.711914	-0.076172	-0.243732	0.074995	-0.234358	0.714844	0.902344	0.445313	631	16_14_56_4893990
-0.175781	-0.703125	-0.076172	-0.243732	0.084369	-0.224984	0.796875	1.007813	0.468750	632	16_14_56_5055280
-0.175781	-0.703125	-0.082031	-0.243732	0.084369	-0.224984	0.738281	0.914063	0.468750	633	16_14_56_5216570
-0.164063	-0.708984	-0.073242	-0.243732	0.074995	-0.234358	0.738281	0.878906	0.480469	634	16_14_56_5377860
-0.164063	-0.714844	-0.073242	-0.243732	0.084369	-0.234358	0.738281	0.902344	0.480469	635	16_14_56_5539150
-0.175781	-0.708984	-0.070313	-0.243732	0.084369	-0.234358	0.726563	0.937500	0.480469	636	16_14_56_5700440
-0.178711	-0.717773	-0.079102	-0.243732	0.084369	-0.224984	0.738281	0.925781	0.480469	637	16_14_56_5861730
-0.175781	-0.708984	-0.079102	-0.243732	0.084369	-0.234358	0.738281	0.855469	0.468750	638	16_14_56_6023020
-0.172852	-0.706055	-0.082031	-0.243732	0.084369	-0.234358	0.726563	0.843750	0.445313	639	16_14_56_6184310
-0.178711	-0.714844	-0.087891	-0.253107	0.084369	-0.234358	0.726563	0.855469	0.457031	640	16_14_56_6345600
-0.172852	-0.706055	-0.082031	-0.243732	0.084369	-0.234358	0.738281	0.937500	0.457031	641	16_14_56_6506890
-0.166992	-0.714844	-0.084961	-0.243732	0.084369	-0.234358	0.714844	0.914063	0.457031	642	16_14_56_6668180
-0.164063	-0.711914	-0.070313	-0.243732	0.084369	-0.234358	0.738281	0.890625	0.480469	643	16_14_56_6829470
-0.172852	-0.711914	-0.082031	-0.243732	0.084369	-0.234358	0.820313	0.949219	0.492188	644	16_14_56_6990760
-0.169922	-0.711914	-0.084961	-0.243732	0.074995	-0.234358	0.726563	0.843750	0.503906	645	16_14_56_7152050
-0.169922	-0.708984	-0.076172	-0.243732	0.084369	-0.234358	0.738281	0.960938	0.503906	646	16_14_56_7313340
-0.169922	-0.708984	-0.079102	-0.243732	0.084369	-0.234358	0.726563	0.949219	0.468750	647	16_14_56_7474630
-0.172852	-0.723633	-0.082031	-0.234358	0.084369	-0.234358	0.750000	0.996094	0.480469	648	16_14_56_7635920
-0.172852	-0.711914	-0.084961	-0.243732	0.084369	-0.234358	0.761719	0.984375	0.492188	649	16_14_56_7797210
-0.181641	-0.708984	-0.090820	-0.243732	0.084369	-0.234358	0.726563	0.960938	0.492188	650	16_14_56_7958500
-0.175781	-0.708984	-0.090820	-0.243732	0.084369	-0.234358	0.726563	0.902344	0.457031	651	16_14_56_8119790
-0.175781	-0.703125	-0.084961	-0.243732	0.084369	-0.234358	0.726563	0.843750	0.457031	652	16_14_56_8281080
-0.166992	-0.711914	-0.090820	-0.243732	0.093743	-0.234358	0.726563	0.878906	0.480469	653	16_14_56_8442370
-0.172852	-0.708984	-0.073242	-0.243732	0.084369	-0.234358	0.726563	0.820313	0.468750	654	16_14_56_8603660
-0.169922	-0.720703	-0.079102	-0.243732	0.084369	-0.234358	0.726563	0.914063	0.445313	655	16_14_56_8764950
-0.169922	-0.711914	-0.084961	-0.243732	0.084369	-0.243732	0.726563	0.937500	0.492188	656	16_14_56_8926240
-0.184570	-0.703125	-0.084961	-0.243732	0.084369	-0.234358	0.726563	0.925781	0.468750	657	16_14_56_9087530
-0.184570	-0.714844	-0.096680	-0.243732	0.084369	-0.234358	0.738281	0.890625	0.457031	658	16_14_56_9248820
-0.178711	-0.703125	-0.090820	-0.243732	0.084369	-0.234358	0.738281	0.902344	0.480469	659	16_14_56_9410110
-0.190430	-0.708984	-0.090820	-0.243732	0.084369	-0.224984	0.714844	0.890625	0.468750	660	16_14_56_9571400
-0.175781	-0.706055	-0.087891	-0.243732	0.074995	-0.224984	0.738281	0.914063	0.457031	661	16_14_56_9732690
-0.175781	-0.697266	-0.079102	-0.243732	0.084369	-0.224984	0.738281	1.171875	0.574219	662	16_14_56_9893980
-0.184570	-0.706055	-0.079102	-0.243732	0.074995	-0.234358	0.726563	0.937500	0.492188	663	16_14_57_0055270
-0.172852	-0.691406	-0.084961	-0.243732	0.084369	-0.234358	0.726563	0.902344	0.468750	664	16_14_57_0216560
-0.175781	-0.703125	-0.084961	-0.243732	0.084369	-0.234358	0.738281	0.937500	0.445313	665	16_14_57_0377850
-0.190430	-0.708984	-0.084961	-0.243732	0.084369	-0.234358	0.726563	0.925781	0.457031	666	16_14_57_0539140
-0.181641	-0.700195	-0.076172	-0.243732	0.084369	-0.234358	0.726563	0.914063	0.480469	667	16_14_57_0700430
-0.184570	-0.708984	-0.087891	-0.243732	0.084369	-0.234358	0.738281	0.867188	0.468750	668	16_14_57_0861720
-0.166992	-0.697266	-0.079102	-0.243732	0.074995	-0.224984	0.738281	0.878906	0.468750	669	16_14_57_1023010
-0.175781	-0.708984	-0.084961	-0.243732	0.074995	-0.234358	0.937500	1.312500	0.527344	670	16_14_57_1184300
-0.169922	-0.700195	-0.084961	-0.243732	0.084369	-0.234358	0.726563	0.867188	0.492188	671	16_14_57_1345590
-0.181641	-0.711914	-0.099609	-0.243732	0.074995	-0.234358	0.726563	0.914063	0.480469	672	16_14_57_1506880
-0.178711	-0.711914	-0.079102	-0.243732	0.074995	-0.234358	0.726563	0.867188	0.503906	673	16_14_57_1668170
-0.199219	-0.706055	-0.082031	-0.243732	0.074995	-0.224984	0.726563	0.843750	0.492188	674	16_14_57_1829460
-0.184570	-0.711914	-0.084961	-0.243732	0.074995	-0.234358	0.738281	0.855469	0.492188	675	16_14_57_1990750
-0.181641	-0.706055	-0.079102	-0.243732	0.074995	-0.234358	0.750000	0.890625	0.503906	676	16_14_57_2152040
-0.181641	-0.691406	-0.090820	-0.243732	0.084369	-0.234358	0.726563	0.937500	0.468750	677	16_14_57_2313330
-0.172852	-0.711914	-0.079102	-0.243732	0.084369	-0.224984	0.726563	0.914063	0.445313	678	16_14_57_2474620
-0.172852	-0.711914	-0.087891	-0.243732	0.074995	-0.224984	0.726563	0.960938	0.468750	679	16_14_57_2635910
-0.175781	-0.720703	-0.090820	-0.243732	0.074995	-0.224984	0.691406	0.890625	0.492188	680	16_14_57_2797200
-0.175781	-0.700195	-0.090820	-0.243732	0.074995	-0.234358	0.750000	0.984375	0.480469	681	16_14_57_2958490
-0.190430	-0.708984	-0.084961	-0.243732	0.074995	-0.224984	0.738281	0.960938	0.480469	682	16_14_57_3119780
-0.175781	-0.706055	-0.084961	-0.243732	0.074995	-0.224984	0.726563	0.902344	0.527344	683	16_14_57_3281070
-0.187500	-0.706055	-0.082031	-0.243732	0.074995	-0.224984	0.726563	0.937500	0.515625	684	16_14_57_3442360
-0.175781	-0.714844	-0.087891	-0.243732	0.074995	-0.224984	0.796875	1.007813	0.492188	685	16_14_57_3603650
-0.172852	-0.706055	-0.090820	-0.234358	0.074995	-0.224984	0.738281	0.914063	0.468750	686	16_14_57_3764940
-0.181641	-0.700195	-0.082031	-0.243732	0.084369	-0.224984	0.738281	0.855469	0.492188	687	16_14_57_3926230
-0.184570	-0.706055	-0.087891	-0.243732	0.084369	-0.224984	0.738281	0.890625	0.480469	688	16_14_57_4087520
-0.181641	-0.708984	-0.087891	-0.243732	0.074995	-0.224984	0.738281	0.902344	0.492188	689	16_14_57_4248810
-0.184570	-0.697266	-0.093750	-0.243732	0.084369	-0.224984	0.726563	0.890625	0.503906	690	16_14_57_4410100
-0.175781	-0.700195	-0.082031	-0.243732	0.074995	-0.234358	0.679688	0.878906	0.445313	691	16_14_57_4571390
-0.169922	-0.717773	-0.093750	-0.243732	0.084369	-0.224984	0.726563	0.902344	0.457031	692	16_14_57_4732680
-0.172852	-0.711914	-0.087891	-0.243732	0.084369	-0.224984	0.738281	0.925781	0.492188	693	16_14_57_4893970
-0.169922	-0.706055	-0.084961	-0.243732	0.084369	-0.224984	0.726563	0.843750	0.480469	694	16_14_57_5055260
-0.178711	-0.711914	-0.096680	-0.243732	0.074995	-0.234358	0.726563	0.890625	0.480469	695	16_14_57_5216550
-0.178711	-0.703125	-0.096680	-0.243732	0.074995	-0.224984	0.714844	0.890625	0.468750	696	16_14_57_5377840
-0.181641	-0.708984	-0.082031	-0.243732	0.074995	-0.224984	0.726563	0.914063	0.457031	697	16_14_57_5539130
-0.178711	-0.708984	-0.082031	-0.243732	0.074995	-0.224984	0.738281	0.914063	0.468750	698	16_14_57_5700420
-0.169922	-0.703125	-0.087891	-0.243732	0.074995	-0.224984	0.726563	0.855469	0.468750	699	16_14_57_5861710
-0.172852	-0.708984	-0.087891	-0.243732	0.084369	-0.224984	0.750000	0.832031	0.480469	700	16_14_57_6023000
-0.178711	-0.711914	-0.090820	-0.243732	0.074995	-0.224984	0.726563	0.855469	0.445313	701	16_14_57_6184290
-0.181641	-0.697266	-0.093750	-0.243732	0.074995	-0.234358	0.726563	0.960938	0.457031	702	16_14_57_6345580
-0.178711	-0.703125	-0.087891	-0.243732	0.074995	-0.224984	0.726563	0.902344	0.480469	703	16_14_57_6506870
-0.175781	-0.706055	-0.096680	-0.243732	0.074995	-0.224984	0.738281	0.902344	0.480469	704	16_14_57_6668160
-0.181641	-0.700195	-0.084961	-0.243732	0.074995	-0.224984	0.726563	0.867188	0.527344	705	16_14_57_6829450
-0.175781	-0.703125	-0.084961	-0.243732	0.074995	-0.224984	0.726563	0.867188	0.503906	706	16_14_57_6990740
-0.169922	-0.703125	-0.093750	-0.243732	0.074995	-0.224984	0.855469	1.042969	0.527344	707	16_14_57_7152030
-0.166992	-0.703125	-0.093750	-0.243732	0.074995	-0.234358	0.738281	0.855469	0.503906	708	16_14_57_7313320
-0.181641	-0.706055	-0.082031	-0.243732	0.074995	-0.234358	0.691406	0.890625	0.480469	709	16_14_57_7474610
-0.172852	-0.720703	-0.090820	-0.243732	0.074995	-0.234358	0.726563	0.902344	0.527344	710	16_14_57_7635900
-0.181641	-0.708984	-0.090820	-0.243732	0.074995	-0.234358	0.738281	0.914063	0.503906	711	16_14_57_7797190
-0.169922	-0.706055	-0.087891	-0.253107	0.074995	-0.234358	0.738281	0.937500	0.468750	712	16_14_57_7958480
-0.175781	-0.720703	-0.090820	-0.243732	0.074995	-0.234358	0.785156	0.960938	0.468750	713	16_14_57_8119770
-0.178711	-0.708984	-0.082031	-0.253107	0.084369	-0.224984	0.726563	0.972656	0.480469	714	16_14_57_8281060
-0.172852	-0.703125	-0.087891	-0.243732	0.084369	-0.224984	0.761719	0.937500	0.480469	715	16_14_57_8442350
-0.181641	-0.703125	-0.087891	-0.243732	0.074995	-0.224984	0.714844	0.867188	0.480469	716	16_14_57_8603640
-0.181641	-0.703125	-0.082031	-0.243732	0.074995	-0.224984	0.820313	1.101563	0.492188	717	16_14_57_8764930
-0.184570	-0.708984	-0.093750	-0.243732	0.074995	-0.234358	0.726563	0.984375	0.480469	718	16_14_57_8926220
-0.184570	-0.711914	-0.087891	-0.243732	0.084369	-0.234358	0.726563	0.914063	0.515625	719	16_14_57_9087510
-0.164063	-0.711914	-0.087891	-0.243732	0.074995	-0.224984	0.726563	0.914063	0.515625	720	16_14_57_9248800
-0.172852	-0.711914	-0.090820	-0.243732	0.074995	-0.224984	0.738281	0.937500	0.515625	721	16_14_57_9410090
-0.181641	-0.703125	-0.090820	-0.243732	0.074995	-0.224984	0.726563	0.867188	0.503906	722	16_14_57_9571380
-0.175781	-0.714844	-0.093750	-0.243732	0.074995	-0.224984	0.726563	0.867188	0.503906	723	16_14_57_9732670
-0.175781	-0.706055	-0.084961	-0.243732	0.084369	-0.224984	0.738281	1.054688	0.597656	724	16_14_57_9893960
-0.178711	-0.697266	-0.087891	-0.243732	0.074995	-0.234358	0.738281	1.007813	0.515625	725	16_14_58_0055250
-0.172852	-0.694336	-0.084961	-0.243732	0.084369	-0.234358	0.738281	0.960938	0.480469	726	16_14_58_0216540
-0.178711	-0.703125	-0.082031	-0.243732	0.084369	-0.224984	0.726563	0.960938	0.480469	727	16_14_58_0377830
-0.181641	-0.708984	-0.087891	-0.253107	0.084369	-0.234358	0.738281	0.925781	0.457031	728	16_14_58_0539120
-0.169922	-0.717773	-0.087891	-0.243732	0.084369	-0.234358	0.878906	1.078125	0.480469	729	16_14_58_0700410
-0.181641	-0.708984	-0.090820	-0.243732	0.084369	-0.234358	0.738281	0.949219	0.457031	730	16_14_58_0861700
-0.190430	-0.703125	-0.087891	-0.243732	0.074995	-0.224984	0.726563	0.914063	0.445313	731	16_14_58_1022990
-0.169922	-0.706055	-0.084961	-0.243732	0.084369	-0.234358	0.738281	0.902344	0.457031	732	16_14_58_1184280
-0.164063	-0.697266	-0.087891	-0.253107	0.074995	-0.224984	0.738281	0.937500	0.457031	733	16_14_58_1345570
-0.169922	-0.694336	-0.087891	-0.253107	0.074995	-0.224984	0.726563	0.867188	0.503906	734	16_14_58_1506860
-0.178711	-0.703125	-0.084961	-0.243732	0.084369	-0.224984	0.726563	0.902344	0.515625	735	16_14_58_1668150
-0.181641	-0.714844	-0.087891	-0.243732	0.084369	-0.234358	0.726563	0.902344	0.503906	736	16_14_58_1829440
-0.181641	-0.694336	-0.090820	-0.243732	0.084369	-0.224984	0.726563	0.902344	0.468750	737	16_14_58_1990730
-0.175781	-0.711914	-0.090820	-0.243732	0.074995	-0.234358	0.714844	0.902344	0.457031	738	16_14_58_2152020
-0.169922	-0.714844	-0.090820	-0.243732	0.084369	-0.224984	0.738281	0.937500	0.480469	739	16_14_58_2313310
-0.175781	-0.708984	-0.090820	-0.243732	0.084369	-0.234358	0.726563	0.867188	0.480469	740	16_14_58_2474600
-0.181641	-0.711914	-0.093750	-0.243732	0.074995	-0.224984	0.714844	0.890625	0.503906	741	16_14_58_2635890
-0.178711	-0.708984	-0.084961	-0.243732	0.074995	-0.224984	0.726563	0.914063	0.492188	742	16_14_58_2797180
-0.158203	-0.691406	-0.087891	-0.243732	0.084369	-0.224984	0.726563	0.925781	0.457031	743	16_14_58_2958470
-0.184570	-0.703125	-0.084961	-0.253107	0.074995	-0.224984	0.750000	0.937500	0.492188	744	16_14_58_3119760
-0.178711	-0.697266	-0.084961	-0.243732	0.084369	-0.224984	0.761719	0.984375	0.515625	745	16_14_58_3281050
-0.181641	-0.714844	-0.082031	-0.243732	0.074995	-0.234358	0.691406	0.890625	0.468750	746	16_14_58_3442340
-0.178711	-0.697266	-0.084961	-0.243732	0.084369	-0.224984	0.726563	0.960938	0.480469	747	16_14_58_3603630
-0.172852	-0.700195	-0.084961	-0.243732	0.074995	-0.224984	0.738281	0.984375	0.492188	748	16_14_58_3764920
-0.172852	-0.708984	-0.087891	-0.243732	0.074995	-0.234358	0.750000	0.937500	0.492188	749	16_14_58_3926210
-0.172852	-0.726563	-0.087891	-0.243732	0.084369	-0.224984	0.726563	0.937500	0.515625	750	16_14_58_4087500
-0.181641	-0.708984	-0.090820	-0.243732	0.084369	-0.224984	0.726563	0.902344	0.539063	751	16_14_58_4248790
-0.190430	-0.708984	-0.082031	-0.243732	0.074995	-0.224984	0.738281	0.960938	0.515625	752	16_14_58_4410080
-0.181641	-0.708984	-0.099609	-0.243732	0.074995	-0.234358	0.738281	0.902344	0.503906	753	16_14_58_4571370
-0.178711	-0.711914	-0.087891	-0.243732	0.074995	-0.234358	0.738281	0.843750	0.480469	754	16_14_58_4732660
-0.181641	-0.703125	-0.090820	-0.243732	0.074995	-0.234358	0.738281	0.902344	0.492188	755	16_14_58_4893950
-0.175781	-0.703125	-0.090820	-0.243732	0.074995	-0.224984	0.726563	0.937500	0.492188	756	16_14_58_5055240
-0.193359	-0.711914	-0.082031	-0.234358	0.074995	-0.234358	0.738281	0.937500	0.492188	757	16_14_58_5216530
-0.172852	-0.708984	-0.090820	-0.243732	0.074995	-0.224984	0.738281	0.972656	0.468750	758	16_14_58_5377820
-0.181641	-0.708984	-0.084961	-0.243732	0.074995	-0.224984	0.726563	0.925781	0.457031	759	16_14_58_5539110
-0.181641	-0.711914	-0.087891	-0.243732	0.074995	-0.224984	0.738281	0.960938	0.445313	760	16_14_58_5700400
-0.169922	-0.706055	-0.084961	-0.243732	0.084369	-0.224984	0.703125	0.925781	0.468750	761	16_14_58_5861690
-0.172852	-0.708984	-0.079102	-0.243732	0.084369	-0.234358	0.726563	0.855469	0.492188	762	16_14_58_6022980
-0.181641	-0.711914	-0.087891	-0.243732	0.074995	-0.234358	0.726563	0.902344	0.468750	763	16_14_58_6184270
-0.169922	-0.714844	-0.087891	-0.243732	0.084369	-0.234358	0.738281	0.914063	0.503906	764	16_14_58_6345560
-0.181641	-0.708984	-0.096680	-0.243732	0.084369	-0.224984	0.726563	0.925781	0.550781	765	16_14_58_6506850
-0.175781	-0.706055	-0.084961	-0.243732	0.084369	-0.234358	0.796875	1.230469	0.574219	766	16_14_58_6668140
-0.178711	-0.697266	-0.087891	-0.243732	0.074995	-0.224984	0.726563	0.925781	0.503906	767	16_14_58_6829430
-0.187500	-0.697266	-0.087891	-0.243732	0.074995	-0.224984	0.808594	0.972656	0.480469	768	16_14_58_6990720
-0.169922	-0.706055	-0.093750	-0.243732	0.074995	-0.215609	0.738281	0.890625	0.480469	769	16_14_58_7152010
-0.178711	-0.703125	-0.093750	-0.243732	0.084369	-0.224984	0.738281	0.996094	0.468750	770	16_14_58_7313300
-0.184570	-0.703125	-0.079102	-0.243732	0.074995	-0.224984	0.726563	0.937500	0.445313	771	16_14_58_7474590
-0.184570	-0.708984	-0.102539	-0.243732	0.074995	-0.224984	0.726563	0.820313	0.480469	772	16_14_58_7635880
-0.181641	-0.708984	-0.096680	-0.243732	0.074995	-0.234358	1.007813	1.183594	0.539063	773	16_14_58_7797170
-0.181641	-0.714844	-0.096680	-0.243732	0.074995	-0.224984	0.726563	0.960938	0.492188	774	16_14_58_7958460
-0.175781	-0.714844	-0.093750	-0.243732	0.074995	-0.224984	0.738281	0.960938	0.468750	775	16_14_58_8119750
-0.181641	-0.708984	-0.096680	-0.243732	0.074995	-0.224984	0.714844	0.937500	0.457031	776	16_14_58_8281040
-0.172852	-0.700195	-0.090820	-0.243732	0.065620	-0.224984	0.726563	0.914063	0.492188	777	16_14_58_8442330
-0.166992	-0.697266	-0.087891	-0.243732	0.074995	-0.224984	0.726563	0.855469	0.492188	778	16_14_58_8603620
-0.172852	-0.703125	-0.084961	-0.243732	0.084369	-0.224984	0.738281	0.832031	0.468750	779	16_14_58_8764910
-0.184570	-0.711914	-0.082031	-0.243732	0.084369	-0.234358	0.738281	0.867188	0.457031	780	16_14_58_8926200
-0.184570	-0.708984	-0.087891	-0.243732	0.074995	-0.224984	0.738281	0.820313	0.457031	781	16_14_58_9087490
-0.169922	-0.708984	-0.087891	-0.243732	0.084369	-0.234358	0.738281	0.878906	0.468750	782	16_14_58_9248780
-0.181641	-0.708984	-0.087891	-0.253107	0.074995	-0.234358	0.726563	0.949219	0.492188	783	16_14_58_9410070
-0.175781	-0.703125	-0.079102	-0.243732	0.074995	-0.224984	0.738281	0.855469	0.503906	784	16_14_58_9571360
-0.178711	-0.703125	-0.084961	-0.243732	0.074995	-0.234358	0.738281	0.855469	0.468750	785	16_14_58_9732650
-0.169922	-0.714844	-0.079102	-0.243732	0.084369	-0.224984	0.726563	0.914063	0.468750	786	16_14_58_9893940
-0.187500	-0.714844	-0.084961	-0.243732	0.084369	-0.224984	0.738281	0.902344	0.503906	787	16_14_59_0055230
-0.181641	-0.714844	-0.090820	-0.243732	0.084369	-0.224984	0.796875	0.960938	0.503906	788	16_14_59_0216520
-0.184570	-0.703125	-0.090820	-0.243732	0.074995	-0.224984	0.726563	0.855469	0.480469	789	16_14_59_0377810
-0.190430	-0.706055	-0.096680	-0.243732	0.074995	-0.224984	0.726563	0.890625	0.480469	790	16_14_59_0539100
-0.175781	-0.703125	-0.087891	-0.243732	0.074995	-0.224984	0.738281	0.914063	0.468750	791	16_14_59_0700390
-0.175781	-0.703125	-0.090820	-0.243732	0.074995	-0.224984	0.714844	0.960938	0.503906	792	16_14_59_0861680
-0.187500	-0.711914	-0.084961	-0.253107	0.074995	-0.224984	0.726563	0.972656	0.527344	793	16_14_59_1022970
-0.181641	-0.706055	-0.090820	-0.243732	0.084369	-0.224984	0.726563	0.937500	0.492188	794	16_14_59_1184260
-0.187500	-0.714844	-0.084961	-0.243732	0.084369	-0.224984	0.738281	0.914063	0.457031	795	16_14_59_1345550
-0.175781	-0.711914	-0.096680	-0.243732	0.074995	-0.224984	0.738281	0.937500	0.457031	796	16_14_59_1506840
-0.184570	-0.711914	-0.084961	-0.243732	0.084369	-0.224984	0.750000	1.042969	0.550781	797	16_14_59_1668130
-0.172852	-0.708984	-0.084961	-0.243732	0.074995	-0.234358	0.726563	0.867188	0.480469	798	16_14_59_1829420
-0.172852	-0.711914	-0.090820	-0.243732	0.084369	-0.224984	0.726563	0.832031	0.457031	799	16_14_59_1990710
-0.175781	-0.714844	-0.087891	-0.243732	0.084369	-0.224984	0.691406	0.867188	0.468750	800	16_14_59_2152000
-0.187500	-0.708984	-0.084961	-0.243732	0.084369	-0.224984	0.738281	0.890625	0.468750	801	16_14_59_2313290
-0.175781	-0.708984	-0.090820	-0.243732	0.084369	-0.224984	0.726563	0.855469	0.433594	802	16_14_59_2474580
-0.181641	-0.694336	-0.090820	-0.243732	0.074995	-0.224984	0.726563	0.890625	0.433594	803	16_14_59_2635870
-0.181641	-0.703125	-0.093750	-0.243732	0.074995	-0.224984	0.726563	0.914063	0.457031	804	16_14_59_2797160
-0.172852	-0.700195	-0.096680	-0.243732	0.074995	-0.224984	0.703125	0.937500	0.480469	805	16_14_59_2958450
-0.187500	-0.708984	-0.087891	-0.243732	0.084369	-0.224984	0.890625	1.500000	0.527344	806	16_14_59_3119740
-0.187500	-0.708984	-0.090820	-0.243732	0.084369	-0.224984	0.726563	0.937500	0.492188	807	16_14_59_3281030
-0.178711	-0.697266	-0.084961	-0.243732	0.084369	-0.224984	0.750000	1.007813	0.539063	808	16_14_59_3442320
-0.169922	-0.706055	-0.090820	-0.243732	0.074995	-0.234358	0.738281	0.925781	0.457031	809	16_14_59_3603610
-0.184570	-0.711914	-0.096680	-0.243732	0.074995	-0.234358	0.726563	0.890625	0.480469	810	16_14_59_3764900
-0.169922	-0.708984	-0.099609	-0.243732	0.074995	-0.224984	0.726563	0.960938	0.492188	811	16_14_59_3926190
-0.175781	-0.703125	-0.090820	-0.243732	0.074995	-0.224984	0.726563	0.972656	0.468750	812	16_14_59_4087480
-0.172852	-0.720703	-0.090820	-0.243732	0.074995	-0.224984	0.726563	0.972656	0.468750	813	16_14_59_4248770
-0.175781	-0.708984	-0.099609	-0.243732	0.074995	-0.224984	0.738281	0.960938	0.527344	814	16_14_59_4410060
-0.169922	-0.706055	-0.090820	-0.243732	0.074995	-0.224984	0.738281	0.925781	0.539063	815	16_14_59_4571350
-0.178711	-0.708984	-0.090820	-0.243732	0.074995	-0.224984	0.738281	0.914063	0.492188	816	16_14_59_4732640
-0.178711	-0.706055	-0.090820	-0.243732	0.074995	-0.224984	0.738281	0.960938	0.457031	817	16_14_59_4893930
-0.166992	-0.706055	-0.090820	-0.243732	0.074995	-0.224984	0.738281	1.066406	0.527344	818	16_14_59_5055220
-0.166992	-0.697266	-0.093750	-0.243732	0.074995	-0.224984	0.726563	0.949219	0.468750	819	16_14_59_5216510
-0.166992	-0.714844	-0.076172	-0.243732	0.074995	-0.224984	0.726563	0.867188	0.480469	820	16_14_59_5377800
-0.172852	-0.717773	-0.090820	-0.243732	0.084369	-0.234358	0.726563	0.960938	0.457031	821	16_14_59_5539090
-0.181641	-0.708984	-0.093750	-0.243732	0.074995	-0.215609	0.726563	0.996094	0.457031	822	16_14_59_5700380
-0.181641	-0.703125	-0.108398	-0.243732	0.084369	-0.224984	0.750000	0.960938	0.480469	823	16_14_59_5861670
-0.187500	-0.711914	-0.096680	-0.243732	0.074995	-0.224984	0.726563	0.796875	0.457031	824	16_14_59_6022960
-0.169922	-0.706055	-0.090820	-0.243732	0.074995	-0.224984	0.714844	0.843750	0.492188	825	16_14_59_6184250
-0.169922	-0.706055	-0.084961	-0.243732	0.074995	-0.224984	0.726563	0.937500	0.492188	826	16_14_59_6345540
-0.178711	-0.706055	-0.084961	-0.243732	0.084369	-0.234358	0.714844	0.890625	0.503906	827	16_14_59_6506830
-0.169922	-0.708984	-0.084961	-0.243732	0.074995	-0.234358	0.738281	0.914063	0.527344	828	16_14_59_6668120
-0.169922	-0.711914	-0.090820	-0.243732	0.074995	-0.234358	0.738281	0.914063	0.503906	829	16_14_59_6829410
-0.175781	-0.708984	-0.084961	-0.243732	0.074995	-0.234358	0.726563	0.949219	0.468750	830	16_14_59_6990700
-0.184570	-0.708984	-0.084961	-0.243732	0.074995	-0.234358	0.726563	0.902344	0.515625	831	16_14_59_7151990
-0.181641	-0.708984	-0.084961	-0.243732	0.084369	-0.234358	0.738281	0.902344	0.515625	832	16_14_59_7313280
-0.175781	-0.706055	-0.084961	-0.243732	0.074995	-0.234358	0.738281	0.855469	0.468750	833	16_14_59_7474570
-0.184570	-0.697266	-0.099609	-0.243732	0.084369	-0.224984	0.738281	0.855469	0.457031	834	16_14_59_7635860
-0.181641	-0.711914	-0.090820	-0.243732	0.093743	-0.234358	0.738281	0.843750	0.457031	835	16_14_59_7797150
-0.175781	-0.703125	-0.090820	-0.243732	0.084369	-0.234358	0.714844	0.902344	0.503906	836	16_14_59_7958440
-0.184570	-0.708984	-0.090820	-0.243732	0.074995	-0.224984	0.738281	0.949219	0.503906	837	16_14_59_8119730
-0.184570	-0.694336	-0.084961	-0.243732	0.074995	-0.224984	0.726563	0.914063	0.480469	838	16_14_59_8281020
-0.166992	-0.706055	-0.090820	-0.243732	0.074995	-0.224984	0.738281	0.937500	0.468750	839	16_14_59_8442310
-0.178711	-0.706055	-0.090820	-0.253107	0.084369	-0.234358	0.726563	0.937500	0.468750	840	16_14_59_8603600
-0.175781	-0.720703	-0.087891	-0.243732	0.084369	-0.224984	0.726563	0.902344	0.468750	841	16_14_59_8764890
-0.187500	-0.703125	-0.093750	-0.243732	0.084369	-0.224984	0.738281	0.867188	0.468750	842	16_14_59_8926180
-0.181641	-0.703125	-0.087891	-0.243732	0.074995	-0.224984	0.855469	1.019531	0.468750	843	16_14_59_9087470
-0.184570	-0.708984	-0.090820	-0.243732	0.074995	-0.224984	0.738281	0.902344	0.503906	844	16_14_59_9248760
-0.190430	-0.720703	-0.084961	-0.243732	0.074995	-0.224984	0.738281	0.890625	0.503906	845	16_14_59_9410050
-0.172852	-0.703125	-0.093750	-0.243732	0.065620	-0.224984	0.726563	0.902344	0.480469	846	16_14_59_9571340
-0.184570	-0.714844	-0.087891	-0.243732	0.084369	-0.215609	0.949219	1.500000	0.550781	847	16_14_59_9732630
-0.169922	-0.706055	-0.084961	-0.243732	0.074995	-0.234358	0.726563	0.902344	0.457031	848	16_14_59_9893920
-0.172852	-0.706055	-0.087891	-0.243732	0.074995	-0.224984	0.738281	0.878906	0.492188	849	16_15_00_0055210
-0.178711	-0.703125	-0.090820	-0.234358	0.074995	-0.234358	0.738281	0.925781	0.492188	850	16_15_00_0216500
-0.178711	-0.708984	-0.090820	-0.243732	0.084369	-0.224984	0.738281	0.937500	0.457031	851	16_15_00_0377790
-0.181641	-0.711914	-0.084961	-0.243732	0.084369	-0.224984	0.832031	1.054688	0.445313	852	16_15_00_0539080
-0.181641	-0.708984	-0.096680	-0.253107	0.084369	-0.234358	0.785156	0.960938	0.468750	853	16_15_00_0700370
-0.181641	-0.706055	-0.093750	-0.243732	0.074995	-0.234358	0.726563	0.843750	0.492188	854	16_15_00_0861660
-0.175781	-0.711914	-0.087891	-0.243732	0.074995	-0.224984	0.726563	0.855469	0.468750	855	16_15_00_1022950
-0.178711	-0.697266	-0.082031	-0.243732	0.074995	-0.234358	0.761719	0.843750	0.503906	856	16_15_00_1184240
-0.175781	-0.708984	-0.096680	-0.243732	0.074995	-0.234358	0.726563	0.878906	0.480469	857	16_15_00_1345530
-0.181641	-0.703125	-0.096680	-0.243732	0.084369	-0.224984	0.691406	0.914063	0.480469	858	16_15_00_1506820
-0.181641	-0.706055	-0.096680	-0.243732	0.084369	-0.234358	0.738281	0.937500	0.515625	859	16_15_00_1668110
-0.175781	-0.708984	-0.090820	-0.243732	0.074995	-0.234358	0.726563	0.867188	0.480469	860	16_15_00_1829400
-0.181641	-0.706055	-0.096680	-0.234358	0.074995	-0.224984	0.726563	0.843750	0.468750	861	16_15_00_1990690
-0.184570	-0.708984	-0.084961	-0.243732	0.084369	-0.224984	0.714844	0.914063	0.480469	862	16_15_00_2151980
-0.181641	-0.711914	-0.090820	-0.243732	0.074995	-0.224984	0.738281	0.914063	0.503906	863	16_15_00_2313270
-0.187500	-0.700195	-0.090820	-0.243732	0.074995	-0.224984	0.738281	0.949219	0.503906	864	16_15_00_2474560
-0.178711	-0.700195	-0.084961	-0.243732	0.074995	-0.224984	0.726563	0.949219	0.492188	865	16_15_00_2635850
-0.178711	-0.694336	-0.082031	-0.243732	0.074995	-0.224984	0.726563	0.972656	0.480469	866	16_15_00_2797140
-0.184570	-0.706055	-0.093750	-0.253107	0.074995	-0.224984	0.726563	0.937500	0.457031	867	16_15_00_2958430
-0.175781	-0.708984	-0.090820	-0.243732	0.084369	-0.224984	0.714844	0.937500	0.457031	868	16_15_00_3119720
-0.181641	-0.691406	-0.099609	-0.243732	0.084369	-0.224984	0.738281	0.914063	0.468750	869	16_15_00_3281010
-0.184570	-0.700195	-0.087891	-0.243732	0.074995	-0.224984	0.738281	0.890625	0.492188	870	16_15_00_3442300
-0.172852	-0.711914	-0.093750	-0.243732	0.074995	-0.224984	0.726563	0.890625	0.550781	871	16_15_00_3603590
-0.181641	-0.711914	-0.090820	-0.243732	0.074995	-0.234358	0.726563	0.867188	0.480469	872	16_15_00_3764880
-0.172852	-0.700195	-0.093750	-0.243732	0.074995	-0.224984	0.726563	0.843750	0.433594	873	16_15_00_3926170
-0.172852	-0.706055	-0.090820	-0.243732	0.084369	-0.224984	0.726563	0.878906	0.457031	874	16_15_00_4087460
-0.172852	-0.697266	-0.087891	-0.253107	0.074995	-0.215609	0.738281	0.843750	0.492188	875	16_15_00_4248750
-0.181641	-0.700195	-0.082031	-0.253107	0.074995	-0.224984	0.726563	0.820313	0.503906	876	16_15_00_4410040
-0.178711	-0.703125	-0.087891	-0.243732	0.084369	-0.215609	1.007813	1.195313	0.515625	877	16_15_00_4571330
-0.164063	-0.708984	-0.102539	-0.243732	0.084369	-0.224984	0.726563	0.914063	0.480469	878	16_15_00_4732620
-0.184570	-0.714844	-0.093750	-0.243732	0.084369	-0.224984	0.714844	0.867188	0.492188	879	16_15_00_4893910
-0.184570	-0.708984	-0.084961	-0.243732	0.074995	-0.215609	0.738281	0.878906	0.468750	880	16_15_00_5055200
-0.178711	-0.703125	-0.084961	-0.243732	0.074995	-0.224984	0.714844	1.054688	0.492188	881	16_15_00_5216490
-0.184570	-0.714844	-0.090820	-0.243732	0.074995	-0.215609	0.726563	0.890625	0.468750	882	16_15_00_5377780
-0.175781	-0.697266	-0.082031	-0.243732	0.074995	-0.224984	0.726563	0.914063	0.492188	883	16_15_00_5539070
-0.161133	-0.708984	-0.082031	-0.243732	0.074995	-0.224984	0.738281	0.867188	0.503906	884	16_15_00_5700360
-0.166992	-0.706055	-0.090820	-0.243732	0.074995	-0.224984	0.726563	0.937500	0.503906	885	16_15_00_5861650
-0.172852	-0.720703	-0.084961	-0.243732	0.084369	-0.224984	0.726563	0.925781	0.503906	886	16_15_00_6022940
-0.172852	-0.711914	-0.090820	-0.234358	0.074995	-0.224984	0.996094	1.347656	0.527344	887	16_15_00_6184230
-0.172852	-0.714844	-0.084961	-0.243732	0.074995	-0.224984	0.714844	0.878906	0.515625	888	16_15_00_6345520
-0.172852	-0.711914	-0.096680	-0.243732	0.084369	-0.234358	0.726563	0.808594	0.492188	889	16_15_00_6506810
-0.181641	-0.708984	-0.082031	-0.243732	0.074995	-0.234358	0.714844	0.902344	0.468750	890	16_15_00_6668100
-0.169922	-0.700195	-0.099609	-0.243732	0.084369	-0.234358	0.726563	0.972656	0.503906	891	16_15_00_6829390
-0.169922	-0.708984	-0.090820	-0.243732	0.084369	-0.234358	0.726563	0.890625	0.515625	892	16_15_00_6990680
-0.178711	-0.711914	-0.099609	-0.243732	0.084369	-0.224984	0.726563	0.855469	0.550781	893	16_15_00_7151970
-0.181641	-0.703125	-0.090820	-0.253107	0.074995	-0.234358	0.738281	0.902344	0.503906	894	16_15_00_7313260
-0.175781	-0.703125	-0.096680	-0.243732	0.084369	-0.234358	0.726563	0.937500	0.457031	895	16_15_00_7474550
-0.172852	-0.708984	-0.087891	-0.243732	0.084369	-0.224984	0.761719	0.902344	0.468750	896	16_15_00_7635840
-0.178711	-0.708984	-0.093750	-0.243732	0.074995	-0.224984	0.726563	0.902344	0.480469	897	16_15_00_7797130
-0.181641	-0.700195	-0.093750	-0.243732	0.084369	-0.224984	0.726563	0.878906	0.480469	898	16_15_00_7958420
-0.181641	-0.711914	-0.093750	-0.243732	0.074995	-0.234358	0.750000	0.984375	0.480469	899	16_15_00_8119710
-0.172852	-0.697266	-0.090820	-0.243732	0.084369	-0.234358	0.726563	0.949219	0.492188	900	16_15_00_8281000
-0.190430	-0.714844	-0.087891	-0.243732	0.074995	-0.224984	0.726563	0.890625	0.492188	901	16_15_00_8442290
-0.166992	-0.697266	-0.084961	-0.243732	0.074995	-0.224984	0.726563	0.949219	0.503906	902	16_15_00_8603580
-0.169922	-0.700195	-0.096680	-0.243732	0.084369	-0.224984	0.726563	0.914063	0.503906	903	16_15_00_8764870
-0.175781	-0.708984	-0.090820	-0.243732	0.084369	-0.224984	0.691406	0.890625	0.480469	904	16_15_00_8926160
-0.175781	-0.703125	-0.087891	-0.243732	0.084369	-0.234358	0.878906	1.054688	0.503906	905	16_15_00_9087450
-0.181641	-0.714844	-0.084961	-0.243732	0.084369	-0.234358	0.726563	0.902344	0.445313	906	16_15_00_9248740
-0.175781	-0.714844	-0.090820	-0.243732	0.084369	-0.224984	0.738281	0.890625	0.457031	907	16_15_00_9410030
-0.172852	-0.708984	-0.087891	-0.243732	0.084369	-0.224984	0.726563	0.890625	0.492188	908	16_15_00_9571320
-0.172852	-0.708984	-0.090820	-0.253107	0.084369	-0.234358	0.726563	0.890625	0.468750	909	16_15_00_9732610
-0.181641	-0.697266	-0.087891	-0.215609	0.084369	-0.224984	0.867188	1.359375	0.527344	910	16_15_00_9893900
-0.169922	-0.700195	-0.090820	-0.243732	0.084369	-0.234358	0.738281	0.773438	0.457031	911	16_15_01_0055190
-0.175781	-0.703125	-0.090820	-0.253107	0.084369	-0.224984	0.714844	0.867188	0.480469	912	16_15_01_0216480
-0.172852	-0.697266	-0.093750	-0.243732	0.084369	-0.234358	0.726563	0.914063	0.492188	913	16_15_01_0377770
-0.184570	-0.703125	-0.096680	-0.243732	0.084369	-0.234358	0.726563	0.949219	0.503906	914	16_15_01_0539060
-0.172852	-0.697266	-0.082031	-0.243732	0.084369	-0.234358	0.726563	0.937500	0.492188	915	16_15_01_0700350
-0.187500	-0.700195	-0.102539	-0.243732	0.074995	-0.234358	0.726563	0.902344	0.480469	916	16_15_01_0861640
-0.175781	-0.708984	-0.087891	-0.243732	0.084369	-0.224984	0.738281	0.843750	0.515625	917	16_15_01_1022930
-0.172852	-0.708984	-0.093750	-0.243732	0.074995	-0.224984	0.703125	0.867188	0.562500	918	16_15_01_1184220
-0.184570	-0.697266	-0.084961	-0.243732	0.074995	-0.224984	0.691406	0.878906	0.527344	919	16_15_01_1345510
-0.175781	-0.708984	-0.093750	-0.243732	0.074995	-0.224984	0.691406	0.949219	0.468750	920	16_15_01_1506800
-0.175781	-0.708984	-0.090820	-0.243732	0.074995	-0.224984	0.773438	1.207031	0.585938	921	16_15_01_1668090
-0.175781	-0.711914	-0.090820	-0.243732	0.074995	-0.224984	0.714844	0.914063	0.515625	922	16_15_01_1829380
-0.178711	-0.708984	-0.084961	-0.243732	0.074995	-0.224984	0.714844	0.937500	0.527344	923	16_15_01_1990670
-0.181641	-0.708984	-0.087891	-0.243732	0.084369	-0.224984	0.726563	0.820313	0.480469	924	16_15_01_2151960
-0.184570	-0.703125	-0.096680	-0.243732	0.084369	-0.234358	0.738281	0.855469	0.457031	925	16_15_01_2313250
-0.181641	-0.708984	-0.079102	-0.243732	0.074995	-0.224984	0.726563	0.937500	0.468750	926	16_15_01_2474540
-0.169922	-0.708984	-0.079102	-0.243732	0.074995	-0.224984	0.738281	0.972656	0.492188	927	16_15_01_2635830
-0.172852	-0.708984	-0.090820	-0.243732	0.084369	-0.224984	0.726563	0.984375	0.468750	928	16_15_01_2797120
-0.181641	-0.703125	-0.082031	-0.243732	0.074995	-0.234358	0.714844	0.914063	0.445313	929	16_15_01_2958410
-0.175781	-0.711914	-0.087891	-0.243732	0.084369	-0.224984	0.738281	0.855469	0.480469	930	16_15_01_3119700
-0.181641	-0.714844	-0.102539	-0.243732	0.074995	-0.224984	0.726563	0.925781	0.503906	931	16_15_01_3280990
-0.169922	-0.694336	-0.093750	-0.243732	0.074995	-0.224984	0.738281	0.867188	0.503906	932	16_15_01_3442280
-0.175781	-0.708984	-0.084961	-0.243732	0.074995	-0.224984	0.726563	0.820313	0.480469	933	16_15_01_3603570
-0.169922	-0.714844	-0.084961	-0.243732	0.074995	-0.224984	0.773438	0.937500	0.503906	934	16_15_01_3764860
-0.181641	-0.708984	-0.090820	-0.234358	0.074995	-0.224984	0.843750	1.054688	0.503906	935	16_15_01_3926150
-0.175781	-0.711914	-0.090820	-0.243732	0.074995	-0.234358	0.738281	0.867188	0.468750	936	16_15_01_4087440
-0.181641	-0.703125	-0.082031	-0.243732	0.084369	-0.224984	0.726563	0.808594	0.457031	937	16_15_01_4248730
-0.181641	-0.708984	-0.087891	-0.243732	0.084369	-0.234358	0.726563	0.878906	0.433594	938	16_15_01_4410020
-0.172852	-0.708984	-0.099609	-0.243732	0.074995	-0.224984	0.832031	1.019531	0.480469	939	16_15_01_4571310
-0.181641	-0.708984	-0.096680	-0.243732	0.084369	-0.224984	0.738281	0.878906	0.492188	940	16_15_01_4732600
-0.172852	-0.703125	-0.096680	-0.243732	0.074995	-0.234358	0.714844	0.867188	0.480469	941	16_15_01_4893890
-0.181641	-0.717773	-0.093750	-0.243732	0.084369	-0.224984	0.726563	0.902344	0.468750	942	16_15_01_5055180
-0.172852	-0.708984	-0.096680	-0.243732	0.084369	-0.224984	0.738281	0.867188	0.480469	943	16_15_01_5216470
-0.172852	-0.708984	-0.090820	-0.243732	0.084369	-0.224984	0.714844	0.902344	0.503906	944	16_15_01_5377760
-0.184570	-0.700195	-0.096680	-0.243732	0.084369	-0.224984	0.808594	0.972656	0.503906	945	16_15_01_5539050
-0.178711	-0.720703	-0.096680	-0.243732	0.084369	-0.224984	0.785156	1.031250	0.445313	946	16_15_01_5700340
-0.178711	-0.706055	-0.082031	-0.243732	0.084369	-0.234358	0.738281	0.890625	0.421875	947	16_15_01_5861630
-0.181641	-0.694336	-0.084961	-0.243732	0.084369	-0.224984	0.738281	0.890625	0.457031	948	16_15_01_6022920
-0.169922	-0.703125	-0.090820	-0.243732	0.084369	-0.224984	0.738281	0.949219	0.480469	949	16_15_01_6184210
-0.172852	-0.694336	-0.090820	-0.243732	0.084369	-0.224984	0.726563	0.832031	0.468750	950	16_15_01_6345500
-0.178711	-0.703125	-0.093750	-0.243732	0.084369	-0.224984	0.726563	0.808594	0.492188	951	16_15_01_6506790
-0.169922	-0.708984	-0.096680	-0.243732	0.084369	-0.234358	0.738281	0.843750	0.539063	952	16_15_01_6668080
-0.172852	-0.706055	-0.099609	-0.243732	0.084369	-0.224984	0.726563	0.878906	0.503906	953	16_15_01_6829370
-0.169922	-0.700195	-0.093750	-0.243732	0.074995	-0.224984	0.738281	0.902344	0.468750	954	16_15_01_6990660
-0.181641	-0.694336	-0.087891	-0.243732	0.074995	-0.224984	0.738281	0.867188	0.445313	955	16_15_01_7151950
-0.161133	-0.703125	-0.096680	-0.243732	0.074995	-0.224984	0.726563	0.960938	0.468750	956	16_15_01_7313240
-0.172852	-0.706055	-0.102539	-0.243732	0.084369	-0.224984	0.714844	0.972656	0.480469	957	16_15_01_7474530
-0.175781	-0.703125	-0.090820	-0.243732	0.084369	-0.224984	0.738281	0.855469	0.468750	958	16_15_01_7635820
-0.178711	-0.706055	-0.087891	-0.243732	0.084369	-0.224984	0.738281	0.937500	0.468750	959	16_15_01_7797110
-0.193359	-0.703125	-0.084961	-0.243732	0.084369	-0.224984	0.750000	0.984375	0.480469	960	16_15_01_7958400
-0.178711	-0.703125	-0.093750	-0.243732	0.084369	-0.234358	0.714844	0.937500	0.492188	961	16_15_01_8119690
-0.175781	-0.697266	-0.090820	-0.243732	0.074995	-0.224984	0.714844	0.949219	0.468750	962	16_15_01_8280980
-0.178711	-0.706055	-0.093750	-0.243732	0.084369	-0.234358	0.738281	0.937500	0.457031	963	16_15_01_8442270
-0.169922	-0.711914	-0.087891	-0.243732	0.084369	-0.224984	0.738281	0.937500	0.492188	964	16_15_01_8603560
-0.169922	-0.708984	-0.087891	-0.243732	0.084369	-0.224984	0.738281	0.937500	0.480469	965	16_15_01_8764850
-0.172852	-0.708984	-0.090820	-0.243732	0.084369	-0.224984	0.820313	1.019531	0.468750	966	16_15_01_8926140
-0.184570	-0.697266	-0.096680	-0.243732	0.084369	-0.224984	0.726563	0.843750	0.480469	967	16_15_01_9087430
-0.169922	-0.703125	-0.084961	-0.243732	0.074995	-0.224984	0.714844	0.867188	0.480469	968	16_15_01_9248720
-0.169922	-0.708984	-0.082031	-0.243732	0.084369	-0.224984	0.714844	0.937500	0.480469	969	16_15_01_9410010
-0.178711	-0.700195	-0.093750	-0.243732	0.074995	-0.224984	0.726563	0.984375	0.480469	970	16_15_01_9571300
-0.175781	-0.708984	-0.099609	-0.234358	0.084369	-0.224984	1.042969	1.453125	0.515625	971	16_15_01_9732590
-0.181641	-0.697266	-0.084961	-0.243732	0.074995	-0.224984	0.738281	0.925781	0.480469	972	16_15_01_9893880
-0.181641	-0.700195	-0.084961	-0.243732	0.084369	-0.224984	0.738281	0.855469	0.480469	973	16_15_02_0055170
-0.166992	-0.708984	-0.090820	-0.243732	0.074995	-0.224984	0.738281	0.867188	0.480469	974	16_15_02_0216460
-0.164063	-0.694336	-0.093750	-0.243732	0.074995	-0.224984	0.726563	0.902344	0.468750	975	16_15_02_0377750
-0.172852	-0.711914	-0.096680	-0.243732	0.084369	-0.224984	0.726563	0.925781	0.457031	976	16_15_02_0539040
-0.184570	-0.691406	-0.099609	-0.243732	0.084369	-0.224984	0.691406	0.937500	0.480469	977	16_15_02_0700330
-0.166992	-0.703125	-0.093750	-0.243732	0.084369	-0.224984	0.843750	1.042969	0.503906	978	16_15_02_0861620
-0.181641	-0.708984	-0.090820	-0.243732	0.074995	-0.224984	0.738281	0.878906	0.480469	979	16_15_02_1022910
-0.169922	-0.708984	-0.087891	-0.243732	0.074995	-0.234358	0.726563	1.007813	0.503906	980	16_15_02_1184200
-0.184570	-0.711914	-0.090820	-0.243732	0.084369	-0.234358	0.726563	1.031250	0.480469	981	16_15_02_1345490
-0.175781	-0.708984	-0.090820	-0.243732	0.084369	-0.234358	0.714844	0.914063	0.457031	982	16_15_02_1506780
-0.178711	-0.711914	-0.087891	-0.243732	0.074995	-0.224984	0.726563	0.902344	0.445313	983	16_15_02_1668070
-0.175781	-0.706055	-0.093750	-0.253107	0.074995	-0.224984	0.738281	0.972656	0.457031	984	16_15_02_1829360
-0.172852	-0.694336	-0.090820	-0.243732	0.074995	-0.224984	0.738281	0.890625	0.550781	985	16_15_02_1990650
-0.166992	-0.706055	-0.090820	-0.243732	0.084369	-0.224984	0.714844	0.773438	0.515625	986	16_15_02_2151940
-0.178711	-0.703125	-0.087891	-0.253107	0.074995	-0.224984	0.726563	0.925781	0.457031	987	16_15_02_2313230
-0.169922	-0.708984	-0.090820	-0.243732	0.084369	-0.234358	0.832031	1.089844	0.433594	988	16_15_02_2474520
-0.169922	-0.708984	-0.090820	-0.243732	0.074995	-0.224984	0.726563	0.878906	0.457031	989	16_15_02_2635810
-0.172852	-0.700195	-0.079102	-0.243732	0.074995	-0.234358	0.726563	0.890625	0.468750	990	16_15_02_2797100
-0.181641	-0.708984	-0.082031	-0.243732	0.074995	-0.224984	0.726563	0.867188	0.480469	991	16_15_02_2958390
-0.178711	-0.703125	-0.093750	-0.253107	0.074995	-0.224984	0.726563	0.855469	0.457031	992	16_15_02_3119680
-0.166992	-0.703125	-0.084961	-0.253107	0.074995	-0.224984	0.726563	0.949219	0.468750	993	16_15_02_3280970
-0.172852	-0.708984	-0.090820	-0.243732	0.084369	-0.224984	0.714844	0.960938	0.492188	994	16_15_02_3442260
-0.190430	-0.703125	-0.082031	-0.243732	0.074995	-0.224984	0.726563	0.890625	0.468750	995	16_15_02_3603550
-0.175781	-0.708984	-0.090820	-0.243732	0.074995	-0.224984	0.726563	0.867188	0.468750	996	16_15_02_3764840
-0.169922	-0.708984	-0.096680	-0.243732	0.074995	-0.224984	0.714844	0.867188	0.480469	997	16_15_02_3926130
-0.178711	-0.697266	-0.084961	-0.253107	0.074995	-0.224984	0.726563	0.820313	0.457031	998	16_15_02_4087420
-0.178711	-0.703125	-0.090820	-0.243732	0.084369	-0.224984	0.714844	0.925781	0.468750	999	16_15_02_4248710
-0.172852	-0.697266	-0.093750	-0.243732	0.074995	-0.224984	0.726563	0.914063	0.503906	1000	16_15_02_4410000
-0.169922	-0.708984	-0.084961	-0.243732	0.084369	-0.224984	0.996094	1.136719	0.550781	1001	16_15_02_4571290
-0.172852	-0.714844	-0.084961	-0.243732	0.084369	-0.224984	0.738281	0.925781	0.503906	1002	16_15_02_4732580
-0.164063	-0.706055	-0.090820	-0.243732	0.074995	-0.224984	0.726563	0.972656	0.480469	1003	16_15_02_4893870
-0.172852	-0.708984	-0.084961	-0.243732	0.074995	-0.224984	0.714844	0.914063	0.480469	1004	16_15_02_5055160
-0.184570	-0.700195	-0.090820	-0.243732	0.074995	-0.224984	0.750000	1.148438	0.515625	1005	16_15_02_5216450
-0.178711	-0.703125	-0.087891	-0.243732	0.084369	-0.224984	0.714844	0.972656	0.457031	1006	16_15_02_5377740
-0.172852	-0.711914	-0.084961	-0.243732	0.074995	-0.224984	0.726563	0.914063	0.480469	1007	16_15_02_5539030
-0.175781	-0.703125	-0.084961	-0.243732	0.084369	-0.224984	0.691406	0.914063	0.468750	1008	16_15_02_5700320
-0.169922	-0.697266	-0.087891	-0.253107	0.084369	-0.224984	0.726563	0.925781	0.457031	1009	16_15_02_5861610
-0.181641	-0.706055	-0.082031	-0.243732	0.084369	-0.224984	0.726563	0.914063	0.480469	1010	16_15_02_6022900
-0.181641	-0.694336	-0.093750	-0.243732	0.074995	-0.224984	0.726563	0.832031	0.492188	1011	16_15_02_6184190
-0.184570	-0.703125	-0.090820	-0.243732	0.084369	-0.224984	0.738281	0.890625	0.480469	1012	16_15_02_6345480
-0.169922	-0.708984	-0.093750	-0.243732	0.084369	-0.224984	0.714844	0.914063	0.515625	1013	16_15_02_6506770
-0.184570	-0.708984	-0.087891	-0.243732	0.084369	-0.224984	0.726563	0.937500	0.527344	1014	16_15_02_6668060
-0.178711	-0.703125	-0.090820	-0.243732	0.084369	-0.224984	0.726563	0.925781	0.480469	1015	16_15_02_6829350
-0.178711	-0.714844	-0.087891	-0.243732	0.084369	-0.234358	0.703125	0.878906	0.480469	1016	16_15_02_6990640
-0.181641	-0.706055	-0.090820	-0.243732	0.084369	-0.234358	0.726563	0.878906	0.480469	1017	16_15_02_7151930
-0.172852	-0.708984	-0.093750	-0.243732	0.084369	-0.224984	0.726563	0.902344	0.492188	1018	16_15_02_7313220
-0.187500	-0.703125	-0.084961	-0.243732	0.084369	-0.224984	0.726563	0.902344	0.480469	1019	16_15_02_7474510
-0.169922	-0.714844	-0.084961	-0.243732	0.074995	-0.224984	0.726563	0.960938	0.480469	1020	16_15_02_7635800
-0.169922	-0.700195	-0.084961	-0.243732	0.074995	-0.215609	0.738281	0.890625	0.492188	1021	16_15_02_7797090
-0.166992	-0.708984	-0.087891	-0.243732	0.084369	-0.224984	0.726563	0.902344	0.503906	1022	16_15_02_7958380
-0.187500	-0.706055	-0.090820	-0.253107	0.084369	-0.224984	0.691406	0.949219	0.503906	1023	16_15_02_8119670
-0.184570	-0.708984	-0.093750	-0.243732	0.084369	-0.234358	0.714844	0.902344	0.515625	1024	16_15_02_8280960
-0.184570	-0.706055	-0.084961	-0.243732	0.084369	-0.234358	0.726563	0.832031	0.492188	1025	16_15_02_8442250
-0.172852	-0.714844	-0.082031	-0.243732	0.084369	-0.224984	0.714844	0.960938	0.421875	1026	16_15_02_8603540
-0.175781	-0.697266	-0.084961	-0.253107	0.084369	-0.224984	0.738281	0.890625	0.445313	1027	16_15_02_8764830
-0.175781	-0.697266	-0.084961	-0.243732	0.084369	-0.224984	0.726563	0.878906	0.492188	1028	16_15_02_8926120
-0.164063	-0.720703	-0.090820	-0.243732	0.084369	-0.224984	0.703125	0.867188	0.503906	1029	16_15_02_9087410
-0.181641	-0.720703	-0.090820	-0.243732	0.074995	-0.224984	0.738281	0.843750	0.503906	1030	16_15_02_9248700
-0.172852	-0.708984	-0.084961	-0.243732	0.084369	-0.224984	0.738281	0.855469	0.503906	1031	16_15_02_9409990
-0.178711	-0.703125	-0.084961	-0.253107	0.074995	-0.224984	0.714844	0.902344	0.480469	1032	16_15_02_9571280
-0.166992	-0.706055	-0.084961	-0.243732	0.084369	-0.234358	0.726563	0.914063	0.492188	1033	16_15_02_9732570
-0.178711	-0.711914	-0.087891	-0.243732	0.084369	-0.234358	0.726563	0.925781	0.503906	1034	16_15_02_9893860
-0.169922	-0.708984	-0.108398	-0.234358	0.084369	-0.224984	0.750000	0.960938	0.480469	1035	16_15_03_0055150
-0.175781	-0.697266	-0.084961	-0.243732	0.084369	-0.224984	0.738281	0.937500	0.421875	1036	16_15_03_0216440
-0.184570	-0.708984	-0.090820	-0.243732	0.084369	-0.234358	0.726563	0.867188	0.457031	1037	16_15_03_0377730
-0.178711	-0.717773	-0.090820	-0.243732	0.084369	-0.234358	0.726563	0.914063	0.515625	1038	16_15_03_0539020
-0.169922	-0.711914	-0.084961	-0.243732	0.084369	-0.224984	0.738281	0.960938	0.503906	1039	16_15_03_0700310
-0.184570	-0.708984	-0.079102	-0.243732	0.084369	-0.234358	0.726563	0.867188	0.468750	1040	16_15_03_0861600
-0.172852	-0.697266	-0.090820	-0.243732	0.074995	-0.224984	0.726563	0.902344	0.468750	1041	16_15_03_1022890
-0.175781	-0.708984	-0.096680	-0.243732	0.084369	-0.224984	0.738281	0.937500	0.492188	1042	16_15_03_1184180
-0.169922	-0.708984	-0.102539	-0.243732	0.074995	-0.234358	0.726563	0.960938	0.492188	1043	16_15_03_1345470
-0.178711	-0.706055	-0.090820	-0.243732	0.074995	-0.224984	0.738281	0.937500	0.480469	1044	16_15_03_1506760
-0.175781	-0.703125	-0.082031	-0.243732	0.074995	-0.224984	0.738281	0.890625	0.492188	1045	16_15_03_1668050
-0.169922	-0.700195	-0.087891	-0.243732	0.074995	-0.234358	0.726563	0.867188	0.480469	1046	16_15_03_1829340
-0.166992	-0.697266	-0.090820	-0.243732	0.084369	-0.224984	0.750000	0.914063	0.457031	1047	16_15_03_1990630
-0.169922	-0.703125	-0.087891	-0.243732	0.084369	-0.224984	0.703125	0.914063	0.457031	1048	16_15_03_2151920
-0.193359	-0.706055	-0.087891	-0.243732	0.074995	-0.224984	0.726563	0.949219	0.503906	1049	16_15_03_2313210
-0.178711	-0.711914	-0.082031	-0.243732	0.084369	-0.224984	0.738281	0.890625	0.503906	1050	16_15_03_2474500
-0.178711	-0.717773	-0.084961	-0.243732	0.084369	-0.234358	0.843750	0.996094	0.539063	1051	16_15_03_2635790
-0.169922	-0.708984	-0.093750	-0.243732	0.084369	-0.234358	0.726563	0.796875	0.492188	1052	16_15_03_2797080
-0.181641	-0.714844	-0.084961	-0.243732	0.084369	-0.234358	0.726563	0.937500	0.468750	1053	16_15_03_2958370
-0.181641	-0.714844	-0.093750	-0.243732	0.084369	-0.224984	0.691406	0.914063	0.480469	1054	16_15_03_3119660
-0.175781	-0.708984	-0.096680	-0.243732	0.074995	-0.224984	0.726563	0.843750	0.468750	1055	16_15_03_3280950
-0.175781	-0.703125	-0.087891	-0.243732	0.084369	-0.224984	0.796875	1.148438	0.574219	1056	16_15_03_3442240
-0.175781	-0.708984	-0.090820	-0.243732	0.084369	-0.224984	0.738281	0.808594	0.492188	1057	16_15_03_3603530
-0.175781	-0.708984	-0.093750	-0.243732	0.084369	-0.224984	0.726563	0.855469	0.457031	1058	16_15_03_3764820
-0.184570	-0.703125	-0.093750	-0.243732	0.084369	-0.224984	0.726563	0.960938	0.468750	1059	16_15_03_3926110
-0.172852	-0.700195	-0.090820	-0.243732	0.084369	-0.234358	0.714844	0.984375	0.468750	1060	16_15_03_4087400
-0.175781	-0.703125	-0.096680	-0.243732	0.084369	-0.234358	0.726563	0.902344	0.480469	1061	16_15_03_4248690
-0.181641	-0.700195	-0.090820	-0.243732	0.084369	-0.224984	0.726563	0.820313	0.480469	1062	16_15_03_4409980
-0.184570	-0.711914	-0.087891	-0.243732	0.084369	-0.224984	0.738281	0.914063	0.468750	1063	16_15_03_4571270
-0.181641	-0.708984	-0.096680	-0.243732	0.074995	-0.224984	0.738281	0.937500	0.480469	1064	16_15_03_4732560
-0.175781	-0.706055	-0.090820	-0.243732	0.084369	-0.224984	0.714844	0.937500	0.480469	1065	16_15_03_4893850
-0.175781	-0.700195	-0.087891	-0.243732	0.084369	-0.234358	0.785156	0.960938	0.503906	1066	16_15_03_5055140
-0.169922	-0.711914	-0.099609	-0.243732	0.074995	-0.224984	0.738281	0.914063	0.480469	1067	16_15_03_5216430
-0.175781	-0.708984	-0.087891	-0.243732	0.074995	-0.224984	0.691406	0.902344	0.457031	1068	16_15_03_5377720
-0.190430	-0.714844	-0.082031	-0.243732	0.084369	-0.224984	0.796875	0.949219	0.468750	1069	16_15_03_5539010
-0.169922	-0.706055	-0.084961	-0.243732	0.084369	-0.234358	0.726563	0.949219	0.492188	1070	16_15_03_5700300
-0.175781	-0.706055	-0.090820	-0.243732	0.084369	-0.234358	0.738281	0.914063	0.492188	1071	16_15_03_5861590
-0.169922	-0.708984	-0.087891	-0.243732	0.084369	-0.224984	0.726563	0.832031	0.492188	1072	16_15_03_6022880
-0.181641	-0.714844	-0.087891	-0.243732	0.074995	-0.224984	0.714844	0.914063	0.480469	1073	16_15_03_6184170
-0.172852	-0.700195	-0.084961	-0.243732	0.084369	-0.224984	0.726563	0.914063	0.468750	1074	16_15_03_6345460
-0.172852	-0.703125	-0.090820	-0.243732	0.084369	-0.234358	0.726563	0.914063	0.468750	1075	16_15_03_6506750
-0.169922	-0.711914	-0.087891	-0.243732	0.074995	-0.224984	0.726563	0.914063	0.457031	1076	16_15_03_6668040
-0.169922	-0.703125	-0.090820	-0.243732	0.084369	-0.224984	0.691406	0.972656	0.492188	1077	16_15_03_6829330
-0.178711	-0.703125	-0.087891	-0.243732	0.084369	-0.224984	0.761719	0.996094	0.503906	1078	16_15_03_6990620
-0.178711	-0.706055	-0.093750	-0.243732	0.074995	-0.224984	0.726563	0.914063	0.480469	1079	16_15_03_7151910
-0.169922	-0.703125	-0.096680	-0.243732	0.074995	-0.224984	0.726563	0.984375	0.480469	1080	16_15_03_7313200
-0.169922	-0.708984	-0.084961	-0.243732	0.074995	-0.224984	0.726563	0.972656	0.457031	1081	16_15_03_7474490
-0.166992	-0.697266	-0.090820	-0.243732	0.074995	-0.234358	0.738281	0.902344	0.480469	1082	16_15_03_7635780
-0.172852	-0.708984	-0.096680	-0.243732	0.084369	-0.224984	0.726563	0.914063	0.480469	1083	16_15_03_7797070
-0.164063	-0.714844	-0.087891	-0.243732	0.074995	-0.224984	0.714844	0.996094	0.433594	1084	16_15_03_7958360
-0.169922	-0.708984	-0.079102	-0.234358	0.084369	-0.224984	1.031250	1.382813	0.480469	1085	16_15_03_8119650
-0.172852	-0.706055	-0.087891	-0.243732	0.084369	-0.224984	0.761719	0.914063	0.492188	1086	16_15_03_8280940
-0.166992	-0.703125	-0.084961	-0.243732	0.084369	-0.234358	0.738281	0.820313	0.492188	1087	16_15_03_8442230
-0.184570	-0.700195	-0.087891	-0.243732	0.084369	-0.224984	0.714844	0.867188	0.480469	1088	16_15_03_8603520
-0.181641	-0.717773	-0.090820	-0.243732	0.084369	-0.224984	0.738281	0.960938	0.492188	1089	16_15_03_8764810
-0.181641	-0.708984	-0.093750	-0.243732	0.084369	-0.224984	0.679688	0.937500	0.480469	1090	16_15_03_8926100
-0.172852	-0.711914	-0.096680	-0.243732	0.074995	-0.224984	0.726563	0.902344	0.445313	1091	16_15_03_9087390
-0.175781	-0.697266	-0.090820	-0.253107	0.074995	-0.224984	0.726563	0.925781	0.480469	1092	16_15_03_9248680
-0.178711	-0.694336	-0.084961	-0.243732	0.084369	-0.224984	0.726563	0.914063	0.503906	1093	16_15_03_9409970
-0.175781	-0.703125	-0.087891	-0.243732	0.084369	-0.224984	0.726563	0.925781	0.480469	1094	16_15_03_9571260
-0.172852	-0.703125	-0.090820	-0.243732	0.084369	-0.224984	0.738281	0.960938	0.468750	1095	16_15_03_9732550
-0.181641	-0.703125	-0.084961	-0.243732	0.074995	-0.224984	0.726563	0.914063	0.492188	1096	16_15_03_9893840
-0.181641	-0.708984	-0.102539	-0.253107	0.074995	-0.224984	0.738281	0.867188	0.492188	1097	16_15_04_0055130
-0.175781	-0.703125	-0.087891	-0.243732	0.084369	-0.224984	0.714844	0.902344	0.492188	1098	16_15_04_0216420
-0.172852	-0.708984	-0.096680	-0.243732	0.074995	-0.224984	0.726563	0.902344	0.480469	1099	16_15_04_0377710
-0.178711	-0.708984	-0.084961	-0.253107	0.084369	-0.224984	0.726563	0.914063	0.468750	1100	16_15_04_0539000
-0.161133	-0.708984	-0.093750	-0.243732	0.074995	-0.224984	0.738281	0.937500	0.468750	1101	16_15_04_0700290
-0.172852	-0.708984	-0.090820	-0.243732	0.074995	-0.224984	0.726563	0.843750	0.468750	1102	16_15_04_0861580
-0.175781	-0.703125	-0.090820	-0.243732	0.074995	-0.224984	0.691406	0.914063	0.480469	1103	16_15_04_1022870
-0.169922	-0.711914	-0.082031	-0.243732	0.074995	-0.224984	0.726563	0.890625	0.515625	1104	16_15_04_1184160
-0.175781	-0.708984	-0.084961	-0.243732	0.084369	-0.224984	0.703125	0.878906	0.503906	1105	16_15_04_1345450
-0.178711	-0.717773	-0.090820	-0.243732	0.084369	-0.224984	0.984375	1.242188	0.503906	1106	16_15_04_1506740
-0.181641	-0.703125	-0.082031	-0.243732	0.084369	-0.224984	0.726563	0.890625	0.503906	1107	16_15_04_1668030
-0.172852	-0.700195	-0.090820	-0.243732	0.084369	-0.234358	0.738281	0.890625	0.539063	1108	16_15_04_1829320
-0.178711	-0.706055	-0.084961	-0.243732	0.084369	-0.224984	0.703125	0.890625	0.503906	1109	16_15_04_1990610
-0.175781	-0.706055	-0.090820	-0.243732	0.084369	-0.224984	0.738281	0.937500	0.480469	1110	16_15_04_2151900
-0.175781	-0.711914	-0.082031	-0.243732	0.074995	-0.224984	0.726563	0.890625	0.503906	1111	16_15_04_2313190
-0.178711	-0.706055	-0.096680	-0.243732	0.084369	-0.224984	0.726563	0.937500	0.515625	1112	16_15_04_2474480
-0.169922	-0.700195	-0.090820	-0.243732	0.084369	-0.234358	0.714844	0.937500	0.503906	1113	16_15_04_2635770
-0.175781	-0.706055	-0.096680	-0.243732	0.084369	-0.224984	0.738281	0.937500	0.468750	1114	16_15_04_2797060
-0.184570	-0.708984	-0.090820	-0.243732	0.084369	-0.224984	0.738281	0.925781	0.468750	1115	16_15_04_2958350
-0.172852	-0.700195	-0.084961	-0.243732	0.074995	-0.224984	0.738281	0.890625	0.468750	1116	16_15_04_3119640
-0.169922	-0.700195	-0.093750	-0.243732	0.074995	-0.224984	0.726563	0.949219	0.468750	1117	16_15_04_3280930
-0.169922	-0.708984	-0.090820	-0.234358	0.084369	-0.224984	0.890625	1.429688	0.515625	1118	16_15_04_3442220
-0.184570	-0.703125	-0.099609	-0.243732	0.084369	-0.224984	0.714844	0.902344	0.468750	1119	16_15_04_3603510
