sensor_ID	000666015735
Accel_X	Accel_Y	Accel_Z	Roll	Pitch	Yaw	Mag_X	Mag_Y	Mag_Z	Count	SysTime
0.249023	-0.199219	0.776367	-0.768694	-0.637454	-0.393721	-0.246094	0.363281	0.375000	0	16_14_46_3270000
0.249023	-0.199219	0.776367	-0.778068	-0.637454	-0.393721	-0.210938	0.328125	0.410156	1	16_14_46_3431290
0.266602	-0.199219	0.764648	-0.768694	-0.637454	-0.393721	-0.222656	0.339844	0.398438	2	16_14_46_3592580
0.257813	-0.202148	0.770508	-0.768694	-0.637454	-0.393721	-0.199219	0.363281	0.421875	3	16_14_46_3753870
0.251953	-0.187500	0.770508	-0.778068	-0.637454	-0.393721	-0.187500	0.398438	0.433594	4	16_14_46_3915160
0.251953	-0.190430	0.770508	-0.778068	-0.637454	-0.393721	-0.140625	0.410156	0.445313	5	16_14_46_4076450
0.249023	-0.190430	0.776367	-0.768694	-0.637454	-0.393721	-0.210938	0.375000	0.410156	6	16_14_46_4237740
0.260742	-0.205078	0.770508	-0.768694	-0.637454	-0.393721	-0.210938	0.351563	0.386719	7	16_14_46_4399030
0.257813	-0.202148	0.770508	-0.768694	-0.637454	-0.393721	-0.187500	0.339844	0.386719	8	16_14_46_4560320
0.251953	-0.199219	0.764648	-0.778068	-0.637454	-0.393721	-0.128906	0.445313	0.492188	9	16_14_46_4721610
0.257813	-0.199219	0.776367	-0.778068	-0.637454	-0.393721	-0.210938	0.386719	0.468750	10	16_14_46_4882900
0.257813	-0.199219	0.764648	-0.768694	-0.628079	-0.393721	-0.199219	0.375000	0.492188	11	16_14_46_5044190
0.254883	-0.199219	0.770508	-0.778068	-0.637454	-0.393721	-0.070313	0.445313	0.527344	12	16_14_46_5205480
0.251953	-0.187500	0.770508	-0.778068	-0.628079	-0.393721	-0.234375	0.339844	0.421875	13	16_14_46_5366770
0.257813	-0.193359	0.764648	-0.768694	-0.637454	-0.384347	-0.210938	0.386719	0.386719	14	16_14_46_5528060
0.249023	-0.190430	0.782227	-0.768694	-0.637454	-0.393721	-0.187500	0.375000	0.433594	15	16_14_46_5689350
0.246094	-0.199219	0.770508	-0.768694	-0.628079	-0.393721	-0.210938	0.375000	0.410156	16	16_14_46_5850640
0.251953	-0.187500	0.776367	-0.768694	-0.637454	-0.384347	-0.210938	0.363281	0.386719	17	16_14_46_6011930
0.254883	-0.199219	0.770508	-0.768694	-0.637454	-0.384347	-0.210938	0.386719	0.433594	18	16_14_46_6173220
0.251953	-0.193359	0.776367	-0.778068	-0.637454	-0.384347	-0.199219	0.375000	0.410156	19	16_14_46_6334510
0.246094	-0.199219	0.770508	-0.768694	-0.637454	-0.393721	-0.175781	0.375000	0.527344	20	16_14_46_6495800
0.249023	-0.202148	0.770508	-0.768694	-0.637454	-0.393721	-0.199219	0.375000	0.468750	21	16_14_46_6657090
0.263672	-0.193359	0.770508	-0.778068	-0.637454	-0.393721	-0.210938	0.351563	0.410156	22	16_14_46_6818380
0.263672	-0.202148	0.770508	-0.778068	-0.637454	-0.393721	-0.246094	0.339844	0.375000	23	16_14_46_6979670
0.254883	-0.196289	0.773438	-0.768694	-0.637454	-0.393721	-0.210938	0.375000	0.433594	24	16_14_46_7140960
0.257813	-0.199219	0.776367	-0.778068	-0.637454	-0.393721	-0.199219	0.375000	0.445313	25	16_14_46_7302250
0.263672	-0.199219	0.773438	-0.778068	-0.637454	-0.393721	-0.199219	0.375000	0.421875	26	16_14_46_7463540
0.254883	-0.199219	0.770508	-0.768694	-0.637454	-0.393721	0.093750	0.585938	0.445313	27	16_14_46_7624830
0.254883	-0.187500	0.773438	-0.768694	-0.637454	-0.393721	-0.187500	0.328125	0.457031	28	16_14_46_7786120
0.257813	-0.202148	0.752930	-0.768694	-0.628079	-0.393721	-0.210938	0.351563	0.445313	29	16_14_46_7947410
0.260742	-0.184570	0.767578	-0.778068	-0.637454	-0.393721	-0.210938	0.375000	0.375000	30	16_14_46_8108700
0.249023	-0.193359	0.761719	-0.778068	-0.637454	-0.393721	-0.210938	0.375000	0.386719	31	16_14_46_8269990
0.251953	-0.193359	0.770508	-0.768694	-0.628079	-0.393721	-0.210938	0.386719	0.445313	32	16_14_46_8431280
0.251953	-0.196289	0.764648	-0.768694	-0.637454	-0.393721	-0.199219	0.375000	0.433594	33	16_14_46_8592570
0.251953	-0.202148	0.770508	-0.787443	-0.637454	-0.393721	0.070313	0.527344	0.433594	34	16_14_46_8753860
0.254883	-0.190430	0.770508	-0.778068	-0.637454	-0.393721	-0.210938	0.375000	0.398438	35	16_14_46_8915150
0.246094	-0.196289	0.770508	-0.768694	-0.637454	-0.393721	-0.199219	0.351563	0.410156	36	16_14_46_9076440
0.266602	-0.193359	0.764648	-0.768694	-0.637454	-0.393721	-0.222656	0.351563	0.421875	37	16_14_46_9237730
0.251953	-0.190430	0.764648	-0.778068	-0.637454	-0.393721	-0.199219	0.328125	0.433594	38	16_14_46_9399020
0.257813	-0.193359	0.761719	-0.778068	-0.637454	-0.393721	-0.234375	0.351563	0.421875	39	16_14_46_9560310
0.249023	-0.196289	0.773438	-0.768694	-0.637454	-0.384347	-0.210938	0.351563	0.410156	40	16_14_46_9721600
0.243164	-0.205078	0.764648	-0.768694	-0.637454	-0.393721	-0.210938	0.375000	0.421875	41	16_14_46_9882890
0.254883	-0.190430	0.767578	-0.778068	-0.646828	-0.393721	-0.210938	0.375000	0.421875	42	16_14_47_0044180
0.257813	-0.196289	0.770508	-0.768694	-0.637454	-0.393721	-0.187500	0.375000	0.410156	43	16_14_47_0205470
0.254883	-0.196289	0.770508	-0.778068	-0.637454	-0.393721	-0.187500	0.351563	0.398438	44	16_14_47_0366760
0.254883	-0.196289	0.770508	-0.768694	-0.637454	-0.393721	-0.035156	0.480469	0.457031	45	16_14_47_0528050
0.257813	-0.190430	0.758789	-0.778068	-0.637454	-0.393721	-0.199219	0.351563	0.457031	46	16_14_47_0689340
0.246094	-0.193359	0.767578	-0.778068	-0.637454	-0.393721	-0.187500	0.398438	0.445313	47	16_14_47_0850630
0.254883	-0.205078	0.764648	-0.778068	-0.637454	-0.393721	-0.199219	0.375000	0.492188	48	16_14_47_1011920
0.251953	-0.193359	0.770508	-0.778068	-0.637454	-0.384347	-0.187500	0.375000	0.480469	49	16_14_47_1173210
0.249023	-0.193359	0.767578	-0.768694	-0.637454	-0.393721	-0.222656	0.351563	0.433594	50	16_14_47_1334500
0.249023	-0.193359	0.776367	-0.778068	-0.637454	-0.393721	-0.210938	0.351563	0.433594	51	16_14_47_1495790
0.260742	-0.196289	0.776367	-0.778068	-0.646828	-0.393721	-0.210938	0.351563	0.433594	52	16_14_47_1657080
0.257813	-0.205078	0.764648	-0.778068	-0.637454	-0.393721	-0.175781	0.363281	0.421875	53	16_14_47_1818370
0.260742	-0.205078	0.770508	-0.778068	-0.637454	-0.393721	-0.035156	0.445313	0.503906	54	16_14_47_1979660
0.249023	-0.202148	0.776367	-0.768694	-0.637454	-0.393721	-0.222656	0.363281	0.433594	55	16_14_47_2140950
0.251953	-0.187500	0.776367	-0.778068	-0.637454	-0.393721	-0.210938	0.339844	0.398438	56	16_14_47_2302240
0.257813	-0.199219	0.767578	-0.768694	-0.637454	-0.393721	-0.199219	0.351563	0.398438	57	16_14_47_2463530
0.257813	-0.202148	0.761719	-0.768694	-0.637454	-0.393721	0.082031	0.679688	0.550781	58	16_14_47_2624820
0.251953	-0.202148	0.770508	-0.768694	-0.637454	-0.393721	-0.210938	0.363281	0.398438	59	16_14_47_2786110
0.251953	-0.202148	0.764648	-0.778068	-0.637454	-0.384347	-0.210938	0.351563	0.386719	60	16_14_47_2947400
0.243164	-0.190430	0.770508	-0.759320	-0.637454	-0.384347	-0.199219	0.375000	0.433594	61	16_14_47_3108690
0.260742	-0.196289	0.767578	-0.768694	-0.637454	-0.393721	-0.199219	0.375000	0.433594	62	16_14_47_3269980
0.251953	-0.202148	0.764648	-0.778068	-0.628079	-0.393721	-0.234375	0.351563	0.421875	63	16_14_47_3431270
0.251953	-0.205078	0.770508	-0.768694	-0.637454	-0.393721	-0.187500	0.375000	0.445313	64	16_14_47_3592560
0.251953	-0.202148	0.764648	-0.778068	-0.637454	-0.393721	-0.210938	0.363281	0.445313	65	16_14_47_3753850
0.240234	-0.193359	0.761719	-0.768694	-0.637454	-0.384347	-0.210938	0.339844	0.386719	66	16_14_47_3915140
0.246094	-0.196289	0.770508	-0.778068	-0.637454	-0.384347	0.000000	0.468750	0.457031	67	16_14_47_4076430
0.254883	-0.193359	0.758789	-0.778068	-0.637454	-0.393721	-0.210938	0.363281	0.433594	68	16_14_47_4237720
0.246094	-0.196289	0.764648	-0.768694	-0.637454	-0.393721	-0.210938	0.351563	0.457031	69	16_14_47_4399010
0.266602	-0.193359	0.761719	-0.768694	-0.637454	-0.393721	-0.210938	0.375000	0.433594	70	16_14_47_4560300
0.263672	-0.193359	0.773438	-0.768694	-0.637454	-0.393721	-0.210938	0.363281	0.363281	71	16_14_47_4721590
0.251953	-0.196289	0.764648	-0.768694	-0.637454	-0.393721	-0.210938	0.351563	0.351563	72	16_14_47_4882880
0.260742	-0.205078	0.767578	-0.768694	-0.637454	-0.393721	-0.210938	0.375000	0.375000	73	16_14_47_5044170
0.251953	-0.196289	0.770508	-0.778068	-0.637454	-0.393721	-0.035156	0.527344	0.468750	74	16_14_47_5205460
0.257813	-0.196289	0.764648	-0.778068	-0.637454	-0.393721	-0.011719	0.445313	0.503906	75	16_14_47_5366750
0.260742	-0.193359	0.767578	-0.787443	-0.637454	-0.393721	-0.246094	0.386719	0.410156	76	16_14_47_5528040
0.251953	-0.196289	0.773438	-0.768694	-0.637454	-0.393721	-0.199219	0.375000	0.421875	77	16_14_47_5689330
0.249023	-0.199219	0.776367	-0.778068	-0.637454	-0.393721	-0.199219	0.363281	0.410156	78	16_14_47_5850620
0.251953	-0.193359	0.764648	-0.778068	-0.637454	-0.393721	-0.222656	0.351563	0.375000	79	16_14_47_6011910
0.263672	-0.187500	0.770508	-0.768694	-0.637454	-0.393721	-0.210938	0.386719	0.386719	80	16_14_47_6173200
0.254883	-0.199219	0.779297	-0.768694	-0.637454	-0.393721	-0.199219	0.515625	0.527344	81	16_14_47_6334490
0.254883	-0.193359	0.773438	-0.778068	-0.637454	-0.393721	-0.187500	0.375000	0.375000	82	16_14_47_6495780
0.257813	-0.199219	0.770508	-0.778068	-0.637454	-0.393721	-0.199219	0.375000	0.398438	83	16_14_47_6657070
0.257813	-0.193359	0.773438	-0.778068	-0.637454	-0.393721	-0.210938	0.375000	0.457031	84	16_14_47_6818360
0.249023	-0.193359	0.764648	-0.778068	-0.637454	-0.393721	0.011719	0.539063	0.539063	85	16_14_47_6979650
0.254883	-0.196289	0.770508	-0.778068	-0.637454	-0.393721	0.000000	0.527344	0.503906	86	16_14_47_7140940
0.257813	-0.199219	0.776367	-0.768694	-0.637454	-0.393721	-0.234375	0.375000	0.386719	87	16_14_47_7302230
0.251953	-0.199219	0.770508	-0.768694	-0.637454	-0.393721	-0.222656	0.375000	0.386719	88	16_14_47_7463520
0.249023	-0.205078	0.758789	-0.768694	-0.637454	-0.393721	-0.210938	0.375000	0.433594	89	16_14_47_7624810
0.266602	-0.193359	0.770508	-0.768694	-0.637454	-0.393721	-0.175781	0.375000	0.421875	90	16_14_47_7786100
0.254883	-0.187500	0.773438	-0.768694	-0.637454	-0.393721	-0.234375	0.375000	0.386719	91	16_14_47_7947390
0.251953	-0.196289	0.770508	-0.778068	-0.637454	-0.393721	-0.105469	0.445313	0.375000	92	16_14_47_8108680
0.257813	-0.205078	0.764648	-0.778068	-0.637454	-0.393721	-0.210938	0.375000	0.386719	93	16_14_47_8269970
0.249023	-0.193359	0.767578	-0.778068	-0.628079	-0.393721	-0.164063	0.363281	0.410156	94	16_14_47_8431260
0.249023	-0.205078	0.770508	-0.778068	-0.637454	-0.393721	-0.187500	0.386719	0.410156	95	16_14_47_8592550
0.257813	-0.202148	0.758789	-0.768694	-0.637454	-0.393721	-0.164063	0.386719	0.433594	96	16_14_47_8753840
0.260742	-0.199219	0.767578	-0.768694	-0.637454	-0.393721	-0.210938	0.375000	0.410156	97	16_14_47_8915130
0.257813	-0.199219	0.767578	-0.778068	-0.637454	-0.393721	-0.210938	0.363281	0.433594	98	16_14_47_9076420
0.260742	-0.202148	0.761719	-0.768694	-0.637454	-0.393721	-0.222656	0.351563	0.445313	99	16_14_47_9237710
0.257813	-0.202148	0.761719	-0.778068	-0.637454	-0.393721	0.035156	0.855469	0.457031	100	16_14_47_9399000
0.249023	-0.196289	0.773438	-0.778068	-0.637454	-0.393721	-0.140625	0.703125	0.527344	101	16_14_47_9560290
0.251953	-0.187500	0.764648	-0.768694	-0.637454	-0.393721	-0.210938	0.375000	0.421875	102	16_14_47_9721580
0.263672	-0.190430	0.770508	-0.778068	-0.637454	-0.393721	-0.175781	0.375000	0.398438	103	16_14_47_9882870
0.234375	-0.193359	0.770508	-0.787443	-0.637454	-0.393721	-0.070313	0.492188	0.410156	104	16_14_48_0044160
0.260742	-0.202148	0.767578	-0.768694	-0.646828	-0.393721	-0.187500	0.351563	0.410156	105	16_14_48_0205450
0.237305	-0.193359	0.764648	-0.768694	-0.637454	-0.393721	-0.234375	0.375000	0.468750	106	16_14_48_0366740
0.249023	-0.190430	0.770508	-0.768694	-0.637454	-0.393721	-0.257813	0.375000	0.492188	107	16_14_48_0528030
0.251953	-0.199219	0.764648	-0.778068	-0.637454	-0.393721	-0.175781	0.386719	0.398438	108	16_14_48_0689320
0.246094	-0.199219	0.770508	-0.768694	-0.637454	-0.393721	-0.199219	0.375000	0.398438	109	16_14_48_0850610
0.254883	-0.196289	0.770508	-0.768694	-0.637454	-0.393721	-0.210938	0.363281	0.445313	110	16_14_48_1011900
0.251953	-0.184570	0.761719	-0.768694	-0.637454	-0.393721	-0.234375	0.351563	0.480469	111	16_14_48_1173190
0.257813	-0.196289	0.767578	-0.768694	-0.637454	-0.393721	-0.210938	0.375000	0.457031	112	16_14_48_1334480
0.260742	-0.196289	0.767578	-0.768694	-0.637454	-0.393721	-0.222656	0.375000	0.433594	113	16_14_48_1495770
0.254883	-0.196289	0.767578	-0.778068	-0.637454	-0.393721	-0.187500	0.351563	0.468750	114	16_14_48_1657060
0.246094	-0.202148	0.773438	-0.778068	-0.637454	-0.393721	-0.234375	0.351563	0.410156	115	16_14_48_1818350
0.260742	-0.196289	0.770508	-0.778068	-0.637454	-0.393721	-0.199219	0.375000	0.421875	116	16_14_48_1979640
0.257813	-0.199219	0.767578	-0.768694	-0.628079	-0.393721	-0.164063	0.375000	0.410156	117	16_14_48_2140930
0.260742	-0.193359	0.773438	-0.768694	-0.637454	-0.393721	-0.187500	0.363281	0.363281	118	16_14_48_2302220
0.251953	-0.184570	0.770508	-0.778068	-0.637454	-0.384347	-0.199219	0.351563	0.421875	119	16_14_48_2463510
0.254883	-0.190430	0.770508	-0.778068	-0.637454	-0.393721	-0.246094	0.375000	0.468750	120	16_14_48_2624800
0.240234	-0.193359	0.776367	-0.768694	-0.637454	-0.393721	-0.210938	0.375000	0.445313	121	16_14_48_2786090
0.263672	-0.193359	0.761719	-0.778068	-0.637454	-0.393721	-0.210938	0.375000	0.433594	122	16_14_48_2947380
0.260742	-0.199219	0.776367	-0.768694	-0.637454	-0.393721	-0.210938	0.375000	0.421875	123	16_14_48_3108670
0.251953	-0.199219	0.770508	-0.768694	-0.637454	-0.393721	-0.210938	0.351563	0.410156	124	16_14_48_3269960
0.249023	-0.193359	0.770508	-0.778068	-0.637454	-0.393721	-0.222656	0.351563	0.410156	125	16_14_48_3431250
0.243164	-0.196289	0.773438	-0.778068	-0.637454	-0.393721	-0.210938	0.363281	0.410156	126	16_14_48_3592540
0.254883	-0.190430	0.764648	-0.768694	-0.637454	-0.393721	-0.210938	0.375000	0.457031	127	16_14_48_3753830
0.260742	-0.199219	0.764648	-0.778068	-0.637454	-0.393721	-0.210938	0.363281	0.421875	128	16_14_48_3915120
0.246094	-0.199219	0.764648	-0.768694	-0.637454	-0.393721	-0.210938	0.351563	0.398438	129	16_14_48_4076410
0.263672	-0.190430	0.770508	-0.778068	-0.637454	-0.393721	-0.210938	0.363281	0.398438	130	16_14_48_4237700
0.257813	-0.199219	0.764648	-0.778068	-0.637454	-0.384347	0.070313	0.820313	0.468750	131	16_14_48_4398990
0.251953	-0.199219	0.770508	-0.778068	-0.637454	-0.393721	-0.152344	0.398438	0.421875	132	16_14_48_4560280
0.257813	-0.193359	0.773438	-0.768694	-0.637454	-0.393721	-0.222656	0.339844	0.363281	133	16_14_48_4721570
0.254883	-0.190430	0.764648	-0.768694	-0.637454	-0.393721	-0.210938	0.351563	0.375000	134	16_14_48_4882860
0.251953	-0.193359	0.770508	-0.778068	-0.637454	-0.393721	-0.105469	0.457031	0.445313	135	16_14_48_5044150
0.246094	-0.205078	0.761719	-0.778068	-0.637454	-0.393721	-0.199219	0.375000	0.386719	136	16_14_48_5205440
0.251953	-0.193359	0.770508	-0.768694	-0.637454	-0.384347	-0.210938	0.351563	0.445313	137	16_14_48_5366730
0.251953	-0.190430	0.773438	-0.768694	-0.637454	-0.393721	-0.187500	0.363281	0.468750	138	16_14_48_5528020
0.251953	-0.196289	0.764648	-0.778068	-0.637454	-0.384347	-0.210938	0.398438	0.375000	139	16_14_48_5689310
0.251953	-0.193359	0.767578	-0.768694	-0.637454	-0.384347	-0.187500	0.375000	0.375000	140	16_14_48_5850600
0.246094	-0.205078	0.770508	-0.768694	-0.637454	-0.393721	-0.210938	0.363281	0.386719	141	16_14_48_6011890
0.249023	-0.190430	0.776367	-0.778068	-0.637454	-0.393721	-0.234375	0.351563	0.410156	142	16_14_48_6173180
0.251953	-0.193359	0.764648	-0.778068	-0.637454	-0.393721	-0.152344	0.433594	0.410156	143	16_14_48_6334470
0.251953	-0.193359	0.770508	-0.768694	-0.637454	-0.393721	-0.234375	0.363281	0.363281	144	16_14_48_6495760
0.254883	-0.199219	0.767578	-0.778068	-0.637454	-0.393721	-0.257813	0.339844	0.375000	145	16_14_48_6657050
0.249023	-0.205078	0.770508	-0.768694	-0.628079	-0.393721	-0.234375	0.363281	0.398438	146	16_14_48_6818340
0.246094	-0.190430	0.770508	-0.778068	-0.637454	-0.393721	-0.210938	0.375000	0.433594	147	16_14_48_6979630
0.249023	-0.184570	0.773438	-0.768694	-0.637454	-0.384347	-0.222656	0.375000	0.433594	148	16_14_48_7140920
0.251953	-0.187500	0.776367	-0.778068	-0.637454	-0.393721	0.023438	0.515625	0.492188	149	16_14_48_7302210
0.249023	-0.187500	0.770508	-0.768694	-0.637454	-0.393721	-0.199219	0.375000	0.433594	150	16_14_48_7463500
0.260742	-0.199219	0.761719	-0.778068	-0.637454	-0.393721	-0.222656	0.375000	0.445313	151	16_14_48_7624790
0.254883	-0.199219	0.776367	-0.768694	-0.637454	-0.393721	-0.210938	0.386719	0.410156	152	16_14_48_7786080
0.257813	-0.199219	0.770508	-0.768694	-0.637454	-0.393721	-0.210938	0.363281	0.386719	153	16_14_48_7947370
0.257813	-0.199219	0.767578	-0.759320	-0.637454	-0.393721	-0.210938	0.351563	0.363281	154	16_14_48_8108660
0.260742	-0.193359	0.773438	-0.768694	-0.637454	-0.393721	-0.117188	0.433594	0.433594	155	16_14_48_8269950
0.254883	-0.190430	0.773438	-0.768694	-0.637454	-0.393721	-0.210938	0.351563	0.492188	156	16_14_48_8431240
0.251953	-0.193359	0.770508	-0.778068	-0.637454	-0.393721	-0.164063	0.363281	0.480469	157	16_14_48_8592530
0.257813	-0.196289	0.767578	-0.768694	-0.637454	-0.393721	-0.187500	0.363281	0.398438	158	16_14_48_8753820
0.254883	-0.199219	0.770508	-0.778068	-0.637454	-0.393721	-0.199219	0.351563	0.445313	159	16_14_48_8915110
0.257813	-0.193359	0.770508	-0.778068	-0.637454	-0.393721	-0.210938	0.375000	0.457031	160	16_14_48_9076400
0.257813	-0.202148	0.764648	-0.778068	-0.637454	-0.393721	-0.210938	0.351563	0.410156	161	16_14_48_9237690
0.254883	-0.208008	0.770508	-0.768694	-0.637454	-0.393721	-0.187500	0.363281	0.445313	162	16_14_48_9398980
0.254883	-0.202148	0.770508	-0.778068	-0.637454	-0.393721	-0.105469	0.703125	0.527344	163	16_14_48_9560270
0.257813	-0.193359	0.770508	-0.768694	-0.637454	-0.393721	-0.210938	0.363281	0.445313	164	16_14_48_9721560
0.251953	-0.190430	0.773438	-0.768694	-0.637454	-0.393721	-0.140625	0.421875	0.457031	165	16_14_48_9882850
0.260742	-0.202148	0.764648	-0.768694	-0.637454	-0.393721	-0.187500	0.375000	0.421875	166	16_14_49_0044140
0.254883	-0.190430	0.770508	-0.778068	-0.637454	-0.393721	-0.199219	0.375000	0.410156	167	16_14_49_0205430
0.251953	-0.190430	0.770508	-0.768694	-0.637454	-0.393721	-0.222656	0.339844	0.386719	168	16_14_49_0366720
0.249023	-0.202148	0.764648	-0.768694	-0.637454	-0.393721	-0.210938	0.351563	0.421875	169	16_14_49_0528010
0.251953	-0.199219	0.770508	-0.778068	-0.637454	-0.393721	-0.222656	0.375000	0.410156	170	16_14_49_0689300
0.254883	-0.193359	0.761719	-0.768694	-0.637454	-0.393721	-0.210938	0.328125	0.363281	171	16_14_49_0850590
0.251953	-0.193359	0.776367	-0.768694	-0.637454	-0.393721	-0.187500	0.304688	0.386719	172	16_14_49_1011880
0.263672	-0.190430	0.770508	-0.768694	-0.637454	-0.393721	-0.210938	0.363281	0.386719	173	16_14_49_1173170
0.251953	-0.199219	0.767578	-0.768694	-0.637454	-0.393721	-0.175781	0.375000	0.410156	174	16_14_49_1334460
0.257813	-0.199219	0.761719	-0.768694	-0.637454	-0.393721	-0.164063	0.375000	0.433594	175	16_14_49_1495750
0.254883	-0.193359	0.767578	-0.768694	-0.637454	-0.384347	-0.199219	0.375000	0.421875	176	16_14_49_1657040
0.254883	-0.196289	0.767578	-0.778068	-0.637454	-0.393721	-0.210938	0.363281	0.386719	177	16_14_49_1818330
0.251953	-0.193359	0.761719	-0.768694	-0.637454	-0.393721	-0.222656	0.339844	0.386719	178	16_14_49_1979620
0.257813	-0.202148	0.767578	-0.768694	-0.637454	-0.393721	-0.210938	0.363281	0.375000	179	16_14_49_2140910
0.257813	-0.202148	0.770508	-0.768694	-0.637454	-0.393721	0.035156	0.503906	0.480469	180	16_14_49_2302200
0.251953	-0.196289	0.758789	-0.768694	-0.637454	-0.393721	-0.210938	0.375000	0.445313	181	16_14_49_2463490
0.254883	-0.187500	0.770508	-0.778068	-0.637454	-0.393721	-0.187500	0.363281	0.468750	182	16_14_49_2624780
0.251953	-0.193359	0.776367	-0.778068	-0.637454	-0.393721	-0.175781	0.363281	0.433594	183	16_14_49_2786070
0.246094	-0.199219	0.779297	-0.768694	-0.637454	-0.393721	-0.187500	0.328125	0.445313	184	16_14_49_2947360
0.251953	-0.193359	0.761719	-0.778068	-0.637454	-0.393721	-0.199219	0.351563	0.445313	185	16_14_49_3108650
0.249023	-0.196289	0.770508	-0.778068	-0.637454	-0.393721	-0.210938	0.375000	0.421875	186	16_14_49_3269940
0.231445	-0.199219	0.776367	-0.778068	-0.637454	-0.393721	-0.210938	0.363281	0.410156	187	16_14_49_3431230
0.251953	-0.196289	0.761719	-0.778068	-0.637454	-0.393721	-0.187500	0.386719	0.445313	188	16_14_49_3592520
0.257813	-0.193359	0.770508	-0.778068	-0.637454	-0.384347	-0.210938	0.363281	0.433594	189	16_14_49_3753810
0.254883	-0.208008	0.773438	-0.768694	-0.637454	-0.393721	-0.234375	0.351563	0.433594	190	16_14_49_3915100
0.251953	-0.199219	0.770508	-0.768694	-0.637454	-0.393721	-0.164063	0.363281	0.503906	191	16_14_49_4076390
0.249023	-0.190430	0.773438	-0.768694	-0.637454	-0.393721	-0.222656	0.339844	0.433594	192	16_14_49_4237680
0.243164	-0.196289	0.770508	-0.778068	-0.637454	-0.384347	-0.210938	0.375000	0.421875	193	16_14_49_4398970
0.251953	-0.196289	0.764648	-0.768694	-0.637454	-0.393721	-0.210938	0.375000	0.433594	194	16_14_49_4560260
0.257813	-0.196289	0.761719	-0.768694	-0.637454	-0.384347	-0.234375	0.363281	0.386719	195	16_14_49_4721550
0.263672	-0.187500	0.770508	-0.768694	-0.637454	-0.393721	-0.187500	0.363281	0.445313	196	16_14_49_4882840
0.254883	-0.196289	0.770508	-0.768694	-0.637454	-0.393721	-0.210938	0.351563	0.468750	197	16_14_49_5044130
0.251953	-0.196289	0.758789	-0.787443	-0.637454	-0.393721	-0.058594	0.527344	0.410156	198	16_14_49_5205420
0.257813	-0.193359	0.776367	-0.778068	-0.637454	-0.393721	-0.210938	0.386719	0.363281	199	16_14_49_5366710
0.249023	-0.196289	0.767578	-0.768694	-0.637454	-0.393721	-0.210938	0.375000	0.421875	200	16_14_49_5528000
0.260742	-0.196289	0.770508	-0.768694	-0.637454	-0.393721	-0.210938	0.375000	0.445313	201	16_14_49_5689290
0.257813	-0.199219	0.779297	-0.778068	-0.637454	-0.393721	-0.140625	0.410156	0.398438	202	16_14_49_5850580
0.263672	-0.199219	0.770508	-0.768694	-0.637454	-0.393721	-0.187500	0.386719	0.386719	203	16_14_49_6011870
0.254883	-0.193359	0.764648	-0.778068	-0.637454	-0.393721	-0.210938	0.351563	0.386719	204	16_14_49_6173160
0.263672	-0.187500	0.776367	-0.768694	-0.637454	-0.393721	-0.187500	0.316406	0.363281	205	16_14_49_6334450
0.251953	-0.205078	0.770508	-0.768694	-0.637454	-0.384347	-0.199219	0.351563	0.386719	206	16_14_49_6495740
0.257813	-0.190430	0.770508	-0.768694	-0.637454	-0.393721	-0.164063	0.410156	0.421875	207	16_14_49_6657030
0.251953	-0.199219	0.770508	-0.778068	-0.637454	-0.393721	-0.210938	0.363281	0.421875	208	16_14_49_6818320
0.240234	-0.193359	0.758789	-0.778068	-0.637454	-0.393721	-0.187500	0.339844	0.433594	209	16_14_49_6979610
0.249023	-0.190430	0.770508	-0.768694	-0.637454	-0.403096	-0.222656	0.351563	0.398438	210	16_14_49_7140900
0.257813	-0.196289	0.767578	-0.778068	-0.637454	-0.393721	-0.210938	0.292969	0.410156	211	16_14_49_7302190
0.257813	-0.202148	0.758789	-0.778068	-0.637454	-0.393721	-0.199219	0.363281	0.410156	212	16_14_49_7463480
0.251953	-0.187500	0.773438	-0.759320	-0.637454	-0.384347	-0.199219	0.375000	0.433594	213	16_14_49_7624770
0.249023	-0.199219	0.770508	-0.778068	-0.637454	-0.393721	-0.257813	0.339844	0.421875	214	16_14_49_7786060
0.251953	-0.187500	0.773438	-0.778068	-0.637454	-0.393721	-0.210938	0.375000	0.375000	215	16_14_49_7947350
0.249023	-0.196289	0.776367	-0.768694	-0.637454	-0.393721	-0.234375	0.386719	0.410156	216	16_14_49_8108640
0.251953	-0.199219	0.773438	-0.778068	-0.646828	-0.393721	-0.199219	0.375000	0.410156	217	16_14_49_8269930
0.249023	-0.199219	0.761719	-0.768694	-0.637454	-0.393721	-0.187500	0.363281	0.375000	218	16_14_49_8431220
0.254883	-0.187500	0.770508	-0.768694	-0.637454	-0.393721	-0.210938	0.351563	0.410156	219	16_14_49_8592510
0.254883	-0.190430	0.770508	-0.778068	-0.637454	-0.393721	-0.199219	0.375000	0.433594	220	16_14_49_8753800
0.254883	-0.181641	0.770508	-0.778068	-0.637454	-0.393721	-0.187500	0.375000	0.410156	221	16_14_49_8915090
0.260742	-0.190430	0.764648	-0.768694	-0.637454	-0.393721	-0.199219	0.351563	0.433594	222	16_14_49_9076380
0.263672	-0.193359	0.776367	-0.778068	-0.637454	-0.393721	-0.246094	0.304688	0.468750	223	16_14_49_9237670
0.254883	-0.208008	0.770508	-0.778068	-0.637454	-0.393721	-0.187500	0.316406	0.457031	224	16_14_49_9398960
0.257813	-0.193359	0.770508	-0.787443	-0.637454	-0.393721	0.058594	0.796875	0.527344	225	16_14_49_9560250
0.260742	-0.196289	0.776367	-0.768694	-0.637454	-0.393721	-0.222656	0.351563	0.410156	226	16_14_49_9721540
0.263672	-0.190430	0.764648	-0.778068	-0.637454	-0.393721	-0.234375	0.363281	0.410156	227	16_14_49_9882830
0.254883	-0.193359	0.770508	-0.778068	-0.637454	-0.393721	-0.210938	0.351563	0.386719	228	16_14_50_0044120
0.234375	-0.208008	0.773438	-0.768694	-0.637454	-0.384347	-0.199219	0.339844	0.363281	229	16_14_50_0205410
0.260742	-0.190430	0.764648	-0.759320	-0.637454	-0.393721	-0.222656	0.339844	0.375000	230	16_14_50_0366700
0.260742	-0.199219	0.770508	-0.768694	-0.637454	-0.393721	-0.199219	0.351563	0.421875	231	16_14_50_0527990
0.263672	-0.205078	0.770508	-0.768694	-0.637454	-0.393721	-0.210938	0.386719	0.421875	232	16_14_50_0689280
0.260742	-0.205078	0.761719	-0.768694	-0.637454	-0.393721	-0.234375	0.375000	0.410156	233	16_14_50_0850570
0.260742	-0.190430	0.761719	-0.768694	-0.637454	-0.393721	-0.210938	0.351563	0.410156	234	16_14_50_1011860
0.263672	-0.199219	0.761719	-0.768694	-0.637454	-0.393721	-0.222656	0.386719	0.410156	235	16_14_50_1173150
0.254883	-0.187500	0.770508	-0.778068	-0.637454	-0.393721	-0.210938	0.363281	0.375000	236	16_14_50_1334440
0.257813	-0.202148	0.770508	-0.778068	-0.637454	-0.393721	-0.210938	0.468750	0.621094	237	16_14_50_1495730
0.257813	-0.196289	0.764648	-0.778068	-0.637454	-0.393721	-0.187500	0.386719	0.457031	238	16_14_50_1657020
0.263672	-0.193359	0.770508	-0.778068	-0.637454	-0.393721	-0.199219	0.386719	0.398438	239	16_14_50_1818310
0.257813	-0.193359	0.773438	-0.768694	-0.637454	-0.393721	-0.222656	0.375000	0.386719	240	16_14_50_1979600
0.257813	-0.199219	0.770508	-0.768694	-0.637454	-0.393721	-0.199219	0.351563	0.398438	241	16_14_50_2140890
0.260742	-0.202148	0.773438	-0.768694	-0.637454	-0.393721	-0.164063	0.351563	0.386719	242	16_14_50_2302180
0.254883	-0.190430	0.770508	-0.768694	-0.637454	-0.393721	-0.199219	0.386719	0.363281	243	16_14_50_2463470
0.260742	-0.187500	0.770508	-0.778068	-0.637454	-0.393721	-0.210938	0.375000	0.375000	244	16_14_50_2624760
0.249023	-0.193359	0.770508	-0.778068	-0.637454	-0.393721	-0.222656	0.339844	0.421875	245	16_14_50_2786050
0.254883	-0.193359	0.770508	-0.768694	-0.637454	-0.393721	-0.222656	0.328125	0.421875	246	16_14_50_2947340
0.249023	-0.196289	0.776367	-0.778068	-0.637454	-0.393721	-0.140625	0.398438	0.433594	247	16_14_50_3108630
0.246094	-0.202148	0.770508	-0.778068	-0.637454	-0.393721	-0.222656	0.339844	0.445313	248	16_14_50_3269920
0.254883	-0.187500	0.773438	-0.768694	-0.637454	-0.384347	-0.187500	0.410156	0.457031	249	16_14_50_3431210
0.257813	-0.193359	0.776367	-0.778068	-0.637454	-0.393721	-0.187500	0.375000	0.421875	250	16_14_50_3592500
0.251953	-0.202148	0.770508	-0.787443	-0.637454	-0.403096	0.011719	0.492188	0.468750	251	16_14_50_3753790
0.260742	-0.193359	0.776367	-0.778068	-0.628079	-0.393721	-0.210938	0.375000	0.410156	252	16_14_50_3915080
0.251953	-0.208008	0.761719	-0.778068	-0.637454	-0.393721	-0.199219	0.386719	0.457031	253	16_14_50_4076370
0.263672	-0.199219	0.779297	-0.778068	-0.637454	-0.393721	0.210938	0.726563	0.503906	254	16_14_50_4237660
0.251953	-0.190430	0.767578	-0.778068	-0.637454	-0.393721	-0.187500	0.375000	0.445313	255	16_14_50_4398950
0.251953	-0.199219	0.767578	-0.778068	-0.637454	-0.393721	-0.222656	0.375000	0.386719	256	16_14_50_4560240
0.240234	-0.193359	0.767578	-0.768694	-0.637454	-0.384347	-0.210938	0.375000	0.351563	257	16_14_50_4721530
0.251953	-0.193359	0.770508	-0.768694	-0.637454	-0.384347	-0.234375	0.375000	0.339844	258	16_14_50_4882820
0.251953	-0.193359	0.776367	-0.778068	-0.637454	-0.393721	-0.117188	0.433594	0.410156	259	16_14_50_5044110
0.251953	-0.193359	0.776367	-0.778068	-0.637454	-0.393721	-0.199219	0.363281	0.410156	260	16_14_50_5205400
0.249023	-0.190430	0.770508	-0.778068	-0.637454	-0.393721	0.070313	0.562500	0.503906	261	16_14_50_5366690
0.257813	-0.196289	0.761719	-0.768694	-0.637454	-0.403096	-0.210938	0.386719	0.445313	262	16_14_50_5527980
0.251953	-0.190430	0.770508	-0.778068	-0.637454	-0.393721	-0.164063	0.363281	0.398438	263	16_14_50_5689270
0.246094	-0.199219	0.770508	-0.778068	-0.637454	-0.393721	0.152344	0.550781	0.550781	264	16_14_50_5850560
0.257813	-0.199219	0.770508	-0.768694	-0.637454	-0.393721	-0.210938	0.363281	0.445313	265	16_14_50_6011850
0.257813	-0.205078	0.761719	-0.778068	-0.637454	-0.393721	-0.210938	0.351563	0.421875	266	16_14_50_6173140
0.263672	-0.199219	0.758789	-0.778068	-0.637454	-0.393721	-0.199219	0.375000	0.468750	267	16_14_50_6334430
0.260742	-0.199219	0.770508	-0.778068	-0.637454	-0.393721	-0.222656	0.363281	0.492188	268	16_14_50_6495720
0.251953	-0.199219	0.767578	-0.778068	-0.637454	-0.393721	-0.187500	0.363281	0.445313	269	16_14_50_6657010
0.251953	-0.196289	0.770508	-0.778068	-0.637454	-0.393721	-0.234375	0.375000	0.421875	270	16_14_50_6818300
0.263672	-0.193359	0.773438	-0.778068	-0.637454	-0.393721	-0.199219	0.351563	0.468750	271	16_14_50_6979590
0.251953	-0.196289	0.764648	-0.768694	-0.637454	-0.393721	-0.234375	0.363281	0.445313	272	16_14_50_7140880
0.251953	-0.193359	0.770508	-0.778068	-0.637454	-0.393721	-0.222656	0.351563	0.445313	273	16_14_50_7302170
0.251953	-0.196289	0.770508	-0.768694	-0.637454	-0.393721	-0.210938	0.375000	0.468750	274	16_14_50_7463460
0.257813	-0.196289	0.773438	-0.778068	-0.637454	-0.393721	-0.234375	0.339844	0.421875	275	16_14_50_7624750
0.257813	-0.199219	0.770508	-0.778068	-0.637454	-0.393721	-0.152344	0.351563	0.410156	276	16_14_50_7786040
0.257813	-0.202148	0.773438	-0.768694	-0.637454	-0.393721	-0.187500	0.328125	0.375000	277	16_14_50_7947330
0.249023	-0.187500	0.764648	-0.778068	-0.637454	-0.393721	-0.257813	0.339844	0.339844	278	16_14_50_8108620
0.251953	-0.202148	0.770508	-0.768694	-0.637454	-0.393721	-0.210938	0.375000	0.351563	279	16_14_50_8269910
0.254883	-0.193359	0.764648	-0.768694	-0.637454	-0.403096	-0.210938	0.375000	0.386719	280	16_14_50_8431200
0.249023	-0.193359	0.770508	-0.778068	-0.637454	-0.393721	-0.175781	0.375000	0.410156	281	16_14_50_8592490
0.249023	-0.210938	0.773438	-0.778068	-0.637454	-0.384347	-0.222656	0.375000	0.410156	282	16_14_50_8753780
0.257813	-0.193359	0.770508	-0.778068	-0.637454	-0.393721	-0.199219	0.375000	0.433594	283	16_14_50_8915070
0.243164	-0.193359	0.773438	-0.778068	-0.646828	-0.393721	-0.210938	0.375000	0.445313	284	16_14_50_9076360
0.254883	-0.199219	0.767578	-0.778068	-0.637454	-0.393721	-0.210938	0.351563	0.421875	285	16_14_50_9237650
0.254883	-0.199219	0.773438	-0.768694	-0.637454	-0.393721	-0.222656	0.328125	0.457031	286	16_14_50_9398940
0.257813	-0.193359	0.770508	-0.778068	-0.637454	-0.393721	0.035156	0.726563	0.539063	287	16_14_50_9560230
0.251953	-0.199219	0.770508	-0.768694	-0.637454	-0.393721	-0.210938	0.375000	0.375000	288	16_14_50_9721520
0.251953	-0.196289	0.770508	-0.768694	-0.646828	-0.393721	-0.210938	0.386719	0.386719	289	16_14_50_9882810
0.257813	-0.202148	0.773438	-0.778068	-0.646828	-0.393721	-0.210938	0.375000	0.375000	290	16_14_51_0044100
0.257813	-0.184570	0.761719	-0.768694	-0.637454	-0.393721	-0.210938	0.375000	0.445313	291	16_14_51_0205390
0.263672	-0.205078	0.767578	-0.778068	-0.637454	-0.393721	-0.187500	0.375000	0.445313	292	16_14_51_0366680
0.260742	-0.193359	0.767578	-0.768694	-0.637454	-0.393721	-0.210938	0.351563	0.410156	293	16_14_51_0527970
0.260742	-0.205078	0.776367	-0.778068	-0.637454	-0.393721	-0.210938	0.375000	0.375000	294	16_14_51_0689260
0.260742	-0.193359	0.776367	-0.778068	-0.637454	-0.393721	-0.234375	0.339844	0.433594	295	16_14_51_0850550
0.246094	-0.199219	0.764648	-0.778068	-0.637454	-0.393721	0.257813	0.691406	0.550781	296	16_14_51_1011840
0.254883	-0.193359	0.761719	-0.778068	-0.637454	-0.403096	-0.222656	0.375000	0.386719	297	16_14_51_1173130
0.260742	-0.193359	0.770508	-0.778068	-0.637454	-0.393721	-0.210938	0.351563	0.363281	298	16_14_51_1334420
0.249023	-0.193359	0.782227	-0.778068	-0.637454	-0.393721	-0.210938	0.539063	0.609375	299	16_14_51_1495710
0.249023	-0.196289	0.761719	-0.768694	-0.637454	-0.393721	-0.199219	0.375000	0.433594	300	16_14_51_1657000
0.249023	-0.205078	0.770508	-0.778068	-0.637454	-0.384347	-0.187500	0.363281	0.410156	301	16_14_51_1818290
0.251953	-0.193359	0.773438	-0.768694	-0.637454	-0.393721	-0.210938	0.375000	0.421875	302	16_14_51_1979580
0.249023	-0.199219	0.776367	-0.768694	-0.637454	-0.384347	-0.199219	0.375000	0.433594	303	16_14_51_2140870
0.257813	-0.196289	0.770508	-0.778068	-0.637454	-0.393721	0.058594	0.515625	0.492188	304	16_14_51_2302160
0.249023	-0.199219	0.767578	-0.778068	-0.637454	-0.393721	-0.199219	0.351563	0.445313	305	16_14_51_2463450
0.240234	-0.208008	0.776367	-0.778068	-0.646828	-0.393721	-0.210938	0.375000	0.457031	306	16_14_51_2624740
0.254883	-0.193359	0.776367	-0.759320	-0.646828	-0.393721	-0.187500	0.375000	0.421875	307	16_14_51_2786030
0.263672	-0.196289	0.764648	-0.768694	-0.637454	-0.393721	-0.210938	0.386719	0.421875	308	16_14_51_2947320
0.260742	-0.202148	0.764648	-0.768694	-0.646828	-0.393721	-0.199219	0.386719	0.421875	309	16_14_51_3108610
0.260742	-0.205078	0.776367	-0.768694	-0.637454	-0.393721	-0.187500	0.375000	0.410156	310	16_14_51_3269900
0.281250	-0.181641	0.764648	-0.778068	-0.628079	-0.403096	-0.187500	0.375000	0.433594	311	16_14_51_3431190
0.266602	-0.199219	0.770508	-0.778068	-0.628079	-0.393721	-0.093750	0.457031	0.468750	312	16_14_51_3592480
0.260742	-0.199219	0.764648	-0.768694	-0.628079	-0.393721	-0.199219	0.363281	0.386719	313	16_14_51_3753770
0.254883	-0.193359	0.776367	-0.778068	-0.637454	-0.384347	-0.187500	0.351563	0.339844	314	16_14_51_3915060
0.246094	-0.196289	0.764648	-0.778068	-0.637454	-0.384347	-0.199219	0.386719	0.363281	315	16_14_51_4076350
0.246094	-0.202148	0.767578	-0.768694	-0.637454	-0.384347	-0.210938	0.375000	0.386719	316	16_14_51_4237640
0.251953	-0.193359	0.764648	-0.778068	-0.637454	-0.384347	-0.187500	0.375000	0.386719	317	16_14_51_4398930
0.257813	-0.190430	0.770508	-0.778068	-0.628079	-0.393721	0.093750	0.550781	0.492188	318	16_14_51_4560220
0.251953	-0.202148	0.770508	-0.778068	-0.637454	-0.393721	-0.187500	0.351563	0.457031	319	16_14_51_4721510
0.251953	-0.193359	0.773438	-0.778068	-0.628079	-0.393721	-0.210938	0.375000	0.421875	320	16_14_51_4882800
0.246094	-0.199219	0.776367	-0.768694	-0.628079	-0.393721	-0.210938	0.375000	0.410156	321	16_14_51_5044090
0.249023	-0.202148	0.770508	-0.768694	-0.637454	-0.393721	-0.187500	0.363281	0.410156	322	16_14_51_5205380
0.249023	-0.196289	0.770508	-0.778068	-0.637454	-0.393721	-0.187500	0.375000	0.410156	323	16_14_51_5366670
0.240234	-0.199219	0.770508	-0.768694	-0.637454	-0.393721	-0.023438	0.562500	0.468750	324	16_14_51_5527960
0.257813	-0.193359	0.770508	-0.778068	-0.646828	-0.393721	0.105469	0.621094	0.515625	325	16_14_51_5689250
0.260742	-0.199219	0.764648	-0.768694	-0.637454	-0.393721	-0.187500	0.410156	0.457031	326	16_14_51_5850540
0.260742	-0.193359	0.773438	-0.778068	-0.637454	-0.384347	-0.187500	0.375000	0.445313	327	16_14_51_6011830
0.260742	-0.202148	0.776367	-0.778068	-0.637454	-0.393721	-0.199219	0.351563	0.457031	328	16_14_51_6173120
0.251953	-0.199219	0.767578	-0.768694	-0.637454	-0.393721	-0.210938	0.328125	0.433594	329	16_14_51_6334410
0.251953	-0.205078	0.770508	-0.768694	-0.646828	-0.393721	-0.175781	0.351563	0.410156	330	16_14_51_6495700
0.260742	-0.187500	0.770508	-0.778068	-0.637454	-0.393721	-0.199219	0.363281	0.398438	331	16_14_51_6656990
0.240234	-0.199219	0.770508	-0.778068	-0.637454	-0.393721	-0.105469	0.445313	0.410156	332	16_14_51_6818280
0.260742	-0.205078	0.764648	-0.768694	-0.646828	-0.393721	-0.187500	0.375000	0.386719	333	16_14_51_6979570
0.254883	-0.193359	0.770508	-0.778068	-0.637454	-0.393721	-0.210938	0.363281	0.386719	334	16_14_51_7140860
0.260742	-0.205078	0.770508	-0.778068	-0.637454	-0.384347	-0.210938	0.351563	0.363281	335	16_14_51_7302150
0.257813	-0.190430	0.776367	-0.768694	-0.637454	-0.393721	0.035156	0.468750	0.515625	336	16_14_51_7463440
0.263672	-0.202148	0.770508	-0.778068	-0.637454	-0.393721	-0.199219	0.375000	0.480469	337	16_14_51_7624730
0.266602	-0.193359	0.764648	-0.768694	-0.637454	-0.393721	-0.210938	0.386719	0.457031	338	16_14_51_7786020
0.257813	-0.193359	0.764648	-0.768694	-0.637454	-0.393721	-0.199219	0.375000	0.421875	339	16_14_51_7947310
0.251953	-0.205078	0.761719	-0.778068	-0.637454	-0.393721	-0.093750	0.574219	0.667969	340	16_14_51_8108600
0.263672	-0.193359	0.770508	-0.778068	-0.637454	-0.393721	-0.199219	0.351563	0.421875	341	16_14_51_8269890
0.249023	-0.205078	0.770508	-0.787443	-0.637454	-0.384347	-0.140625	0.421875	0.433594	342	16_14_51_8431180
0.260742	-0.199219	0.770508	-0.768694	-0.637454	-0.393721	-0.210938	0.351563	0.386719	343	16_14_51_8592470
0.254883	-0.196289	0.773438	-0.768694	-0.637454	-0.393721	-0.199219	0.386719	0.421875	344	16_14_51_8753760
0.257813	-0.202148	0.761719	-0.778068	-0.637454	-0.393721	-0.210938	0.375000	0.410156	345	16_14_51_8915050
0.257813	-0.199219	0.776367	-0.768694	-0.637454	-0.393721	-0.187500	0.363281	0.433594	346	16_14_51_9076340
0.243164	-0.196289	0.773438	-0.768694	-0.637454	-0.393721	-0.210938	0.351563	0.457031	347	16_14_51_9237630
0.251953	-0.205078	0.750000	-0.778068	-0.637454	-0.393721	-0.210938	0.375000	0.398438	348	16_14_51_9398920
0.257813	-0.202148	0.770508	-0.768694	-0.637454	-0.393721	-0.210938	0.351563	0.386719	349	16_14_51_9560210
0.254883	-0.202148	0.767578	-0.768694	-0.637454	-0.393721	-0.187500	0.375000	0.363281	350	16_14_51_9721500
0.249023	-0.187500	0.764648	-0.768694	-0.637454	-0.393721	-0.210938	0.351563	0.375000	351	16_14_51_9882790
0.251953	-0.202148	0.770508	-0.778068	-0.637454	-0.393721	-0.187500	0.328125	0.375000	352	16_14_52_0044080
0.251953	-0.199219	0.773438	-0.768694	-0.637454	-0.393721	-0.152344	0.410156	0.410156	353	16_14_52_0205370
0.257813	-0.208008	0.770508	-0.768694	-0.637454	-0.393721	-0.210938	0.351563	0.421875	354	16_14_52_0366660
0.251953	-0.196289	0.770508	-0.778068	-0.637454	-0.393721	-0.093750	0.421875	0.433594	355	16_14_52_0527950
0.260742	-0.199219	0.770508	-0.768694	-0.646828	-0.393721	-0.187500	0.375000	0.410156	356	16_14_52_0689240
0.251953	-0.199219	0.776367	-0.768694	-0.637454	-0.393721	-0.199219	0.398438	0.410156	357	16_14_52_0850530
0.260742	-0.205078	0.776367	-0.768694	-0.637454	-0.393721	-0.187500	0.375000	0.375000	358	16_14_52_1011820
0.257813	-0.202148	0.773438	-0.778068	-0.637454	-0.393721	-0.187500	0.375000	0.351563	359	16_14_52_1173110
0.257813	-0.205078	0.770508	-0.787443	-0.637454	-0.393721	0.023438	0.632813	0.539063	360	16_14_52_1334400
0.260742	-0.210938	0.767578	-0.768694	-0.637454	-0.393721	-0.199219	0.398438	0.398438	361	16_14_52_1495690
0.254883	-0.193359	0.767578	-0.778068	-0.637454	-0.393721	-0.210938	0.363281	0.457031	362	16_14_52_1656980
0.254883	-0.196289	0.761719	-0.787443	-0.637454	-0.393721	-0.187500	0.351563	0.410156	363	16_14_52_1818270
0.260742	-0.190430	0.770508	-0.778068	-0.637454	-0.393721	-0.210938	0.375000	0.375000	364	16_14_52_1979560
0.251953	-0.199219	0.761719	-0.768694	-0.637454	-0.393721	-0.187500	0.351563	0.386719	365	16_14_52_2140850
0.251953	-0.202148	0.764648	-0.778068	-0.637454	-0.393721	-0.199219	0.351563	0.410156	366	16_14_52_2302140
0.251953	-0.190430	0.773438	-0.768694	-0.628079	-0.393721	-0.187500	0.386719	0.421875	367	16_14_52_2463430
0.251953	-0.196289	0.767578	-0.759320	-0.637454	-0.393721	-0.210938	0.386719	0.433594	368	16_14_52_2624720
0.257813	-0.205078	0.776367	-0.778068	-0.637454	-0.393721	-0.210938	0.375000	0.457031	369	16_14_52_2786010
0.251953	-0.199219	0.770508	-0.778068	-0.637454	-0.393721	-0.199219	0.375000	0.433594	370	16_14_52_2947300
0.257813	-0.193359	0.770508	-0.768694	-0.637454	-0.393721	-0.210938	0.351563	0.468750	371	16_14_52_3108590
0.254883	-0.190430	0.764648	-0.768694	-0.637454	-0.393721	-0.210938	0.351563	0.480469	372	16_14_52_3269880
0.257813	-0.190430	0.767578	-0.778068	-0.637454	-0.393721	-0.105469	0.457031	0.433594	373	16_14_52_3431170
0.251953	-0.199219	0.770508	-0.778068	-0.637454	-0.393721	-0.222656	0.339844	0.386719	374	16_14_52_3592460
0.260742	-0.199219	0.770508	-0.768694	-0.637454	-0.393721	-0.199219	0.375000	0.386719	375	16_14_52_3753750
0.269531	-0.199219	0.776367	-0.768694	-0.637454	-0.393721	-0.234375	0.375000	0.433594	376	16_14_52_3915040
0.251953	-0.202148	0.770508	-0.768694	-0.637454	-0.393721	0.011719	0.562500	0.492188	377	16_14_52_4076330
0.249023	-0.187500	0.770508	-0.778068	-0.637454	-0.393721	0.082031	0.644531	0.492188	378	16_14_52_4237620
0.257813	-0.196289	0.761719	-0.778068	-0.637454	-0.393721	-0.210938	0.375000	0.386719	379	16_14_52_4398910
0.263672	-0.193359	0.770508	-0.768694	-0.637454	-0.403096	-0.257813	0.375000	0.457031	380	16_14_52_4560200
0.251953	-0.193359	0.761719	-0.778068	-0.637454	-0.393721	-0.210938	0.375000	0.457031	381	16_14_52_4721490
0.254883	-0.193359	0.767578	-0.778068	-0.637454	-0.393721	-0.222656	0.363281	0.433594	382	16_14_52_4882780
0.257813	-0.193359	0.764648	-0.768694	-0.637454	-0.393721	-0.199219	0.375000	0.468750	383	16_14_52_5044070
0.254883	-0.202148	0.776367	-0.778068	-0.637454	-0.393721	-0.187500	0.386719	0.457031	384	16_14_52_5205360
0.251953	-0.202148	0.773438	-0.778068	-0.637454	-0.384347	-0.234375	0.386719	0.457031	385	16_14_52_5366650
0.240234	-0.202148	0.767578	-0.768694	-0.637454	-0.393721	-0.210938	0.375000	0.433594	386	16_14_52_5527940
0.249023	-0.199219	0.776367	-0.778068	-0.637454	-0.393721	-0.199219	0.363281	0.433594	387	16_14_52_5689230
0.249023	-0.193359	0.767578	-0.778068	-0.637454	-0.393721	-0.234375	0.375000	0.433594	388	16_14_52_5850520
0.251953	-0.190430	0.773438	-0.768694	-0.637454	-0.393721	-0.210938	0.386719	0.410156	389	16_14_52_6011810
0.249023	-0.193359	0.770508	-0.778068	-0.637454	-0.393721	0.257813	0.843750	0.527344	390	16_14_52_6173100
0.251953	-0.187500	0.773438	-0.778068	-0.637454	-0.393721	-0.187500	0.375000	0.457031	391	16_14_52_6334390
0.246094	-0.199219	0.764648	-0.768694	-0.637454	-0.393721	-0.210938	0.375000	0.457031	392	16_14_52_6495680
0.246094	-0.190430	0.776367	-0.768694	-0.637454	-0.384347	-0.187500	0.375000	0.445313	393	16_14_52_6656970
0.246094	-0.193359	0.770508	-0.768694	-0.637454	-0.393721	-0.210938	0.351563	0.515625	394	16_14_52_6818260
0.251953	-0.193359	0.770508	-0.768694	-0.637454	-0.393721	-0.187500	0.351563	0.445313	395	16_14_52_6979550
0.243164	-0.187500	0.764648	-0.778068	-0.637454	-0.393721	-0.046875	0.503906	0.421875	396	16_14_52_7140840
0.260742	-0.193359	0.776367	-0.778068	-0.637454	-0.393721	-0.164063	0.386719	0.363281	397	16_14_52_7302130
0.257813	-0.196289	0.764648	-0.778068	-0.637454	-0.393721	-0.210938	0.375000	0.363281	398	16_14_52_7463420
0.257813	-0.199219	0.773438	-0.768694	-0.637454	-0.393721	-0.210938	0.375000	0.410156	399	16_14_52_7624710
0.249023	-0.193359	0.776367	-0.778068	-0.637454	-0.393721	-0.187500	0.386719	0.468750	400	16_14_52_7786000
0.263672	-0.190430	0.764648	-0.768694	-0.637454	-0.384347	-0.210938	0.375000	0.457031	401	16_14_52_7947290
0.254883	-0.187500	0.773438	-0.778068	-0.637454	-0.384347	-0.210938	0.375000	0.410156	402	16_14_52_8108580
0.249023	-0.208008	0.764648	-0.778068	-0.637454	-0.393721	-0.222656	0.363281	0.410156	403	16_14_52_8269870
0.251953	-0.193359	0.773438	-0.778068	-0.637454	-0.393721	-0.210938	0.351563	0.480469	404	16_14_52_8431160
0.243164	-0.187500	0.773438	-0.768694	-0.637454	-0.393721	-0.210938	0.375000	0.375000	405	16_14_52_8592450
0.237305	-0.202148	0.773438	-0.778068	-0.637454	-0.393721	-0.210938	0.363281	0.410156	406	16_14_52_8753740
0.254883	-0.208008	0.770508	-0.768694	-0.637454	-0.393721	-0.199219	0.351563	0.468750	407	16_14_52_8915030
0.257813	-0.202148	0.776367	-0.768694	-0.646828	-0.393721	-0.210938	0.375000	0.421875	408	16_14_52_9076320
0.260742	-0.199219	0.764648	-0.768694	-0.637454	-0.393721	-0.199219	0.363281	0.375000	409	16_14_52_9237610
0.251953	-0.193359	0.770508	-0.778068	-0.637454	-0.393721	-0.222656	0.339844	0.410156	410	16_14_52_9398900
0.254883	-0.199219	0.764648	-0.778068	-0.637454	-0.393721	-0.187500	0.328125	0.445313	411	16_14_52_9560190
0.254883	-0.202148	0.773438	-0.768694	-0.637454	-0.393721	-0.222656	0.339844	0.457031	412	16_14_52_9721480
0.240234	-0.196289	0.770508	-0.768694	-0.637454	-0.393721	-0.199219	0.339844	0.457031	413	16_14_52_9882770
0.257813	-0.205078	0.770508	-0.778068	-0.637454	-0.393721	-0.210938	0.339844	0.410156	414	16_14_53_0044060
0.254883	-0.196289	0.764648	-0.768694	-0.637454	-0.393721	-0.093750	0.398438	0.410156	415	16_14_53_0205350
0.260742	-0.193359	0.773438	-0.778068	-0.637454	-0.384347	-0.082031	0.398438	0.410156	416	16_14_53_0366640
0.249023	-0.196289	0.776367	-0.768694	-0.637454	-0.393721	-0.222656	0.351563	0.363281	417	16_14_53_0527930
0.263672	-0.199219	0.776367	-0.768694	-0.637454	-0.393721	-0.199219	0.375000	0.386719	418	16_14_53_0689220
0.263672	-0.202148	0.767578	-0.778068	-0.637454	-0.393721	-0.175781	0.328125	0.398438	419	16_14_53_0850510
0.257813	-0.199219	0.764648	-0.778068	-0.637454	-0.393721	-0.187500	0.351563	0.410156	420	16_14_53_1011800
0.246094	-0.196289	0.773438	-0.768694	-0.637454	-0.393721	-0.210938	0.375000	0.410156	421	16_14_53_1173090
0.249023	-0.208008	0.764648	-0.768694	-0.637454	-0.393721	-0.222656	0.375000	0.398438	422	16_14_53_1334380
0.260742	-0.199219	0.764648	-0.778068	-0.637454	-0.393721	-0.210938	0.386719	0.433594	423	16_14_53_1495670
0.246094	-0.193359	0.767578	-0.778068	-0.637454	-0.393721	-0.199219	0.375000	0.410156	424	16_14_53_1656960
0.251953	-0.196289	0.770508	-0.768694	-0.637454	-0.393721	-0.187500	0.363281	0.445313	425	16_14_53_1818250
0.251953	-0.190430	0.776367	-0.778068	-0.637454	-0.393721	-0.082031	0.398438	0.457031	426	16_14_53_1979540
0.257813	-0.205078	0.773438	-0.778068	-0.646828	-0.393721	-0.210938	0.339844	0.398438	427	16_14_53_2140830
0.254883	-0.199219	0.776367	-0.778068	-0.637454	-0.384347	-0.210938	0.375000	0.445313	428	16_14_53_2302120
0.263672	-0.187500	0.767578	-0.768694	-0.637454	-0.393721	-0.187500	0.375000	0.468750	429	16_14_53_2463410
0.251953	-0.193359	0.770508	-0.768694	-0.637454	-0.393721	0.128906	0.621094	0.539063	430	16_14_53_2624700
0.257813	-0.199219	0.776367	-0.778068	-0.637454	-0.403096	-0.210938	0.339844	0.480469	431	16_14_53_2785990
0.249023	-0.187500	0.767578	-0.787443	-0.637454	-0.393721	-0.164063	0.351563	0.457031	432	16_14_53_2947280
0.254883	-0.196289	0.776367	-0.768694	-0.637454	-0.393721	-0.187500	0.375000	0.457031	433	16_14_53_3108570
0.251953	-0.199219	0.764648	-0.768694	-0.637454	-0.384347	-0.222656	0.363281	0.457031	434	16_14_53_3269860
0.249023	-0.199219	0.767578	-0.778068	-0.637454	-0.393721	-0.210938	0.328125	0.410156	435	16_14_53_3431150
0.240234	-0.208008	0.770508	-0.768694	-0.637454	-0.393721	-0.199219	0.386719	0.363281	436	16_14_53_3592440
0.251953	-0.199219	0.764648	-0.768694	-0.637454	-0.393721	-0.199219	0.386719	0.375000	437	16_14_53_3753730
0.257813	-0.205078	0.761719	-0.778068	-0.637454	-0.393721	-0.187500	0.375000	0.410156	438	16_14_53_3915020
0.254883	-0.202148	0.770508	-0.768694	-0.637454	-0.393721	-0.246094	0.375000	0.433594	439	16_14_53_4076310
0.263672	-0.193359	0.767578	-0.778068	-0.637454	-0.393721	-0.199219	0.386719	0.421875	440	16_14_53_4237600
0.254883	-0.196289	0.770508	-0.768694	-0.637454	-0.393721	-0.210938	0.375000	0.468750	441	16_14_53_4398890
0.254883	-0.205078	0.770508	-0.787443	-0.646828	-0.393721	0.152344	0.679688	0.562500	442	16_14_53_4560180
0.257813	-0.190430	0.767578	-0.768694	-0.646828	-0.384347	-0.210938	0.363281	0.410156	443	16_14_53_4721470
0.257813	-0.193359	0.770508	-0.768694	-0.637454	-0.393721	-0.187500	0.351563	0.445313	444	16_14_53_4882760
0.246094	-0.190430	0.776367	-0.778068	-0.637454	-0.393721	-0.187500	0.375000	0.433594	445	16_14_53_5044050
0.257813	-0.193359	0.761719	-0.778068	-0.646828	-0.393721	-0.210938	0.375000	0.410156	446	16_14_53_5205340
0.260742	-0.199219	0.761719	-0.778068	-0.637454	-0.393721	-0.222656	0.351563	0.457031	447	16_14_53_5366630
0.243164	-0.196289	0.767578	-0.768694	-0.646828	-0.393721	-0.187500	0.339844	0.445313	448	16_14_53_5527920
0.251953	-0.190430	0.776367	-0.768694	-0.637454	-0.393721	-0.210938	0.363281	0.421875	449	16_14_53_5689210
0.254883	-0.199219	0.767578	-0.778068	-0.637454	-0.393721	-0.187500	0.339844	0.410156	450	16_14_53_5850500
0.257813	-0.190430	0.773438	-0.768694	-0.637454	-0.393721	-0.210938	0.339844	0.375000	451	16_14_53_6011790
0.263672	-0.187500	0.776367	-0.778068	-0.646828	-0.393721	-0.222656	0.375000	0.375000	452	16_14_53_6173080
0.257813	-0.199219	0.764648	-0.768694	-0.637454	-0.393721	-0.187500	0.375000	0.386719	453	16_14_53_6334370
0.254883	-0.193359	0.764648	-0.778068	-0.637454	-0.393721	-0.152344	0.421875	0.421875	454	16_14_53_6495660
0.251953	-0.190430	0.776367	-0.768694	-0.637454	-0.393721	-0.187500	0.375000	0.445313	455	16_14_53_6656950
0.251953	-0.193359	0.770508	-0.778068	-0.646828	-0.393721	-0.246094	0.351563	0.457031	456	16_14_53_6818240
0.251953	-0.187500	0.770508	-0.768694	-0.637454	-0.393721	-0.222656	0.375000	0.539063	457	16_14_53_6979530
0.263672	-0.193359	0.764648	-0.787443	-0.637454	-0.393721	-0.011719	0.527344	0.445313	458	16_14_53_7140820
0.260742	-0.199219	0.770508	-0.768694	-0.646828	-0.393721	-0.222656	0.386719	0.410156	459	16_14_53_7302110
0.260742	-0.208008	0.773438	-0.768694	-0.637454	-0.393721	-0.234375	0.386719	0.386719	460	16_14_53_7463400
0.249023	-0.193359	0.770508	-0.778068	-0.646828	-0.393721	-0.187500	0.398438	0.386719	461	16_14_53_7624690
0.249023	-0.187500	0.752930	-0.768694	-0.637454	-0.393721	-0.234375	0.375000	0.445313	462	16_14_53_7785980
0.257813	-0.199219	0.764648	-0.778068	-0.646828	-0.393721	-0.222656	0.351563	0.445313	463	16_14_53_7947270
0.254883	-0.196289	0.773438	-0.778068	-0.637454	-0.393721	0.105469	0.855469	0.562500	464	16_14_53_8108560
0.251953	-0.199219	0.767578	-0.768694	-0.646828	-0.393721	-0.199219	0.351563	0.445313	465	16_14_53_8269850
0.257813	-0.190430	0.767578	-0.787443	-0.637454	-0.393721	-0.222656	0.386719	0.480469	466	16_14_53_8431140
0.251953	-0.193359	0.773438	-0.787443	-0.637454	-0.393721	-0.199219	0.351563	0.480469	467	16_14_53_8592430
0.257813	-0.187500	0.776367	-0.759320	-0.637454	-0.384347	-0.234375	0.375000	0.492188	468	16_14_53_8753720
0.257813	-0.184570	0.761719	-0.778068	-0.637454	-0.393721	-0.210938	0.363281	0.457031	469	16_14_53_8915010
0.251953	-0.193359	0.764648	-0.787443	-0.646828	-0.393721	-0.011719	0.480469	0.433594	470	16_14_53_9076300
0.251953	-0.187500	0.776367	-0.768694	-0.646828	-0.393721	-0.210938	0.375000	0.398438	471	16_14_53_9237590
0.260742	-0.199219	0.767578	-0.768694	-0.637454	-0.393721	-0.234375	0.375000	0.433594	472	16_14_53_9398880
0.257813	-0.199219	0.770508	-0.778068	-0.646828	-0.393721	-0.210938	0.351563	0.480469	473	16_14_53_9560170
0.254883	-0.199219	0.758789	-0.778068	-0.637454	-0.393721	-0.222656	0.363281	0.492188	474	16_14_53_9721460
0.251953	-0.205078	0.770508	-0.778068	-0.646828	-0.393721	-0.187500	0.375000	0.421875	475	16_14_53_9882750
0.260742	-0.190430	0.770508	-0.778068	-0.637454	-0.384347	-0.152344	0.644531	0.457031	476	16_14_54_0044040
0.257813	-0.193359	0.773438	-0.768694	-0.637454	-0.393721	-0.210938	0.375000	0.375000	477	16_14_54_0205330
0.260742	-0.199219	0.764648	-0.787443	-0.637454	-0.393721	-0.210938	0.375000	0.375000	478	16_14_54_0366620
0.260742	-0.199219	0.764648	-0.768694	-0.637454	-0.393721	-0.199219	0.375000	0.410156	479	16_14_54_0527910
0.251953	-0.193359	0.770508	-0.778068	-0.637454	-0.393721	-0.222656	0.363281	0.445313	480	16_14_54_0689200
0.251953	-0.190430	0.767578	-0.778068	-0.637454	-0.384347	-0.210938	0.351563	0.410156	481	16_14_54_0850490
0.246094	-0.193359	0.773438	-0.768694	-0.637454	-0.393721	-0.210938	0.363281	0.375000	482	16_14_54_1011780
0.246094	-0.205078	0.773438	-0.768694	-0.637454	-0.393721	-0.210938	0.375000	0.445313	483	16_14_54_1173070
0.254883	-0.202148	0.770508	-0.778068	-0.637454	-0.393721	-0.210938	0.375000	0.410156	484	16_14_54_1334360
0.254883	-0.193359	0.770508	-0.768694	-0.637454	-0.393721	-0.210938	0.375000	0.386719	485	16_14_54_1495650
0.246094	-0.190430	0.770508	-0.768694	-0.637454	-0.393721	-0.222656	0.351563	0.410156	486	16_14_54_1656940
0.257813	-0.193359	0.761719	-0.778068	-0.637454	-0.393721	-0.210938	0.304688	0.421875	487	16_14_54_1818230
0.249023	-0.187500	0.761719	-0.768694	-0.637454	-0.393721	-0.210938	0.375000	0.410156	488	16_14_54_1979520
0.251953	-0.184570	0.776367	-0.768694	-0.646828	-0.393721	-0.175781	0.421875	0.421875	489	16_14_54_2140810
0.257813	-0.202148	0.773438	-0.768694	-0.637454	-0.393721	-0.199219	0.386719	0.421875	490	16_14_54_2302100
0.243164	-0.193359	0.770508	-0.778068	-0.637454	-0.393721	0.011719	0.515625	0.468750	491	16_14_54_2463390
0.246094	-0.199219	0.776367	-0.778068	-0.637454	-0.393721	-0.210938	0.351563	0.410156	492	16_14_54_2624680
0.251953	-0.205078	0.770508	-0.778068	-0.637454	-0.393721	-0.222656	0.351563	0.410156	493	16_14_54_2785970
0.254883	-0.196289	0.764648	-0.778068	-0.637454	-0.393721	-0.187500	0.375000	0.386719	494	16_14_54_2947260
0.257813	-0.205078	0.770508	-0.778068	-0.637454	-0.393721	-0.199219	0.375000	0.421875	495	16_14_54_3108550
0.266602	-0.199219	0.764648	-0.768694	-0.637454	-0.393721	-0.187500	0.703125	0.585938	496	16_14_54_3269840
0.257813	-0.199219	0.773438	-0.778068	-0.637454	-0.393721	-0.187500	0.375000	0.410156	497	16_14_54_3431130
0.249023	-0.190430	0.770508	-0.787443	-0.637454	-0.393721	-0.222656	0.375000	0.457031	498	16_14_54_3592420
0.251953	-0.193359	0.770508	-0.778068	-0.637454	-0.393721	-0.187500	0.363281	0.457031	499	16_14_54_3753710
0.243164	-0.193359	0.767578	-0.787443	-0.637454	-0.393721	-0.023438	0.468750	0.421875	500	16_14_54_3915000
0.251953	-0.193359	0.776367	-0.778068	-0.637454	-0.384347	-0.210938	0.339844	0.363281	501	16_14_54_4076290
0.257813	-0.202148	0.761719	-0.778068	-0.637454	-0.393721	-0.175781	0.375000	0.410156	502	16_14_54_4237580
0.254883	-0.190430	0.770508	-0.778068	-0.646828	-0.393721	-0.187500	0.363281	0.457031	503	16_14_54_4398870
0.257813	-0.190430	0.761719	-0.768694	-0.637454	-0.393721	-0.199219	0.375000	0.457031	504	16_14_54_4560160
0.260742	-0.193359	0.770508	-0.768694	-0.637454	-0.393721	-0.199219	0.375000	0.457031	505	16_14_54_4721450
0.260742	-0.193359	0.770508	-0.778068	-0.637454	-0.393721	-0.164063	0.375000	0.457031	506	16_14_54_4882740
0.246094	-0.199219	0.773438	-0.778068	-0.637454	-0.393721	-0.187500	0.351563	0.457031	507	16_14_54_5044030
0.260742	-0.196289	0.767578	-0.768694	-0.637454	-0.393721	-0.210938	0.351563	0.457031	508	16_14_54_5205320
0.257813	-0.208008	0.770508	-0.778068	-0.637454	-0.393721	-0.210938	0.351563	0.457031	509	16_14_54_5366610
0.251953	-0.199219	0.770508	-0.768694	-0.637454	-0.393721	-0.246094	0.351563	0.421875	510	16_14_54_5527900
0.257813	-0.208008	0.770508	-0.778068	-0.637454	-0.393721	-0.187500	0.375000	0.410156	511	16_14_54_5689190
0.257813	-0.181641	0.764648	-0.787443	-0.646828	-0.393721	0.035156	0.562500	0.445313	512	16_14_54_5850480
0.260742	-0.190430	0.767578	-0.778068	-0.637454	-0.393721	0.257813	0.609375	0.562500	513	16_14_54_6011770
0.251953	-0.202148	0.773438	-0.778068	-0.637454	-0.393721	-0.199219	0.339844	0.398438	514	16_14_54_6173060
0.257813	-0.202148	0.770508	-0.768694	-0.637454	-0.393721	-0.234375	0.375000	0.375000	515	16_14_54_6334350
0.251953	-0.199219	0.764648	-0.787443	-0.637454	-0.393721	-0.164063	0.398438	0.410156	516	16_14_54_6495640
0.263672	-0.196289	0.767578	-0.768694	-0.637454	-0.393721	-0.210938	0.375000	0.386719	517	16_14_54_6656930
0.260742	-0.196289	0.764648	-0.778068	-0.637454	-0.393721	-0.210938	0.375000	0.398438	518	16_14_54_6818220
0.254883	-0.196289	0.764648	-0.778068	-0.637454	-0.393721	-0.210938	0.363281	0.386719	519	16_14_54_6979510
0.257813	-0.199219	0.770508	-0.778068	-0.637454	-0.393721	-0.234375	0.375000	0.375000	520	16_14_54_7140800
0.260742	-0.202148	0.776367	-0.778068	-0.637454	-0.393721	-0.199219	0.375000	0.433594	521	16_14_54_7302090
0.246094	-0.199219	0.770508	-0.778068	-0.637454	-0.393721	-0.210938	0.375000	0.445313	522	16_14_54_7463380
0.257813	-0.193359	0.770508	-0.778068	-0.637454	-0.393721	-0.199219	0.351563	0.410156	523	16_14_54_7624670
0.257813	-0.202148	0.761719	-0.778068	-0.637454	-0.393721	-0.187500	0.351563	0.421875	524	16_14_54_7785960
0.257813	-0.184570	0.773438	-0.768694	-0.637454	-0.393721	-0.175781	0.375000	0.421875	525	16_14_54_7947250
0.251953	-0.199219	0.761719	-0.768694	-0.637454	-0.393721	0.128906	0.832031	0.492188	526	16_14_54_8108540
0.251953	-0.205078	0.764648	-0.778068	-0.646828	-0.393721	-0.210938	0.363281	0.363281	527	16_14_54_8269830
0.266602	-0.199219	0.764648	-0.778068	-0.646828	-0.393721	-0.187500	0.351563	0.363281	528	16_14_54_8431120
0.254883	-0.187500	0.773438	-0.768694	-0.637454	-0.393721	-0.222656	0.375000	0.386719	529	16_14_54_8592410
0.260742	-0.199219	0.770508	-0.768694	-0.637454	-0.393721	-0.210938	0.351563	0.410156	530	16_14_54_8753700
0.246094	-0.193359	0.770508	-0.778068	-0.637454	-0.393721	-0.210938	0.339844	0.421875	531	16_14_54_8914990
0.251953	-0.202148	0.770508	-0.778068	-0.637454	-0.384347	-0.210938	0.375000	0.421875	532	16_14_54_9076280
0.257813	-0.193359	0.770508	-0.768694	-0.637454	-0.393721	-0.234375	0.363281	0.468750	533	16_14_54_9237570
0.246094	-0.199219	0.767578	-0.778068	-0.637454	-0.384347	-0.222656	0.339844	0.457031	534	16_14_54_9398860
0.263672	-0.196289	0.770508	-0.778068	-0.637454	-0.393721	-0.199219	0.375000	0.410156	535	16_14_54_9560150
0.263672	-0.193359	0.770508	-0.778068	-0.646828	-0.393721	-0.222656	0.363281	0.398438	536	16_14_54_9721440
0.260742	-0.199219	0.767578	-0.768694	-0.637454	-0.384347	-0.187500	0.351563	0.421875	537	16_14_54_9882730
0.249023	-0.199219	0.767578	-0.778068	-0.637454	-0.393721	-0.210938	0.375000	0.410156	538	16_14_55_0044020
0.251953	-0.193359	0.770508	-0.787443	-0.637454	-0.393721	-0.187500	0.375000	0.375000	539	16_14_55_0205310
0.246094	-0.199219	0.770508	-0.778068	-0.637454	-0.393721	-0.210938	0.339844	0.375000	540	16_14_55_0366600
0.254883	-0.187500	0.767578	-0.768694	-0.637454	-0.393721	-0.128906	0.398438	0.398438	541	16_14_55_0527890
0.260742	-0.193359	0.770508	-0.787443	-0.646828	-0.393721	0.082031	0.621094	0.457031	542	16_14_55_0689180
0.251953	-0.196289	0.770508	-0.778068	-0.646828	-0.393721	-0.210938	0.386719	0.445313	543	16_14_55_0850470
0.257813	-0.202148	0.770508	-0.778068	-0.637454	-0.393721	-0.210938	0.363281	0.433594	544	16_14_55_1011760
0.266602	-0.193359	0.773438	-0.768694	-0.637454	-0.393721	-0.234375	0.351563	0.410156	545	16_14_55_1173050
0.260742	-0.184570	0.776367	-0.778068	-0.637454	-0.393721	-0.199219	0.398438	0.386719	546	16_14_55_1334340
0.251953	-0.187500	0.770508	-0.778068	-0.637454	-0.393721	-0.246094	0.375000	0.410156	547	16_14_55_1495630
0.251953	-0.187500	0.770508	-0.778068	-0.637454	-0.393721	-0.187500	0.375000	0.410156	548	16_14_55_1656920
0.249023	-0.202148	0.773438	-0.778068	-0.646828	-0.393721	-0.210938	0.375000	0.375000	549	16_14_55_1818210
0.263672	-0.199219	0.770508	-0.768694	-0.637454	-0.384347	-0.210938	0.375000	0.421875	550	16_14_55_1979500
0.243164	-0.199219	0.761719	-0.787443	-0.637454	-0.393721	-0.046875	0.515625	0.480469	551	16_14_55_2140790
0.263672	-0.193359	0.770508	-0.778068	-0.637454	-0.393721	-0.199219	0.375000	0.433594	552	16_14_55_2302080
0.257813	-0.196289	0.770508	-0.768694	-0.637454	-0.393721	-0.199219	0.351563	0.421875	553	16_14_55_2463370
0.263672	-0.193359	0.776367	-0.778068	-0.637454	-0.393721	-0.210938	0.363281	0.398438	554	16_14_55_2624660
0.260742	-0.196289	0.776367	-0.778068	-0.637454	-0.393721	-0.152344	0.363281	0.445313	555	16_14_55_2785950
0.249023	-0.187500	0.770508	-0.787443	-0.637454	-0.393721	0.281250	0.937500	0.515625	556	16_14_55_2947240
0.251953	-0.199219	0.767578	-0.778068	-0.637454	-0.393721	-0.246094	0.375000	0.433594	557	16_14_55_3108530
0.251953	-0.190430	0.776367	-0.778068	-0.637454	-0.384347	-0.210938	0.375000	0.445313	558	16_14_55_3269820
0.254883	-0.196289	0.776367	-0.778068	-0.637454	-0.393721	-0.199219	0.351563	0.433594	559	16_14_55_3431110
0.251953	-0.190430	0.767578	-0.768694	-0.637454	-0.393721	-0.199219	0.375000	0.433594	560	16_14_55_3592400
0.251953	-0.202148	0.776367	-0.778068	-0.646828	-0.393721	-0.199219	0.375000	0.421875	561	16_14_55_3753690
0.251953	-0.196289	0.773438	-0.778068	-0.637454	-0.393721	-0.199219	0.363281	0.421875	562	16_14_55_3914980
0.257813	-0.199219	0.761719	-0.778068	-0.637454	-0.393721	-0.187500	0.351563	0.433594	563	16_14_55_4076270
0.251953	-0.199219	0.770508	-0.778068	-0.637454	-0.393721	-0.199219	0.375000	0.433594	564	16_14_55_4237560
0.254883	-0.193359	0.770508	-0.778068	-0.646828	-0.393721	-0.210938	0.375000	0.433594	565	16_14_55_4398850
0.263672	-0.193359	0.770508	-0.787443	-0.637454	-0.393721	0.281250	0.773438	0.503906	566	16_14_55_4560140
0.246094	-0.199219	0.776367	-0.778068	-0.646828	-0.393721	-0.187500	0.386719	0.410156	567	16_14_55_4721430
0.257813	-0.187500	0.773438	-0.778068	-0.637454	-0.393721	-0.210938	0.375000	0.375000	568	16_14_55_4882720
0.266602	-0.190430	0.770508	-0.768694	-0.637454	-0.393721	-0.187500	0.363281	0.363281	569	16_14_55_5044010
0.275391	-0.190430	0.770508	-0.778068	-0.637454	-0.393721	-0.199219	0.386719	0.398438	570	16_14_55_5205300
0.263672	-0.196289	0.770508	-0.768694	-0.646828	-0.393721	-0.187500	0.386719	0.468750	571	16_14_55_5366590
0.263672	-0.196289	0.770508	-0.778068	-0.646828	-0.393721	-0.222656	0.375000	0.457031	572	16_14_55_5527880
0.251953	-0.193359	0.770508	-0.778068	-0.637454	-0.393721	-0.187500	0.363281	0.363281	573	16_14_55_5689170
0.257813	-0.205078	0.770508	-0.768694	-0.637454	-0.393721	-0.187500	0.351563	0.386719	574	16_14_55_5850460
0.251953	-0.184570	0.770508	-0.778068	-0.637454	-0.384347	-0.199219	0.363281	0.398438	575	16_14_55_6011750
0.254883	-0.196289	0.767578	-0.778068	-0.637454	-0.393721	-0.222656	0.375000	0.421875	576	16_14_55_6173040
0.257813	-0.199219	0.770508	-0.778068	-0.637454	-0.393721	-0.210938	0.351563	0.433594	577	16_14_55_6334330
0.251953	-0.199219	0.770508	-0.778068	-0.637454	-0.393721	-0.210938	0.351563	0.398438	578	16_14_55_6495620
0.263672	-0.187500	0.770508	-0.778068	-0.637454	-0.393721	-0.222656	0.375000	0.421875	579	16_14_55_6656910
0.251953	-0.205078	0.770508	-0.768694	-0.637454	-0.393721	-0.187500	0.375000	0.468750	580	16_14_55_6818200
0.246094	-0.187500	0.758789	-0.768694	-0.637454	-0.393721	-0.210938	0.339844	0.410156	581	16_14_55_6979490
0.251953	-0.187500	0.770508	-0.778068	-0.646828	-0.393721	-0.210938	0.351563	0.421875	582	16_14_55_7140780
0.257813	-0.193359	0.776367	-0.768694	-0.646828	-0.393721	-0.210938	0.351563	0.445313	583	16_14_55_7302070
0.254883	-0.202148	0.776367	-0.778068	-0.646828	-0.393721	-0.210938	0.351563	0.433594	584	16_14_55_7463360
0.254883	-0.193359	0.776367	-0.778068	-0.637454	-0.393721	-0.187500	0.328125	0.421875	585	16_14_55_7624650
0.254883	-0.196289	0.770508	-0.778068	-0.637454	-0.393721	-0.210938	0.339844	0.457031	586	16_14_55_7785940
0.251953	-0.190430	0.767578	-0.768694	-0.637454	-0.393721	-0.246094	0.363281	0.527344	587	16_14_55_7947230
0.263672	-0.199219	0.770508	-0.778068	-0.637454	-0.393721	-0.187500	0.375000	0.468750	588	16_14_55_8108520
0.254883	-0.199219	0.770508	-0.778068	-0.646828	-0.393721	-0.210938	0.386719	0.445313	589	16_14_55_8269810
0.257813	-0.184570	0.770508	-0.778068	-0.637454	-0.393721	-0.199219	0.375000	0.457031	590	16_14_55_8431100
0.257813	-0.181641	0.764648	-0.768694	-0.637454	-0.393721	-0.234375	0.375000	0.457031	591	16_14_55_8592390
0.263672	-0.199219	0.764648	-0.778068	-0.637454	-0.393721	-0.199219	0.386719	0.433594	592	16_14_55_8753680
0.257813	-0.196289	0.758789	-0.778068	-0.637454	-0.393721	-0.222656	0.363281	0.433594	593	16_14_55_8914970
0.263672	-0.193359	0.764648	-0.778068	-0.637454	-0.393721	-0.234375	0.351563	0.421875	594	16_14_55_9076260
0.251953	-0.193359	0.764648	-0.778068	-0.637454	-0.393721	-0.210938	0.375000	0.410156	595	16_14_55_9237550
0.254883	-0.202148	0.770508	-0.778068	-0.637454	-0.393721	0.117188	0.632813	0.480469	596	16_14_55_9398840
0.249023	-0.193359	0.770508	-0.778068	-0.637454	-0.393721	-0.187500	0.375000	0.445313	597	16_14_55_9560130
0.260742	-0.202148	0.767578	-0.778068	-0.637454	-0.393721	-0.210938	0.351563	0.410156	598	16_14_55_9721420
0.260742	-0.205078	0.773438	-0.778068	-0.637454	-0.393721	-0.187500	0.375000	0.433594	599	16_14_55_9882710
0.266602	-0.199219	0.773438	-0.768694	-0.637454	-0.393721	-0.199219	0.386719	0.410156	600	16_14_56_0044000
0.257813	-0.187500	0.770508	-0.778068	-0.637454	-0.393721	-0.187500	0.375000	0.433594	601	16_14_56_0205290
0.263672	-0.199219	0.770508	-0.778068	-0.637454	-0.393721	-0.187500	0.375000	0.457031	602	16_14_56_0366580
0.266602	-0.193359	0.776367	-0.768694	-0.637454	-0.393721	-0.210938	0.386719	0.421875	603	16_14_56_0527870
0.254883	-0.193359	0.770508	-0.768694	-0.637454	-0.393721	-0.199219	0.375000	0.363281	604	16_14_56_0689160
0.263672	-0.193359	0.758789	-0.787443	-0.637454	-0.393721	-0.199219	0.375000	0.351563	605	16_14_56_0850450
0.263672	-0.190430	0.773438	-0.778068	-0.637454	-0.393721	-0.164063	0.386719	0.433594	606	16_14_56_1011740
0.254883	-0.187500	0.761719	-0.768694	-0.637454	-0.393721	-0.187500	0.339844	0.480469	607	16_14_56_1173030
0.249023	-0.205078	0.764648	-0.778068	-0.637454	-0.393721	-0.210938	0.351563	0.398438	608	16_14_56_1334320
0.263672	-0.196289	0.773438	-0.787443	-0.646828	-0.393721	0.082031	0.750000	0.480469	609	16_14_56_1495610
0.240234	-0.202148	0.773438	-0.768694	-0.637454	-0.393721	-0.210938	0.375000	0.398438	610	16_14_56_1656900
0.260742	-0.199219	0.770508	-0.768694	-0.637454	-0.393721	-0.210938	0.351563	0.421875	611	16_14_56_1818190
0.249023	-0.193359	0.767578	-0.778068	-0.637454	-0.393721	-0.222656	0.328125	0.433594	612	16_14_56_1979480
0.260742	-0.199219	0.770508	-0.778068	-0.637454	-0.393721	-0.222656	0.386719	0.410156	613	16_14_56_2140770
0.254883	-0.196289	0.761719	-0.778068	-0.637454	-0.393721	-0.199219	0.363281	0.445313	614	16_14_56_2302060
0.246094	-0.187500	0.770508	-0.778068	-0.637454	-0.393721	-0.210938	0.351563	0.410156	615	16_14_56_2463350
0.246094	-0.193359	0.776367	-0.778068	-0.646828	-0.393721	-0.210938	0.375000	0.398438	616	16_14_56_2624640
0.257813	-0.190430	0.779297	-0.778068	-0.637454	-0.393721	-0.199219	0.398438	0.410156	617	16_14_56_2785930
0.260742	-0.193359	0.773438	-0.778068	-0.637454	-0.384347	-0.152344	0.398438	0.410156	618	16_14_56_2947220
0.257813	-0.196289	0.773438	-0.778068	-0.637454	-0.393721	-0.210938	0.351563	0.421875	619	16_14_56_3108510
0.263672	-0.199219	0.773438	-0.768694	-0.637454	-0.393721	-0.011719	0.855469	0.492188	620	16_14_56_3269800
0.263672	-0.193359	0.764648	-0.778068	-0.637454	-0.393721	-0.222656	0.351563	0.445313	621	16_14_56_3431090
0.257813	-0.190430	0.770508	-0.768694	-0.637454	-0.393721	-0.210938	0.351563	0.433594	622	16_14_56_3592380
0.254883	-0.199219	0.770508	-0.778068	-0.637454	-0.393721	-0.105469	0.445313	0.433594	623	16_14_56_3753670
0.251953	-0.205078	0.770508	-0.778068	-0.637454	-0.393721	-0.210938	0.339844	0.386719	624	16_14_56_3914960
0.260742	-0.190430	0.770508	-0.778068	-0.637454	-0.393721	-0.210938	0.339844	0.363281	625	16_14_56_4076250
0.251953	-0.193359	0.770508	-0.768694	-0.637454	-0.393721	-0.187500	0.328125	0.398438	626	16_14_56_4237540
0.249023	-0.196289	0.776367	-0.778068	-0.637454	-0.393721	-0.187500	0.351563	0.433594	627	16_14_56_4398830
0.257813	-0.199219	0.770508	-0.778068	-0.637454	-0.393721	-0.222656	0.339844	0.433594	628	16_14_56_4560120
0.240234	-0.196289	0.773438	-0.768694	-0.637454	-0.393721	-0.210938	0.339844	0.410156	629	16_14_56_4721410
0.254883	-0.193359	0.764648	-0.778068	-0.637454	-0.393721	0.093750	0.796875	0.585938	630	16_14_56_4882700
0.251953	-0.193359	0.776367	-0.768694	-0.637454	-0.393721	-0.187500	0.328125	0.421875	631	16_14_56_5043990
0.249023	-0.199219	0.767578	-0.778068	-0.637454	-0.393721	-0.210938	0.339844	0.421875	632	16_14_56_5205280
0.260742	-0.196289	0.764648	-0.768694	-0.637454	-0.393721	-0.210938	0.339844	0.386719	633	16_14_56_5366570
0.254883	-0.187500	0.776367	-0.778068	-0.646828	-0.393721	-0.187500	0.375000	0.375000	634	16_14_56_5527860
0.260742	-0.190430	0.770508	-0.778068	-0.646828	-0.393721	-0.222656	0.375000	0.398438	635	16_14_56_5689150
0.263672	-0.196289	0.773438	-0.768694	-0.646828	-0.384347	-0.210938	0.351563	0.421875	636	16_14_56_5850440
0.251953	-0.196289	0.776367	-0.778068	-0.637454	-0.393721	-0.199219	0.375000	0.445313	637	16_14_56_6011730
0.269531	-0.193359	0.764648	-0.778068	-0.637454	-0.393721	-0.187500	0.363281	0.457031	638	16_14_56_6173020
0.254883	-0.187500	0.773438	-0.778068	-0.637454	-0.393721	-0.246094	0.351563	0.410156	639	16_14_56_6334310
0.257813	-0.199219	0.770508	-0.778068	-0.646828	-0.393721	-0.222656	0.386719	0.386719	640	16_14_56_6495600
0.257813	-0.199219	0.770508	-0.778068	-0.646828	-0.393721	-0.210938	0.375000	0.433594	641	16_14_56_6656890
0.257813	-0.193359	0.770508	-0.778068	-0.637454	-0.393721	-0.222656	0.375000	0.445313	642	16_14_56_6818180
0.263672	-0.202148	0.779297	-0.768694	-0.637454	-0.393721	-0.222656	0.363281	0.398438	643	16_14_56_6979470
0.254883	-0.202148	0.770508	-0.778068	-0.646828	-0.393721	-0.210938	0.339844	0.386719	644	16_14_56_7140760
0.257813	-0.202148	0.764648	-0.768694	-0.637454	-0.393721	-0.234375	0.375000	0.421875	645	16_14_56_7302050
0.260742	-0.190430	0.764648	-0.778068	-0.646828	-0.393721	-0.210938	0.375000	0.421875	646	16_14_56_7463340
0.257813	-0.184570	0.758789	-0.778068	-0.637454	-0.393721	-0.210938	0.375000	0.398438	647	16_14_56_7624630
0.254883	-0.190430	0.773438	-0.768694	-0.637454	-0.393721	-0.187500	0.375000	0.445313	648	16_14_56_7785920
0.263672	-0.196289	0.773438	-0.778068	-0.637454	-0.393721	-0.210938	0.363281	0.445313	649	16_14_56_7947210
0.260742	-0.196289	0.776367	-0.778068	-0.637454	-0.393721	-0.187500	0.351563	0.421875	650	16_14_56_8108500
0.263672	-0.199219	0.779297	-0.778068	-0.646828	-0.384347	-0.199219	0.375000	0.445313	651	16_14_56_8269790
0.251953	-0.193359	0.770508	-0.778068	-0.637454	-0.393721	-0.187500	0.375000	0.410156	652	16_14_56_8431080
0.249023	-0.202148	0.773438	-0.778068	-0.637454	-0.393721	-0.222656	0.375000	0.375000	653	16_14_56_8592370
0.257813	-0.190430	0.770508	-0.778068	-0.637454	-0.393721	-0.082031	0.480469	0.562500	654	16_14_56_8753660
0.254883	-0.196289	0.770508	-0.778068	-0.637454	-0.393721	-0.222656	0.375000	0.410156	655	16_14_56_8914950
0.257813	-0.199219	0.776367	-0.778068	-0.646828	-0.393721	-0.210938	0.375000	0.398438	656	16_14_56_9076240
0.260742	-0.193359	0.767578	-0.778068	-0.637454	-0.393721	-0.199219	0.375000	0.398438	657	16_14_56_9237530
0.249023	-0.193359	0.770508	-0.768694	-0.637454	-0.393721	-0.199219	0.363281	0.445313	658	16_14_56_9398820
0.254883	-0.190430	0.770508	-0.768694	-0.637454	-0.393721	-0.187500	0.339844	0.492188	659	16_14_56_9560110
0.240234	-0.196289	0.770508	-0.778068	-0.637454	-0.393721	-0.187500	0.351563	0.445313	660	16_14_56_9721400
0.254883	-0.202148	0.776367	-0.778068	-0.646828	-0.393721	-0.187500	0.375000	0.433594	661	16_14_56_9882690
0.246094	-0.187500	0.770508	-0.778068	-0.646828	-0.393721	-0.210938	0.375000	0.421875	662	16_14_57_0043980
0.254883	-0.193359	0.770508	-0.778068	-0.637454	-0.393721	-0.222656	0.375000	0.398438	663	16_14_57_0205270
0.260742	-0.190430	0.770508	-0.787443	-0.646828	-0.393721	-0.117188	0.457031	0.410156	664	16_14_57_0366560
0.260742	-0.199219	0.770508	-0.778068	-0.637454	-0.393721	-0.187500	0.339844	0.433594	665	16_14_57_0527850
0.254883	-0.190430	0.779297	-0.768694	-0.637454	-0.393721	-0.187500	0.375000	0.445313	666	16_14_57_0689140
0.263672	-0.202148	0.767578	-0.787443	-0.637454	-0.393721	-0.210938	0.386719	0.421875	667	16_14_57_0850430
0.257813	-0.193359	0.764648	-0.778068	-0.637454	-0.393721	-0.210938	0.375000	0.410156	668	16_14_57_1011720
0.254883	-0.190430	0.770508	-0.778068	-0.646828	-0.393721	-0.234375	0.363281	0.398438	669	16_14_57_1173010
0.257813	-0.196289	0.773438	-0.778068	-0.646828	-0.393721	-0.187500	0.339844	0.398438	670	16_14_57_1334300
0.254883	-0.193359	0.770508	-0.778068	-0.646828	-0.393721	-0.222656	0.339844	0.410156	671	16_14_57_1495590
0.257813	-0.193359	0.776367	-0.778068	-0.637454	-0.393721	-0.210938	0.375000	0.445313	672	16_14_57_1656880
0.257813	-0.190430	0.770508	-0.768694	-0.637454	-0.393721	-0.199219	0.363281	0.433594	673	16_14_57_1818170
0.246094	-0.193359	0.770508	-0.768694	-0.646828	-0.393721	-0.187500	0.339844	0.445313	674	16_14_57_1979460
0.234375	-0.199219	0.770508	-0.778068	-0.646828	-0.393721	-0.187500	0.363281	0.527344	675	16_14_57_2140750
0.260742	-0.199219	0.770508	-0.778068	-0.646828	-0.393721	-0.152344	0.421875	0.445313	676	16_14_57_2302040
0.254883	-0.196289	0.764648	-0.768694	-0.637454	-0.393721	-0.187500	0.375000	0.433594	677	16_14_57_2463330
0.257813	-0.193359	0.770508	-0.768694	-0.637454	-0.393721	-0.210938	0.351563	0.527344	678	16_14_57_2624620
0.251953	-0.196289	0.761719	-0.778068	-0.646828	-0.393721	-0.187500	0.351563	0.550781	679	16_14_57_2785910
0.263672	-0.196289	0.773438	-0.778068	-0.646828	-0.393721	-0.210938	0.375000	0.457031	680	16_14_57_2947200
0.251953	-0.199219	0.782227	-0.768694	-0.637454	-0.393721	-0.210938	0.375000	0.421875	681	16_14_57_3108490
0.254883	-0.208008	0.773438	-0.768694	-0.637454	-0.393721	0.046875	0.492188	0.527344	682	16_14_57_3269780
0.246094	-0.184570	0.770508	-0.778068	-0.646828	-0.393721	-0.234375	0.304688	0.433594	683	16_14_57_3431070
0.257813	-0.199219	0.776367	-0.778068	-0.646828	-0.393721	-0.210938	0.375000	0.445313	684	16_14_57_3592360
0.257813	-0.193359	0.770508	-0.768694	-0.637454	-0.393721	-0.187500	0.386719	0.457031	685	16_14_57_3753650
0.251953	-0.196289	0.764648	-0.778068	-0.646828	-0.393721	-0.234375	0.375000	0.433594	686	16_14_57_3914940
0.257813	-0.187500	0.761719	-0.787443	-0.646828	-0.393721	-0.222656	0.375000	0.410156	687	16_14_57_4076230
0.249023	-0.187500	0.773438	-0.759320	-0.637454	-0.384347	-0.199219	0.375000	0.433594	688	16_14_57_4237520
0.263672	-0.184570	0.773438	-0.778068	-0.646828	-0.393721	-0.210938	0.375000	0.421875	689	16_14_57_4398810
0.263672	-0.193359	0.770508	-0.778068	-0.646828	-0.393721	-0.222656	0.375000	0.410156	690	16_14_57_4560100
0.251953	-0.205078	0.764648	-0.768694	-0.646828	-0.393721	-0.246094	0.375000	0.410156	691	16_14_57_4721390
0.251953	-0.202148	0.770508	-0.768694	-0.637454	-0.393721	-0.164063	0.363281	0.398438	692	16_14_57_4882680
0.260742	-0.199219	0.773438	-0.778068	-0.637454	-0.393721	-0.187500	0.351563	0.398438	693	16_14_57_5043970
0.257813	-0.190430	0.758789	-0.778068	-0.637454	-0.393721	-0.187500	0.375000	0.457031	694	16_14_57_5205260
0.266602	-0.199219	0.770508	-0.768694	-0.637454	-0.393721	-0.187500	0.375000	0.480469	695	16_14_57_5366550
0.263672	-0.196289	0.773438	-0.768694	-0.637454	-0.393721	-0.199219	0.375000	0.468750	696	16_14_57_5527840
0.257813	-0.199219	0.770508	-0.778068	-0.637454	-0.393721	-0.199219	0.375000	0.398438	697	16_14_57_5689130
0.251953	-0.196289	0.761719	-0.768694	-0.637454	-0.393721	-0.210938	0.363281	0.363281	698	16_14_57_5850420
0.260742	-0.196289	0.776367	-0.768694	-0.637454	-0.393721	-0.210938	0.351563	0.421875	699	16_14_57_6011710
0.251953	-0.190430	0.767578	-0.778068	-0.637454	-0.393721	-0.210938	0.375000	0.421875	700	16_14_57_6173000
0.254883	-0.181641	0.770508	-0.778068	-0.637454	-0.393721	-0.234375	0.339844	0.421875	701	16_14_57_6334290
0.260742	-0.202148	0.770508	-0.778068	-0.637454	-0.393721	-0.187500	0.351563	0.433594	702	16_14_57_6495580
0.257813	-0.199219	0.770508	-0.778068	-0.637454	-0.393721	-0.246094	0.363281	0.410156	703	16_14_57_6656870
0.254883	-0.202148	0.758789	-0.768694	-0.637454	-0.393721	-0.187500	0.386719	0.386719	704	16_14_57_6818160
0.251953	-0.196289	0.776367	-0.768694	-0.646828	-0.393721	-0.187500	0.386719	0.375000	705	16_14_57_6979450
0.257813	-0.202148	0.770508	-0.768694	-0.637454	-0.384347	-0.222656	0.375000	0.398438	706	16_14_57_7140740
0.240234	-0.193359	0.761719	-0.778068	-0.637454	-0.393721	-0.105469	0.433594	0.445313	707	16_14_57_7302030
0.260742	-0.199219	0.773438	-0.768694	-0.637454	-0.384347	-0.199219	0.386719	0.363281	708	16_14_57_7463320
0.257813	-0.193359	0.764648	-0.778068	-0.637454	-0.393721	-0.187500	0.375000	0.363281	709	16_14_57_7624610
0.257813	-0.193359	0.770508	-0.787443	-0.646828	-0.393721	-0.210938	0.363281	0.398438	710	16_14_57_7785900
0.251953	-0.193359	0.764648	-0.778068	-0.637454	-0.393721	-0.199219	0.351563	0.386719	711	16_14_57_7947190
0.251953	-0.196289	0.770508	-0.768694	-0.646828	-0.393721	-0.199219	0.375000	0.386719	712	16_14_57_8108480
0.249023	-0.199219	0.773438	-0.778068	-0.646828	-0.393721	-0.222656	0.375000	0.375000	713	16_14_57_8269770
0.257813	-0.196289	0.761719	-0.768694	-0.637454	-0.393721	-0.234375	0.375000	0.398438	714	16_14_57_8431060
0.251953	-0.202148	0.770508	-0.768694	-0.646828	-0.393721	-0.234375	0.339844	0.398438	715	16_14_57_8592350
0.251953	-0.199219	0.764648	-0.778068	-0.646828	-0.393721	-0.187500	0.351563	0.363281	716	16_14_57_8753640
0.249023	-0.193359	0.770508	-0.768694	-0.637454	-0.393721	-0.210938	0.375000	0.363281	717	16_14_57_8914930
0.257813	-0.205078	0.770508	-0.768694	-0.637454	-0.393721	-0.234375	0.351563	0.398438	718	16_14_57_9076220
0.254883	-0.190430	0.773438	-0.768694	-0.637454	-0.393721	-0.234375	0.339844	0.433594	719	16_14_57_9237510
0.251953	-0.178711	0.773438	-0.778068	-0.637454	-0.393721	-0.187500	0.375000	0.433594	720	16_14_57_9398800
0.243164	-0.190430	0.770508	-0.778068	-0.646828	-0.393721	-0.210938	0.375000	0.398438	721	16_14_57_9560090
0.257813	-0.199219	0.776367	-0.759320	-0.637454	-0.384347	-0.199219	0.386719	0.398438	722	16_14_57_9721380
0.246094	-0.196289	0.770508	-0.787443	-0.646828	-0.393721	-0.175781	0.410156	0.398438	723	16_14_57_9882670
0.260742	-0.187500	0.764648	-0.778068	-0.637454	-0.393721	-0.187500	0.375000	0.386719	724	16_14_58_0043960
0.249023	-0.199219	0.761719	-0.768694	-0.637454	-0.393721	-0.199219	0.679688	0.445313	725	16_14_58_0205250
0.246094	-0.193359	0.770508	-0.778068	-0.637454	-0.393721	-0.210938	0.421875	0.550781	726	16_14_58_0366540
0.266602	-0.187500	0.758789	-0.778068	-0.646828	-0.393721	-0.187500	0.375000	0.433594	727	16_14_58_0527830
0.254883	-0.193359	0.770508	-0.768694	-0.637454	-0.393721	-0.210938	0.375000	0.410156	728	16_14_58_0689120
0.257813	-0.199219	0.773438	-0.778068	-0.637454	-0.384347	-0.175781	0.375000	0.386719	729	16_14_58_0850410
0.249023	-0.184570	0.761719	-0.768694	-0.637454	-0.393721	-0.187500	0.363281	0.363281	730	16_14_58_1011700
0.263672	-0.193359	0.776367	-0.768694	-0.646828	-0.393721	-0.210938	0.339844	0.375000	731	16_14_58_1172990
0.249023	-0.199219	0.767578	-0.768694	-0.637454	-0.393721	-0.199219	0.375000	0.386719	732	16_14_58_1334280
0.251953	-0.190430	0.767578	-0.778068	-0.637454	-0.393721	-0.187500	0.375000	0.386719	733	16_14_58_1495570
0.257813	-0.199219	0.776367	-0.778068	-0.637454	-0.393721	-0.234375	0.375000	0.386719	734	16_14_58_1656860
0.251953	-0.202148	0.770508	-0.768694	-0.637454	-0.393721	-0.210938	0.386719	0.410156	735	16_14_58_1818150
0.251953	-0.199219	0.770508	-0.778068	-0.646828	-0.393721	-0.210938	0.375000	0.457031	736	16_14_58_1979440
0.257813	-0.196289	0.770508	-0.768694	-0.646828	-0.393721	-0.187500	0.363281	0.468750	737	16_14_58_2140730
0.257813	-0.202148	0.761719	-0.768694	-0.637454	-0.393721	-0.175781	0.398438	0.433594	738	16_14_58_2302020
0.254883	-0.193359	0.770508	-0.787443	-0.637454	-0.393721	-0.011719	0.492188	0.421875	739	16_14_58_2463310
0.254883	-0.193359	0.770508	-0.778068	-0.637454	-0.384347	-0.187500	0.363281	0.398438	740	16_14_58_2624600
0.246094	-0.199219	0.764648	-0.778068	-0.637454	-0.393721	-0.187500	0.363281	0.363281	741	16_14_58_2785890
0.249023	-0.196289	0.770508	-0.778068	-0.637454	-0.393721	-0.187500	0.386719	0.445313	742	16_14_58_2947180
0.263672	-0.199219	0.764648	-0.787443	-0.637454	-0.393721	0.199219	0.679688	0.492188	743	16_14_58_3108470
0.254883	-0.193359	0.776367	-0.778068	-0.637454	-0.393721	0.058594	0.574219	0.398438	744	16_14_58_3269760
0.257813	-0.190430	0.776367	-0.778068	-0.646828	-0.393721	-0.058594	0.714844	0.492188	745	16_14_58_3431050
0.260742	-0.190430	0.776367	-0.778068	-0.637454	-0.393721	-0.234375	0.375000	0.386719	746	16_14_58_3592340
0.249023	-0.196289	0.767578	-0.768694	-0.637454	-0.393721	-0.210938	0.375000	0.398438	747	16_14_58_3753630
0.251953	-0.190430	0.761719	-0.768694	-0.637454	-0.393721	-0.210938	0.351563	0.410156	748	16_14_58_3914920
0.249023	-0.205078	0.779297	-0.768694	-0.637454	-0.393721	-0.199219	0.304688	0.410156	749	16_14_58_4076210
0.254883	-0.205078	0.761719	-0.778068	-0.646828	-0.393721	-0.210938	0.316406	0.457031	750	16_14_58_4237500
0.260742	-0.196289	0.764648	-0.778068	-0.637454	-0.393721	0.046875	0.527344	0.468750	751	16_14_58_4398790
0.260742	-0.196289	0.770508	-0.778068	-0.637454	-0.393721	-0.199219	0.386719	0.386719	752	16_14_58_4560080
0.251953	-0.199219	0.770508	-0.778068	-0.637454	-0.393721	-0.187500	0.375000	0.375000	753	16_14_58_4721370
0.266602	-0.196289	0.767578	-0.778068	-0.637454	-0.393721	-0.210938	0.375000	0.398438	754	16_14_58_4882660
0.254883	-0.193359	0.773438	-0.768694	-0.637454	-0.393721	-0.210938	0.375000	0.421875	755	16_14_58_5043950
0.251953	-0.202148	0.764648	-0.778068	-0.637454	-0.393721	-0.210938	0.375000	0.421875	756	16_14_58_5205240
0.249023	-0.202148	0.776367	-0.778068	-0.637454	-0.393721	-0.210938	0.375000	0.410156	757	16_14_58_5366530
0.246094	-0.193359	0.770508	-0.778068	-0.637454	-0.393721	-0.234375	0.375000	0.375000	758	16_14_58_5527820
0.254883	-0.196289	0.767578	-0.768694	-0.637454	-0.393721	-0.210938	0.375000	0.375000	759	16_14_58_5689110
0.257813	-0.187500	0.767578	-0.778068	-0.646828	-0.393721	-0.234375	0.363281	0.457031	760	16_14_58_5850400
0.260742	-0.193359	0.770508	-0.778068	-0.646828	-0.393721	-0.199219	0.363281	0.468750	761	16_14_58_6011690
0.251953	-0.190430	0.773438	-0.768694	-0.637454	-0.393721	-0.187500	0.351563	0.445313	762	16_14_58_6172980
0.263672	-0.193359	0.761719	-0.778068	-0.637454	-0.393721	-0.210938	0.363281	0.457031	763	16_14_58_6334270
0.254883	-0.193359	0.779297	-0.768694	-0.637454	-0.393721	0.140625	0.597656	0.515625	764	16_14_58_6495560
0.251953	-0.190430	0.773438	-0.778068	-0.637454	-0.393721	-0.199219	0.351563	0.410156	765	16_14_58_6656850
0.251953	-0.190430	0.773438	-0.768694	-0.637454	-0.393721	-0.187500	0.363281	0.386719	766	16_14_58_6818140
0.251953	-0.187500	0.776367	-0.778068	-0.637454	-0.393721	-0.210938	0.351563	0.410156	767	16_14_58_6979430
0.237305	-0.199219	0.770508	-0.778068	-0.637454	-0.393721	-0.210938	0.375000	0.457031	768	16_14_58_7140720
0.240234	-0.196289	0.782227	-0.778068	-0.637454	-0.393721	-0.234375	0.363281	0.398438	769	16_14_58_7302010
0.251953	-0.199219	0.764648	-0.778068	-0.646828	-0.393721	-0.210938	0.375000	0.339844	770	16_14_58_7463300
0.257813	-0.199219	0.770508	-0.778068	-0.637454	-0.393721	-0.222656	0.375000	0.410156	771	16_14_58_7624590
0.257813	-0.196289	0.764648	-0.787443	-0.637454	-0.393721	0.035156	0.527344	0.539063	772	16_14_58_7785880
0.257813	-0.193359	0.773438	-0.778068	-0.646828	-0.393721	-0.187500	0.363281	0.480469	773	16_14_58_7947170
0.254883	-0.199219	0.773438	-0.778068	-0.637454	-0.393721	-0.222656	0.386719	0.480469	774	16_14_58_8108460
0.263672	-0.187500	0.770508	-0.778068	-0.646828	-0.393721	-0.210938	0.375000	0.421875	775	16_14_58_8269750
0.254883	-0.190430	0.767578	-0.768694	-0.637454	-0.393721	-0.187500	0.375000	0.375000	776	16_14_58_8431040
0.246094	-0.193359	0.764648	-0.778068	-0.637454	-0.384347	-0.187500	0.375000	0.410156	777	16_14_58_8592330
0.251953	-0.190430	0.767578	-0.778068	-0.646828	-0.393721	-0.210938	0.375000	0.433594	778	16_14_58_8753620
0.251953	-0.187500	0.761719	-0.778068	-0.646828	-0.393721	-0.199219	0.375000	0.421875	779	16_14_58_8914910
0.254883	-0.187500	0.776367	-0.768694	-0.646828	-0.393721	-0.234375	0.386719	0.410156	780	16_14_58_9076200
0.263672	-0.187500	0.770508	-0.778068	-0.646828	-0.393721	-0.246094	0.375000	0.410156	781	16_14_58_9237490
0.251953	-0.193359	0.761719	-0.778068	-0.646828	-0.393721	-0.046875	0.492188	0.527344	782	16_14_58_9398780
0.251953	-0.190430	0.770508	-0.778068	-0.646828	-0.393721	-0.187500	0.375000	0.433594	783	16_14_58_9560070
0.257813	-0.196289	0.770508	-0.768694	-0.637454	-0.393721	-0.222656	0.375000	0.410156	784	16_14_58_9721360
0.251953	-0.181641	0.773438	-0.778068	-0.637454	-0.393721	-0.222656	0.375000	0.421875	785	16_14_58_9882650
0.257813	-0.190430	0.776367	-0.778068	-0.646828	-0.393721	-0.210938	0.375000	0.410156	786	16_14_59_0043940
0.251953	-0.193359	0.767578	-0.787443	-0.646828	-0.393721	-0.082031	0.773438	0.457031	787	16_14_59_0205230
0.251953	-0.193359	0.764648	-0.778068	-0.637454	-0.393721	-0.199219	0.375000	0.410156	788	16_14_59_0366520
0.257813	-0.196289	0.770508	-0.778068	-0.646828	-0.393721	-0.105469	0.433594	0.433594	789	16_14_59_0527810
0.260742	-0.193359	0.773438	-0.778068	-0.637454	-0.393721	-0.199219	0.375000	0.351563	790	16_14_59_0689100
0.254883	-0.193359	0.767578	-0.768694	-0.637454	-0.393721	-0.222656	0.386719	0.363281	791	16_14_59_0850390
0.251953	-0.193359	0.773438	-0.787443	-0.637454	-0.393721	-0.011719	0.550781	0.386719	792	16_14_59_1011680
0.251953	-0.202148	0.770508	-0.778068	-0.637454	-0.393721	-0.222656	0.363281	0.421875	793	16_14_59_1172970
0.254883	-0.196289	0.773438	-0.768694	-0.637454	-0.393721	-0.187500	0.351563	0.445313	794	16_14_59_1334260
0.251953	-0.193359	0.764648	-0.778068	-0.646828	-0.393721	-0.210938	0.375000	0.386719	795	16_14_59_1495550
0.254883	-0.199219	0.767578	-0.778068	-0.646828	-0.393721	-0.222656	0.375000	0.386719	796	16_14_59_1656840
0.257813	-0.205078	0.776367	-0.768694	-0.637454	-0.393721	-0.210938	0.375000	0.398438	797	16_14_59_1818130
0.254883	-0.193359	0.764648	-0.778068	-0.637454	-0.393721	-0.210938	0.363281	0.421875	798	16_14_59_1979420
0.257813	-0.193359	0.764648	-0.768694	-0.637454	-0.393721	-0.210938	0.351563	0.445313	799	16_14_59_2140710
0.240234	-0.196289	0.770508	-0.768694	-0.637454	-0.393721	-0.152344	0.410156	0.468750	800	16_14_59_2302000
0.257813	-0.193359	0.767578	-0.778068	-0.646828	-0.393721	-0.210938	0.375000	0.421875	801	16_14_59_2463290
0.257813	-0.190430	0.776367	-0.787443	-0.646828	-0.393721	-0.187500	0.375000	0.445313	802	16_14_59_2624580
0.251953	-0.196289	0.758789	-0.778068	-0.637454	-0.393721	-0.199219	0.375000	0.410156	803	16_14_59_2785870
0.257813	-0.202148	0.770508	-0.778068	-0.646828	-0.393721	-0.187500	0.363281	0.398438	804	16_14_59_2947160
0.254883	-0.202148	0.770508	-0.778068	-0.637454	-0.384347	-0.234375	0.375000	0.445313	805	16_14_59_3108450
0.246094	-0.205078	0.773438	-0.768694	-0.637454	-0.393721	-0.152344	0.398438	0.433594	806	16_14_59_3269740
0.254883	-0.199219	0.770508	-0.778068	-0.646828	-0.393721	-0.234375	0.375000	0.433594	807	16_14_59_3431030
0.266602	-0.196289	0.761719	-0.778068	-0.646828	-0.393721	-0.210938	0.351563	0.433594	808	16_14_59_3592320
0.263672	-0.190430	0.773438	-0.759320	-0.637454	-0.393721	-0.187500	0.328125	0.351563	809	16_14_59_3753610
0.257813	-0.196289	0.770508	-0.787443	-0.637454	-0.393721	-0.140625	0.398438	0.375000	810	16_14_59_3914900
0.260742	-0.190430	0.779297	-0.778068	-0.637454	-0.393721	-0.222656	0.351563	0.386719	811	16_14_59_4076190
0.257813	-0.196289	0.773438	-0.768694	-0.637454	-0.393721	-0.199219	0.375000	0.433594	812	16_14_59_4237480
0.249023	-0.199219	0.776367	-0.778068	-0.637454	-0.384347	-0.023438	0.492188	0.503906	813	16_14_59_4398770
0.254883	-0.205078	0.758789	-0.796817	-0.637454	-0.393721	-0.210938	0.363281	0.433594	814	16_14_59_4560060
0.246094	-0.190430	0.773438	-0.778068	-0.637454	-0.393721	-0.164063	0.351563	0.445313	815	16_14_59_4721350
0.251953	-0.199219	0.767578	-0.778068	-0.637454	-0.393721	-0.187500	0.363281	0.480469	816	16_14_59_4882640
0.257813	-0.202148	0.770508	-0.787443	-0.637454	-0.393721	-0.199219	0.386719	0.457031	817	16_14_59_5043930
0.251953	-0.193359	0.767578	-0.778068	-0.646828	-0.403096	-0.199219	0.375000	0.386719	818	16_14_59_5205220
0.251953	-0.199219	0.764648	-0.787443	-0.637454	-0.393721	-0.128906	0.574219	0.667969	819	16_14_59_5366510
0.251953	-0.199219	0.770508	-0.778068	-0.637454	-0.393721	-0.210938	0.351563	0.457031	820	16_14_59_5527800
0.254883	-0.196289	0.767578	-0.768694	-0.646828	-0.393721	-0.199219	0.351563	0.410156	821	16_14_59_5689090
0.251953	-0.199219	0.776367	-0.778068	-0.637454	-0.393721	-0.187500	0.351563	0.410156	822	16_14_59_5850380
0.260742	-0.196289	0.764648	-0.778068	-0.637454	-0.393721	-0.187500	0.375000	0.410156	823	16_14_59_6011670
0.257813	-0.187500	0.770508	-0.787443	-0.637454	-0.393721	-0.011719	0.539063	0.445313	824	16_14_59_6172960
0.263672	-0.193359	0.776367	-0.778068	-0.637454	-0.393721	-0.210938	0.375000	0.398438	825	16_14_59_6334250
0.257813	-0.193359	0.770508	-0.768694	-0.637454	-0.393721	-0.222656	0.375000	0.375000	826	16_14_59_6495540
0.249023	-0.205078	0.770508	-0.768694	-0.637454	-0.393721	-0.234375	0.375000	0.410156	827	16_14_59_6656830
0.251953	-0.196289	0.782227	-0.787443	-0.646828	-0.393721	-0.152344	0.398438	0.433594	828	16_14_59_6818120
0.260742	-0.187500	0.770508	-0.778068	-0.637454	-0.393721	-0.187500	0.351563	0.386719	829	16_14_59_6979410
0.260742	-0.199219	0.773438	-0.778068	-0.637454	-0.393721	-0.210938	0.351563	0.386719	830	16_14_59_7140700
0.260742	-0.193359	0.770508	-0.768694	-0.637454	-0.393721	-0.152344	0.398438	0.421875	831	16_14_59_7301990
0.260742	-0.193359	0.770508	-0.778068	-0.637454	-0.384347	-0.210938	0.339844	0.421875	832	16_14_59_7463280
0.254883	-0.190430	0.773438	-0.768694	-0.637454	-0.393721	-0.210938	0.375000	0.398438	833	16_14_59_7624570
0.257813	-0.199219	0.758789	-0.787443	-0.637454	-0.393721	0.000000	0.527344	0.433594	834	16_14_59_7785860
0.251953	-0.190430	0.767578	-0.778068	-0.637454	-0.393721	-0.187500	0.386719	0.421875	835	16_14_59_7947150
0.249023	-0.187500	0.776367	-0.778068	-0.637454	-0.393721	-0.199219	0.363281	0.433594	836	16_14_59_8108440
0.249023	-0.199219	0.767578	-0.778068	-0.637454	-0.393721	-0.210938	0.351563	0.445313	837	16_14_59_8269730
0.251953	-0.196289	0.776367	-0.778068	-0.637454	-0.393721	-0.187500	0.351563	0.457031	838	16_14_59_8431020
0.257813	-0.190430	0.764648	-0.778068	-0.637454	-0.393721	-0.210938	0.375000	0.410156	839	16_14_59_8592310
0.257813	-0.196289	0.764648	-0.778068	-0.637454	-0.393721	-0.210938	0.375000	0.363281	840	16_14_59_8753600
0.243164	-0.196289	0.767578	-0.778068	-0.637454	-0.393721	-0.128906	0.433594	0.468750	841	16_14_59_8914890
0.251953	-0.199219	0.776367	-0.778068	-0.637454	-0.393721	-0.210938	0.386719	0.457031	842	16_14_59_9076180
0.254883	-0.193359	0.773438	-0.778068	-0.646828	-0.393721	-0.210938	0.375000	0.410156	843	16_14_59_9237470
0.251953	-0.205078	0.782227	-0.768694	-0.637454	-0.393721	-0.234375	0.375000	0.398438	844	16_14_59_9398760
0.254883	-0.202148	0.770508	-0.778068	-0.637454	-0.393721	-0.187500	0.375000	0.457031	845	16_14_59_9560050
0.257813	-0.196289	0.770508	-0.778068	-0.637454	-0.393721	0.234375	0.597656	0.621094	846	16_14_59_9721340
0.260742	-0.193359	0.764648	-0.778068	-0.637454	-0.393721	-0.187500	0.375000	0.433594	847	16_14_59_9882630
0.251953	-0.184570	0.767578	-0.787443	-0.646828	-0.393721	-0.187500	0.398438	0.421875	848	16_15_00_0043920
0.254883	-0.187500	0.770508	-0.778068	-0.646828	-0.393721	-0.210938	0.375000	0.386719	849	16_15_00_0205210
0.257813	-0.190430	0.761719	-0.778068	-0.637454	-0.393721	-0.210938	0.375000	0.421875	850	16_15_00_0366500
0.254883	-0.193359	0.767578	-0.778068	-0.637454	-0.393721	-0.210938	0.363281	0.480469	851	16_15_00_0527790
0.246094	-0.193359	0.764648	-0.778068	-0.646828	-0.393721	-0.187500	0.351563	0.468750	852	16_15_00_0689080
0.240234	-0.187500	0.773438	-0.778068	-0.646828	-0.393721	-0.187500	0.375000	0.375000	853	16_15_00_0850370
0.251953	-0.196289	0.764648	-0.778068	-0.637454	-0.393721	-0.210938	0.363281	0.421875	854	16_15_00_1011660
0.251953	-0.190430	0.776367	-0.778068	-0.637454	-0.393721	-0.246094	0.351563	0.457031	855	16_15_00_1172950
0.263672	-0.190430	0.770508	-0.778068	-0.637454	-0.393721	-0.210938	0.363281	0.492188	856	16_15_00_1334240
0.257813	-0.199219	0.776367	-0.778068	-0.637454	-0.393721	-0.210938	0.339844	0.445313	857	16_15_00_1495530
0.263672	-0.190430	0.761719	-0.768694	-0.637454	-0.393721	0.152344	0.703125	0.433594	858	16_15_00_1656820
0.251953	-0.193359	0.770508	-0.778068	-0.637454	-0.393721	-0.210938	0.375000	0.351563	859	16_15_00_1818110
0.251953	-0.193359	0.773438	-0.778068	-0.646828	-0.393721	-0.210938	0.375000	0.375000	860	16_15_00_1979400
0.254883	-0.190430	0.767578	-0.778068	-0.637454	-0.393721	-0.246094	0.375000	0.421875	861	16_15_00_2140690
0.251953	-0.196289	0.764648	-0.768694	-0.637454	-0.393721	-0.210938	0.363281	0.445313	862	16_15_00_2301980
0.254883	-0.202148	0.764648	-0.778068	-0.637454	-0.393721	-0.210938	0.351563	0.398438	863	16_15_00_2463270
0.243164	-0.193359	0.770508	-0.778068	-0.637454	-0.393721	-0.210938	0.375000	0.363281	864	16_15_00_2624560
0.257813	-0.193359	0.770508	-0.778068	-0.646828	-0.393721	-0.187500	0.363281	0.363281	865	16_15_00_2785850
0.254883	-0.199219	0.764648	-0.768694	-0.637454	-0.393721	-0.210938	0.339844	0.363281	866	16_15_00_2947140
0.257813	-0.187500	0.776367	-0.787443	-0.637454	-0.393721	-0.152344	0.398438	0.410156	867	16_15_00_3108430
0.251953	-0.205078	0.770508	-0.778068	-0.637454	-0.393721	-0.199219	0.351563	0.386719	868	16_15_00_3269720
0.266602	-0.196289	0.773438	-0.778068	-0.637454	-0.393721	-0.210938	0.375000	0.398438	869	16_15_00_3431010
0.257813	-0.199219	0.770508	-0.768694	-0.637454	-0.393721	-0.222656	0.363281	0.457031	870	16_15_00_3592300
0.240234	-0.199219	0.770508	-0.778068	-0.637454	-0.393721	-0.199219	0.328125	0.398438	871	16_15_00_3753590
0.251953	-0.196289	0.761719	-0.778068	-0.637454	-0.393721	-0.234375	0.339844	0.339844	872	16_15_00_3914880
0.263672	-0.193359	0.773438	-0.778068	-0.646828	-0.393721	-0.187500	0.375000	0.351563	873	16_15_00_4076170
0.251953	-0.193359	0.764648	-0.778068	-0.637454	-0.393721	-0.187500	0.375000	0.410156	874	16_15_00_4237460
0.240234	-0.193359	0.761719	-0.778068	-0.637454	-0.393721	-0.199219	0.363281	0.433594	875	16_15_00_4398750
0.263672	-0.199219	0.767578	-0.787443	-0.637454	-0.393721	0.093750	0.515625	0.492188	876	16_15_00_4560040
0.257813	-0.202148	0.773438	-0.768694	-0.637454	-0.393721	-0.210938	0.328125	0.421875	877	16_15_00_4721330
0.260742	-0.202148	0.770508	-0.778068	-0.646828	-0.393721	-0.222656	0.351563	0.457031	878	16_15_00_4882620
0.254883	-0.199219	0.764648	-0.778068	-0.637454	-0.393721	-0.210938	0.351563	0.433594	879	16_15_00_5043910
0.257813	-0.190430	0.770508	-0.787443	-0.637454	-0.393721	-0.046875	0.691406	0.632813	880	16_15_00_5205200
0.254883	-0.196289	0.770508	-0.768694	-0.637454	-0.393721	-0.199219	0.351563	0.386719	881	16_15_00_5366490
0.254883	-0.187500	0.773438	-0.787443	-0.637454	-0.393721	-0.210938	0.386719	0.386719	882	16_15_00_5527780
0.263672	-0.193359	0.770508	-0.768694	-0.637454	-0.384347	-0.210938	0.375000	0.386719	883	16_15_00_5689070
0.260742	-0.190430	0.770508	-0.768694	-0.646828	-0.393721	-0.210938	0.375000	0.410156	884	16_15_00_5850360
0.249023	-0.199219	0.758789	-0.768694	-0.637454	-0.393721	-0.246094	0.386719	0.457031	885	16_15_00_6011650
0.246094	-0.196289	0.776367	-0.778068	-0.637454	-0.393721	-0.164063	0.386719	0.398438	886	16_15_00_6172940
0.249023	-0.184570	0.776367	-0.778068	-0.646828	-0.393721	0.035156	0.515625	0.492188	887	16_15_00_6334230
0.251953	-0.190430	0.764648	-0.778068	-0.637454	-0.393721	-0.210938	0.386719	0.398438	888	16_15_00_6495520
0.257813	-0.193359	0.773438	-0.778068	-0.637454	-0.393721	-0.222656	0.375000	0.363281	889	16_15_00_6656810
0.251953	-0.190430	0.770508	-0.778068	-0.637454	-0.393721	-0.187500	0.363281	0.351563	890	16_15_00_6818100
0.260742	-0.181641	0.767578	-0.778068	-0.646828	-0.393721	-0.128906	0.421875	0.363281	891	16_15_00_6979390
0.257813	-0.190430	0.770508	-0.768694	-0.646828	-0.393721	-0.199219	0.398438	0.363281	892	16_15_00_7140680
0.257813	-0.184570	0.776367	-0.787443	-0.646828	-0.393721	-0.105469	0.398438	0.410156	893	16_15_00_7301970
0.260742	-0.196289	0.776367	-0.778068	-0.646828	-0.393721	-0.222656	0.316406	0.398438	894	16_15_00_7463260
0.260742	-0.196289	0.761719	-0.768694	-0.646828	-0.393721	-0.199219	0.375000	0.375000	895	16_15_00_7624550
0.257813	-0.202148	0.770508	-0.778068	-0.637454	-0.393721	-0.210938	0.351563	0.398438	896	16_15_00_7785840
0.257813	-0.193359	0.770508	-0.768694	-0.637454	-0.393721	-0.210938	0.363281	0.410156	897	16_15_00_7947130
0.254883	-0.199219	0.770508	-0.778068	-0.637454	-0.393721	-0.187500	0.375000	0.410156	898	16_15_00_8108420
0.254883	-0.199219	0.764648	-0.778068	-0.646828	-0.393721	-0.187500	0.410156	0.457031	899	16_15_00_8269710
0.254883	-0.187500	0.761719	-0.778068	-0.646828	-0.393721	-0.210938	0.386719	0.433594	900	16_15_00_8431000
0.260742	-0.187500	0.776367	-0.768694	-0.646828	-0.393721	-0.187500	0.363281	0.421875	901	16_15_00_8592290
0.257813	-0.187500	0.776367	-0.778068	-0.646828	-0.393721	-0.187500	0.351563	0.457031	902	16_15_00_8753580
0.260742	-0.199219	0.773438	-0.778068	-0.637454	-0.393721	-0.210938	0.375000	0.492188	903	16_15_00_8914870
0.246094	-0.193359	0.770508	-0.778068	-0.646828	-0.393721	-0.210938	0.363281	0.398438	904	16_15_00_9076160
0.251953	-0.187500	0.764648	-0.778068	-0.646828	-0.393721	-0.210938	0.375000	0.363281	905	16_15_00_9237450
0.254883	-0.193359	0.770508	-0.778068	-0.646828	-0.393721	-0.210938	0.375000	0.445313	906	16_15_00_9398740
0.249023	-0.199219	0.767578	-0.768694	-0.646828	-0.393721	-0.222656	0.375000	0.457031	907	16_15_00_9560030
0.260742	-0.190430	0.773438	-0.768694	-0.646828	-0.393721	-0.246094	0.375000	0.386719	908	16_15_00_9721320
0.257813	-0.190430	0.761719	-0.778068	-0.646828	-0.393721	-0.210938	0.375000	0.386719	909	16_15_00_9882610
0.249023	-0.199219	0.770508	-0.787443	-0.637454	-0.393721	-0.152344	0.398438	0.410156	910	16_15_01_0043900
0.249023	-0.199219	0.776367	-0.778068	-0.637454	-0.393721	-0.187500	0.375000	0.410156	911	16_15_01_0205190
0.260742	-0.187500	0.764648	-0.778068	-0.646828	-0.393721	-0.187500	0.363281	0.410156	912	16_15_01_0366480
0.246094	-0.196289	0.770508	-0.778068	-0.646828	-0.393721	-0.140625	0.398438	0.410156	913	16_15_01_0527770
0.243164	-0.187500	0.764648	-0.787443	-0.646828	-0.393721	-0.234375	0.386719	0.539063	914	16_15_01_0689060
0.251953	-0.190430	0.770508	-0.768694	-0.637454	-0.393721	-0.187500	0.375000	0.457031	915	16_15_01_0850350
0.254883	-0.190430	0.764648	-0.778068	-0.637454	-0.393721	-0.199219	0.363281	0.398438	916	16_15_01_1011640
0.260742	-0.187500	0.776367	-0.768694	-0.637454	-0.393721	-0.187500	0.339844	0.375000	917	16_15_01_1172930
0.251953	-0.193359	0.770508	-0.778068	-0.646828	-0.393721	-0.210938	0.363281	0.410156	918	16_15_01_1334220
0.249023	-0.196289	0.764648	-0.778068	-0.646828	-0.393721	0.140625	0.562500	0.527344	919	16_15_01_1495510
0.257813	-0.196289	0.770508	-0.768694	-0.646828	-0.393721	-0.210938	0.375000	0.410156	920	16_15_01_1656800
0.251953	-0.190430	0.776367	-0.778068	-0.646828	-0.393721	-0.210938	0.363281	0.410156	921	16_15_01_1818090
0.251953	-0.196289	0.767578	-0.778068	-0.646828	-0.393721	-0.210938	0.351563	0.410156	922	16_15_01_1979380
0.263672	-0.193359	0.770508	-0.768694	-0.646828	-0.393721	-0.246094	0.375000	0.457031	923	16_15_01_2140670
0.266602	-0.190430	0.767578	-0.778068	-0.646828	-0.393721	-0.210938	0.375000	0.468750	924	16_15_01_2301960
0.249023	-0.190430	0.770508	-0.778068	-0.646828	-0.393721	-0.210938	0.375000	0.457031	925	16_15_01_2463250
0.251953	-0.193359	0.764648	-0.778068	-0.637454	-0.393721	-0.210938	0.386719	0.480469	926	16_15_01_2624540
0.254883	-0.193359	0.776367	-0.778068	-0.646828	-0.393721	-0.187500	0.375000	0.457031	927	16_15_01_2785830
0.257813	-0.196289	0.758789	-0.778068	-0.646828	-0.393721	-0.199219	0.375000	0.410156	928	16_15_01_2947120
0.251953	-0.199219	0.770508	-0.768694	-0.646828	-0.384347	-0.070313	0.480469	0.445313	929	16_15_01_3108410
0.260742	-0.196289	0.767578	-0.787443	-0.646828	-0.384347	0.210938	0.726563	0.503906	930	16_15_01_3269700
0.260742	-0.193359	0.767578	-0.778068	-0.637454	-0.393721	-0.210938	0.375000	0.421875	931	16_15_01_3430990
0.251953	-0.202148	0.764648	-0.787443	-0.637454	-0.393721	-0.210938	0.375000	0.410156	932	16_15_01_3592280
0.251953	-0.196289	0.770508	-0.778068	-0.637454	-0.384347	-0.246094	0.363281	0.433594	933	16_15_01_3753570
0.254883	-0.184570	0.770508	-0.778068	-0.646828	-0.393721	-0.210938	0.375000	0.433594	934	16_15_01_3914860
0.251953	-0.199219	0.767578	-0.778068	-0.637454	-0.393721	-0.105469	0.457031	0.421875	935	16_15_01_4076150
0.260742	-0.190430	0.773438	-0.778068	-0.656202	-0.384347	-0.210938	0.351563	0.386719	936	16_15_01_4237440
0.246094	-0.196289	0.770508	-0.778068	-0.637454	-0.393721	-0.210938	0.339844	0.375000	937	16_15_01_4398730
0.243164	-0.199219	0.764648	-0.778068	-0.637454	-0.384347	-0.222656	0.328125	0.386719	938	16_15_01_4560020
0.251953	-0.187500	0.764648	-0.787443	-0.637454	-0.393721	0.070313	0.539063	0.457031	939	16_15_01_4721310
0.249023	-0.196289	0.770508	-0.778068	-0.637454	-0.393721	-0.210938	0.375000	0.421875	940	16_15_01_4882600
0.251953	-0.196289	0.773438	-0.768694	-0.646828	-0.393721	-0.222656	0.375000	0.421875	941	16_15_01_5043890
0.251953	-0.193359	0.776367	-0.778068	-0.646828	-0.393721	-0.210938	0.363281	0.457031	942	16_15_01_5205180
0.260742	-0.187500	0.770508	-0.778068	-0.646828	-0.393721	-0.199219	0.351563	0.468750	943	16_15_01_5366470
0.260742	-0.193359	0.770508	-0.768694	-0.637454	-0.393721	-0.199219	0.386719	0.410156	944	16_15_01_5527760
0.257813	-0.193359	0.764648	-0.787443	-0.637454	-0.393721	-0.175781	0.398438	0.480469	945	16_15_01_5689050
0.251953	-0.193359	0.776367	-0.768694	-0.646828	-0.393721	-0.210938	0.339844	0.492188	946	16_15_01_5850340
0.254883	-0.187500	0.770508	-0.778068	-0.646828	-0.393721	-0.023438	0.492188	0.515625	947	16_15_01_6011630
0.254883	-0.190430	0.770508	-0.768694	-0.646828	-0.384347	-0.210938	0.339844	0.457031	948	16_15_01_6172920
0.260742	-0.205078	0.770508	-0.778068	-0.637454	-0.393721	-0.011719	0.468750	0.468750	949	16_15_01_6334210
0.251953	-0.199219	0.773438	-0.778068	-0.637454	-0.393721	-0.210938	0.351563	0.386719	950	16_15_01_6495500
0.251953	-0.193359	0.767578	-0.778068	-0.637454	-0.393721	0.164063	0.585938	0.539063	951	16_15_01_6656790
0.263672	-0.193359	0.767578	-0.778068	-0.637454	-0.393721	0.117188	0.667969	0.492188	952	16_15_01_6818080
0.257813	-0.193359	0.764648	-0.787443	-0.637454	-0.393721	-0.210938	0.351563	0.410156	953	16_15_01_6979370
0.254883	-0.199219	0.770508	-0.778068	-0.637454	-0.393721	-0.199219	0.363281	0.445313	954	16_15_01_7140660
0.251953	-0.193359	0.773438	-0.768694	-0.637454	-0.393721	-0.210938	0.375000	0.410156	955	16_15_01_7301950
0.251953	-0.193359	0.773438	-0.778068	-0.646828	-0.393721	-0.222656	0.375000	0.386719	956	16_15_01_7463240
0.257813	-0.199219	0.770508	-0.768694	-0.637454	-0.384347	-0.210938	0.351563	0.398438	957	16_15_01_7624530
0.246094	-0.199219	0.770508	-0.768694	-0.646828	-0.393721	-0.187500	0.351563	0.375000	958	16_15_01_7785820
0.254883	-0.190430	0.773438	-0.768694	-0.637454	-0.393721	-0.199219	0.363281	0.398438	959	16_15_01_7947110
0.257813	-0.199219	0.767578	-0.778068	-0.646828	-0.393721	-0.199219	0.363281	0.386719	960	16_15_01_8108400
0.251953	-0.184570	0.770508	-0.778068	-0.646828	-0.393721	-0.187500	0.375000	0.363281	961	16_15_01_8269690
0.254883	-0.190430	0.773438	-0.778068	-0.646828	-0.393721	-0.210938	0.375000	0.363281	962	16_15_01_8430980
0.251953	-0.199219	0.770508	-0.787443	-0.646828	-0.393721	0.058594	0.914063	0.457031	963	16_15_01_8592270
0.260742	-0.190430	0.776367	-0.787443	-0.646828	-0.393721	-0.222656	0.386719	0.410156	964	16_15_01_8753560
0.260742	-0.196289	0.767578	-0.768694	-0.637454	-0.393721	-0.210938	0.375000	0.433594	965	16_15_01_8914850
0.251953	-0.199219	0.782227	-0.768694	-0.637454	-0.393721	-0.164063	0.398438	0.457031	966	16_15_01_9076140
0.260742	-0.184570	0.770508	-0.768694	-0.637454	-0.393721	-0.210938	0.375000	0.410156	967	16_15_01_9237430
0.260742	-0.205078	0.770508	-0.778068	-0.637454	-0.393721	-0.187500	0.351563	0.410156	968	16_15_01_9398720
0.260742	-0.193359	0.776367	-0.768694	-0.637454	-0.393721	-0.222656	0.351563	0.421875	969	16_15_01_9560010
0.254883	-0.196289	0.776367	-0.787443	-0.646828	-0.393721	0.023438	0.527344	0.515625	970	16_15_01_9721300
0.257813	-0.196289	0.782227	-0.768694	-0.637454	-0.393721	-0.246094	0.351563	0.421875	971	16_15_01_9882590
0.251953	-0.205078	0.770508	-0.778068	-0.637454	-0.393721	-0.222656	0.363281	0.445313	972	16_15_02_0043880
0.254883	-0.196289	0.764648	-0.778068	-0.637454	-0.393721	-0.199219	0.363281	0.421875	973	16_15_02_0205170
0.249023	-0.193359	0.770508	-0.768694	-0.637454	-0.393721	-0.164063	0.351563	0.398438	974	16_15_02_0366460
0.257813	-0.196289	0.770508	-0.778068	-0.646828	-0.393721	-0.210938	0.375000	0.398438	975	16_15_02_0527750
0.240234	-0.199219	0.770508	-0.778068	-0.646828	-0.393721	-0.210938	0.375000	0.445313	976	16_15_02_0689040
0.257813	-0.187500	0.770508	-0.778068	-0.646828	-0.393721	-0.222656	0.375000	0.386719	977	16_15_02_0850330
0.263672	-0.205078	0.773438	-0.787443	-0.646828	-0.393721	-0.187500	0.386719	0.421875	978	16_15_02_1011620
0.251953	-0.199219	0.773438	-0.787443	-0.637454	-0.393721	-0.210938	0.363281	0.386719	979	16_15_02_1172910
0.254883	-0.193359	0.776367	-0.778068	-0.646828	-0.393721	-0.246094	0.375000	0.375000	980	16_15_02_1334200
0.249023	-0.199219	0.776367	-0.787443	-0.646828	-0.393721	0.152344	0.644531	0.480469	981	16_15_02_1495490
0.251953	-0.193359	0.770508	-0.778068	-0.646828	-0.393721	-0.210938	0.375000	0.421875	982	16_15_02_1656780
0.251953	-0.202148	0.770508	-0.778068	-0.646828	-0.393721	-0.234375	0.375000	0.351563	983	16_15_02_1818070
0.254883	-0.196289	0.773438	-0.778068	-0.646828	-0.393721	-0.199219	0.375000	0.386719	984	16_15_02_1979360
0.254883	-0.193359	0.770508	-0.768694	-0.637454	-0.384347	-0.222656	0.375000	0.410156	985	16_15_02_2140650
0.251953	-0.196289	0.770508	-0.778068	-0.637454	-0.393721	-0.210938	0.375000	0.410156	986	16_15_02_2301940
0.263672	-0.202148	0.770508	-0.778068	-0.637454	-0.393721	-0.246094	0.375000	0.515625	987	16_15_02_2463230
0.254883	-0.199219	0.764648	-0.778068	-0.656202	-0.393721	-0.199219	0.351563	0.457031	988	16_15_02_2624520
0.263672	-0.196289	0.764648	-0.778068	-0.646828	-0.393721	-0.210938	0.339844	0.457031	989	16_15_02_2785810
0.260742	-0.196289	0.770508	-0.778068	-0.637454	-0.393721	-0.164063	0.375000	0.445313	990	16_15_02_2947100
0.260742	-0.193359	0.767578	-0.768694	-0.646828	-0.393721	-0.175781	0.363281	0.410156	991	16_15_02_3108390
0.254883	-0.196289	0.773438	-0.778068	-0.646828	-0.393721	-0.199219	0.339844	0.457031	992	16_15_02_3269680
0.254883	-0.199219	0.767578	-0.778068	-0.637454	-0.393721	-0.210938	0.386719	0.410156	993	16_15_02_3430970
0.254883	-0.196289	0.761719	-0.768694	-0.637454	-0.393721	-0.210938	0.375000	0.363281	994	16_15_02_3592260
0.251953	-0.187500	0.767578	-0.768694	-0.637454	-0.393721	-0.234375	0.375000	0.398438	995	16_15_02_3753550
0.257813	-0.196289	0.761719	-0.778068	-0.646828	-0.393721	-0.246094	0.375000	0.468750	996	16_15_02_3914840
0.249023	-0.196289	0.767578	-0.778068	-0.646828	-0.393721	-0.210938	0.363281	0.457031	997	16_15_02_4076130
0.269531	-0.205078	0.770508	-0.768694	-0.656202	-0.393721	-0.210938	0.351563	0.398438	998	16_15_02_4237420
0.246094	-0.196289	0.776367	-0.787443	-0.637454	-0.393721	0.000000	0.574219	0.398438	999	16_15_02_4398710
0.246094	-0.196289	0.770508	-0.778068	-0.637454	-0.384347	-0.199219	0.375000	0.410156	1000	16_15_02_4560000
0.249023	-0.190430	0.776367	-0.778068	-0.646828	-0.393721	-0.210938	0.375000	0.421875	1001	16_15_02_4721290
0.251953	-0.199219	0.770508	-0.768694	-0.646828	-0.393721	-0.187500	0.375000	0.421875	1002	16_15_02_4882580
0.266602	-0.193359	0.776367	-0.778068	-0.637454	-0.393721	-0.187500	0.375000	0.421875	1003	16_15_02_5043870
0.260742	-0.196289	0.767578	-0.768694	-0.646828	-0.393721	-0.187500	0.375000	0.480469	1004	16_15_02_5205160
0.257813	-0.196289	0.770508	-0.778068	-0.646828	-0.393721	-0.187500	0.375000	0.503906	1005	16_15_02_5366450
0.254883	-0.193359	0.761719	-0.778068	-0.637454	-0.393721	-0.222656	0.386719	0.410156	1006	16_15_02_5527740
0.251953	-0.190430	0.764648	-0.778068	-0.637454	-0.393721	-0.210938	0.375000	0.468750	1007	16_15_02_5689030
0.251953	-0.187500	0.770508	-0.768694	-0.637454	-0.393721	-0.222656	0.375000	0.480469	1008	16_15_02_5850320
0.260742	-0.205078	0.764648	-0.787443	-0.637454	-0.393721	-0.117188	0.445313	0.492188	1009	16_15_02_6011610
0.246094	-0.193359	0.767578	-0.778068	-0.637454	-0.393721	-0.117188	0.445313	0.445313	1010	16_15_02_6172900
0.254883	-0.196289	0.776367	-0.778068	-0.637454	-0.393721	-0.210938	0.375000	0.386719	1011	16_15_02_6334190
0.257813	-0.202148	0.779297	-0.778068	-0.637454	-0.393721	-0.246094	0.375000	0.363281	1012	16_15_02_6495480
0.260742	-0.190430	0.764648	-0.787443	-0.637454	-0.393721	0.351563	0.925781	0.492188	1013	16_15_02_6656770
0.254883	-0.196289	0.773438	-0.778068	-0.646828	-0.393721	-0.246094	0.375000	0.468750	1014	16_15_02_6818060
0.249023	-0.199219	0.770508	-0.749946	-0.637454	-0.393721	-0.199219	0.363281	0.410156	1015	16_15_02_6979350
0.263672	-0.193359	0.773438	-0.787443	-0.637454	-0.393721	-0.105469	0.656250	0.597656	1016	16_15_02_7140640
0.251953	-0.190430	0.773438	-0.778068	-0.646828	-0.393721	-0.234375	0.375000	0.468750	1017	16_15_02_7301930
0.260742	-0.205078	0.770508	-0.778068	-0.637454	-0.393721	-0.210938	0.375000	0.445313	1018	16_15_02_7463220
0.251953	-0.190430	0.770508	-0.778068	-0.637454	-0.393721	-0.210938	0.386719	0.398438	1019	16_15_02_7624510
0.240234	-0.184570	0.770508	-0.778068	-0.637454	-0.393721	-0.058594	0.527344	0.410156	1020	16_15_02_7785800
0.257813	-0.202148	0.773438	-0.778068	-0.637454	-0.393721	-0.210938	0.375000	0.398438	1021	16_15_02_7947090
0.251953	-0.202148	0.773438	-0.787443	-0.646828	-0.393721	-0.222656	0.375000	0.386719	1022	16_15_02_8108380
0.254883	-0.184570	0.770508	-0.778068	-0.637454	-0.393721	0.152344	0.703125	0.410156	1023	16_15_02_8269670
0.257813	-0.199219	0.764648	-0.787443	-0.646828	-0.393721	0.175781	0.667969	0.468750	1024	16_15_02_8430960
0.260742	-0.199219	0.770508	-0.778068	-0.637454	-0.393721	0.070313	0.585938	0.421875	1025	16_15_02_8592250
0.257813	-0.196289	0.776367	-0.787443	-0.646828	-0.393721	-0.152344	0.421875	0.410156	1026	16_15_02_8753540
0.246094	-0.187500	0.773438	-0.778068	-0.637454	-0.384347	-0.187500	0.375000	0.433594	1027	16_15_02_8914830
0.237305	-0.193359	0.770508	-0.778068	-0.646828	-0.393721	-0.175781	0.386719	0.515625	1028	16_15_02_9076120
0.251953	-0.190430	0.770508	-0.778068	-0.646828	-0.393721	-0.210938	0.375000	0.433594	1029	16_15_02_9237410
0.251953	-0.196289	0.776367	-0.778068	-0.646828	-0.393721	-0.222656	0.375000	0.445313	1030	16_15_02_9398700
0.260742	-0.193359	0.779297	-0.778068	-0.646828	-0.393721	-0.210938	0.375000	0.503906	1031	16_15_02_9559990
0.257813	-0.199219	0.758789	-0.778068	-0.646828	-0.393721	-0.199219	0.363281	0.492188	1032	16_15_02_9721280
0.257813	-0.193359	0.770508	-0.778068	-0.646828	-0.393721	-0.210938	0.339844	0.433594	1033	16_15_02_9882570
0.254883	-0.193359	0.761719	-0.768694	-0.637454	-0.393721	-0.187500	0.375000	0.410156	1034	16_15_03_0043860
0.260742	-0.202148	0.776367	-0.778068	-0.646828	-0.393721	-0.210938	0.375000	0.363281	1035	16_15_03_0205150
0.254883	-0.199219	0.773438	-0.778068	-0.646828	-0.393721	-0.046875	0.667969	0.386719	1036	16_15_03_0366440
0.263672	-0.190430	0.770508	-0.787443	-0.656202	-0.393721	-0.222656	0.363281	0.351563	1037	16_15_03_0527730
0.269531	-0.187500	0.764648	-0.778068	-0.637454	-0.393721	-0.128906	0.433594	0.386719	1038	16_15_03_0689020
0.251953	-0.196289	0.770508	-0.778068	-0.646828	-0.393721	-0.187500	0.363281	0.421875	1039	16_15_03_0850310
0.257813	-0.193359	0.770508	-0.768694	-0.656202	-0.393721	-0.199219	0.339844	0.433594	1040	16_15_03_1011600
0.254883	-0.193359	0.770508	-0.787443	-0.646828	-0.393721	-0.035156	0.527344	0.433594	1041	16_15_03_1172890
0.251953	-0.193359	0.767578	-0.787443	-0.646828	-0.393721	-0.210938	0.375000	0.433594	1042	16_15_03_1334180
0.257813	-0.193359	0.758789	-0.759320	-0.637454	-0.393721	-0.257813	0.375000	0.410156	1043	16_15_03_1495470
0.263672	-0.193359	0.767578	-0.778068	-0.646828	-0.393721	-0.210938	0.375000	0.410156	1044	16_15_03_1656760
0.246094	-0.199219	0.776367	-0.778068	-0.646828	-0.393721	-0.199219	0.375000	0.457031	1045	16_15_03_1818050
0.257813	-0.202148	0.770508	-0.778068	-0.646828	-0.393721	-0.210938	0.363281	0.398438	1046	16_15_03_1979340
0.251953	-0.193359	0.767578	-0.768694	-0.646828	-0.393721	-0.210938	0.351563	0.351563	1047	16_15_03_2140630
0.254883	-0.193359	0.761719	-0.778068	-0.646828	-0.393721	-0.187500	0.375000	0.410156	1048	16_15_03_2301920
0.249023	-0.187500	0.773438	-0.778068	-0.637454	-0.393721	-0.199219	0.375000	0.410156	1049	16_15_03_2463210
0.251953	-0.187500	0.773438	-0.778068	-0.646828	-0.393721	-0.187500	0.375000	0.398438	1050	16_15_03_2624500
0.257813	-0.196289	0.776367	-0.778068	-0.646828	-0.393721	-0.210938	0.375000	0.386719	1051	16_15_03_2785790
0.254883	-0.196289	0.776367	-0.778068	-0.646828	-0.384347	-0.199219	0.363281	0.351563	1052	16_15_03_2947080
0.254883	-0.202148	0.770508	-0.778068	-0.637454	-0.393721	-0.210938	0.339844	0.410156	1053	16_15_03_3108370
0.263672	-0.187500	0.770508	-0.778068	-0.646828	-0.393721	-0.210938	0.351563	0.457031	1054	16_15_03_3269660
0.257813	-0.196289	0.767578	-0.778068	-0.637454	-0.393721	-0.222656	0.375000	0.398438	1055	16_15_03_3430950
0.260742	-0.199219	0.770508	-0.787443	-0.646828	-0.393721	0.093750	0.726563	0.468750	1056	16_15_03_3592240
0.257813	-0.199219	0.770508	-0.787443	-0.637454	-0.393721	-0.210938	0.339844	0.410156	1057	16_15_03_3753530
0.249023	-0.193359	0.770508	-0.778068	-0.646828	-0.393721	-0.187500	0.375000	0.410156	1058	16_15_03_3914820
0.257813	-0.193359	0.782227	-0.768694	-0.637454	-0.393721	-0.222656	0.375000	0.410156	1059	16_15_03_4076110
0.266602	-0.199219	0.761719	-0.787443	-0.637454	-0.393721	-0.117188	0.445313	0.480469	1060	16_15_03_4237400
0.254883	-0.193359	0.770508	-0.778068	-0.637454	-0.393721	-0.210938	0.375000	0.398438	1061	16_15_03_4398690
0.263672	-0.187500	0.770508	-0.778068	-0.637454	-0.393721	-0.222656	0.375000	0.386719	1062	16_15_03_4559980
0.251953	-0.190430	0.767578	-0.778068	-0.637454	-0.393721	-0.210938	0.375000	0.421875	1063	16_15_03_4721270
0.251953	-0.190430	0.770508	-0.787443	-0.637454	-0.393721	0.140625	0.667969	0.421875	1064	16_15_03_4882560
0.246094	-0.190430	0.770508	-0.778068	-0.637454	-0.384347	-0.187500	0.375000	0.421875	1065	16_15_03_5043850
0.249023	-0.187500	0.770508	-0.778068	-0.646828	-0.393721	-0.210938	0.375000	0.421875	1066	16_15_03_5205140
0.260742	-0.196289	0.761719	-0.768694	-0.646828	-0.393721	-0.234375	0.351563	0.410156	1067	16_15_03_5366430
0.257813	-0.193359	0.767578	-0.787443	-0.646828	-0.393721	-0.140625	0.750000	0.468750	1068	16_15_03_5527720
0.246094	-0.193359	0.773438	-0.778068	-0.637454	-0.393721	-0.187500	0.363281	0.410156	1069	16_15_03_5689010
0.251953	-0.196289	0.773438	-0.778068	-0.646828	-0.393721	-0.210938	0.363281	0.433594	1070	16_15_03_5850300
0.251953	-0.199219	0.773438	-0.778068	-0.646828	-0.393721	-0.187500	0.363281	0.492188	1071	16_15_03_6011590
0.257813	-0.190430	0.770508	-0.787443	-0.646828	-0.393721	-0.035156	0.445313	0.539063	1072	16_15_03_6172880
0.257813	-0.196289	0.770508	-0.778068	-0.646828	-0.393721	-0.210938	0.375000	0.410156	1073	16_15_03_6334170
0.254883	-0.196289	0.770508	-0.778068	-0.646828	-0.393721	-0.210938	0.398438	0.468750	1074	16_15_03_6495460
0.251953	-0.193359	0.767578	-0.778068	-0.637454	-0.393721	-0.246094	0.375000	0.480469	1075	16_15_03_6656750
0.260742	-0.187500	0.764648	-0.778068	-0.637454	-0.393721	-0.210938	0.363281	0.433594	1076	16_15_03_6818040
0.257813	-0.187500	0.770508	-0.768694	-0.637454	-0.393721	-0.210938	0.351563	0.433594	1077	16_15_03_6979330
0.249023	-0.193359	0.770508	-0.778068	-0.646828	-0.393721	-0.234375	0.375000	0.421875	1078	16_15_03_7140620
0.251953	-0.196289	0.770508	-0.787443	-0.646828	-0.393721	-0.187500	0.468750	0.621094	1079	16_15_03_7301910
0.260742	-0.193359	0.776367	-0.778068	-0.646828	-0.393721	-0.210938	0.363281	0.398438	1080	16_15_03_7463200
0.251953	-0.193359	0.773438	-0.787443	-0.646828	-0.393721	-0.070313	0.433594	0.492188	1081	16_15_03_7624490
0.251953	-0.196289	0.767578	-0.768694	-0.646828	-0.393721	-0.210938	0.375000	0.480469	1082	16_15_03_7785780
0.257813	-0.187500	0.776367	-0.778068	-0.637454	-0.393721	-0.187500	0.375000	0.457031	1083	16_15_03_7947070
0.254883	-0.190430	0.773438	-0.787443	-0.646828	-0.393721	0.035156	0.527344	0.457031	1084	16_15_03_8108360
0.249023	-0.190430	0.770508	-0.778068	-0.646828	-0.393721	-0.210938	0.351563	0.363281	1085	16_15_03_8269650
0.260742	-0.199219	0.770508	-0.778068	-0.646828	-0.393721	0.210938	0.656250	0.480469	1086	16_15_03_8430940
0.251953	-0.187500	0.773438	-0.778068	-0.646828	-0.393721	-0.222656	0.375000	0.433594	1087	16_15_03_8592230
0.251953	-0.199219	0.773438	-0.778068	-0.656202	-0.393721	-0.187500	0.363281	0.457031	1088	16_15_03_8753520
0.260742	-0.190430	0.770508	-0.787443	-0.646828	-0.393721	-0.117188	0.609375	0.562500	1089	16_15_03_8914810
0.266602	-0.190430	0.770508	-0.778068	-0.646828	-0.393721	-0.234375	0.375000	0.363281	1090	16_15_03_9076100
0.257813	-0.193359	0.770508	-0.787443	-0.646828	-0.393721	-0.222656	0.351563	0.375000	1091	16_15_03_9237390
0.257813	-0.199219	0.764648	-0.787443	-0.637454	-0.393721	-0.046875	0.468750	0.457031	1092	16_15_03_9398680
0.246094	-0.193359	0.770508	-0.778068	-0.646828	-0.393721	-0.187500	0.375000	0.410156	1093	16_15_03_9559970
0.254883	-0.205078	0.770508	-0.778068	-0.646828	-0.393721	-0.210938	0.375000	0.363281	1094	16_15_03_9721260
0.246094	-0.199219	0.770508	-0.778068	-0.646828	-0.393721	-0.187500	0.375000	0.410156	1095	16_15_03_9882550
0.251953	-0.205078	0.776367	-0.778068	-0.637454	-0.393721	-0.210938	0.386719	0.433594	1096	16_15_04_0043840
0.251953	-0.193359	0.773438	-0.778068	-0.646828	-0.393721	-0.187500	0.363281	0.421875	1097	16_15_04_0205130
0.260742	-0.202148	0.764648	-0.778068	-0.637454	-0.393721	-0.199219	0.339844	0.398438	1098	16_15_04_0366420
0.249023	-0.193359	0.779297	-0.778068	-0.637454	-0.393721	-0.175781	0.562500	0.574219	1099	16_15_04_0527710
0.254883	-0.187500	0.770508	-0.768694	-0.637454	-0.393721	-0.246094	0.375000	0.375000	1100	16_15_04_0689000
0.249023	-0.193359	0.773438	-0.778068	-0.637454	-0.393721	-0.199219	0.375000	0.363281	1101	16_15_04_0850290
0.249023	-0.205078	0.776367	-0.778068	-0.646828	-0.393721	-0.246094	0.375000	0.410156	1102	16_15_04_1011580
0.263672	-0.193359	0.776367	-0.778068	-0.646828	-0.393721	-0.257813	0.375000	0.445313	1103	16_15_04_1172870
0.263672	-0.199219	0.770508	-0.768694	-0.646828	-0.393721	-0.210938	0.375000	0.421875	1104	16_15_04_1334160
0.251953	-0.205078	0.776367	-0.778068	-0.646828	-0.393721	-0.199219	0.398438	0.445313	1105	16_15_04_1495450
0.249023	-0.184570	0.767578	-0.778068	-0.637454	-0.393721	-0.187500	0.363281	0.410156	1106	16_15_04_1656740
0.251953	-0.196289	0.773438	-0.778068	-0.637454	-0.393721	-0.234375	0.386719	0.398438	1107	16_15_04_1818030
0.251953	-0.196289	0.770508	-0.768694	-0.637454	-0.393721	-0.187500	0.351563	0.433594	1108	16_15_04_1979320
0.263672	-0.190430	0.776367	-0.768694	-0.646828	-0.403096	-0.187500	0.351563	0.421875	1109	16_15_04_2140610
0.251953	-0.190430	0.773438	-0.778068	-0.646828	-0.393721	-0.187500	0.363281	0.398438	1110	16_15_04_2301900
0.260742	-0.187500	0.776367	-0.768694	-0.646828	-0.393721	-0.199219	0.339844	0.386719	1111	16_15_04_2463190
0.263672	-0.181641	0.773438	-0.768694	-0.646828	-0.393721	-0.210938	0.375000	0.386719	1112	16_15_04_2624480
0.251953	-0.193359	0.770508	-0.778068	-0.646828	-0.403096	-0.199219	0.351563	0.386719	1113	16_15_04_2785770
0.263672	-0.193359	0.770508	-0.778068	-0.646828	-0.393721	-0.187500	0.328125	0.398438	1114	16_15_04_2947060
0.249023	-0.199219	0.779297	-0.778068	-0.646828	-0.393721	-0.187500	0.375000	0.363281	1115	16_15_04_3108350
0.263672	-0.199219	0.770508	-0.787443	-0.646828	-0.393721	-0.199219	0.339844	0.375000	1116	16_15_04_3269640
0.249023	-0.199219	0.758789	-0.778068	-0.637454	-0.393721	-0.246094	0.375000	0.433594	1117	16_15_04_3430930
0.260742	-0.190430	0.770508	-0.778068	-0.646828	-0.393721	-0.175781	0.410156	0.433594	1118	16_15_04_3592220
0.257813	-0.193359	0.764648	-0.768694	-0.646828	-0.393721	-0.210938	0.375000	0.386719	1119	16_15_04_3753510
0.254883	-0.196289	0.767578	-0.778068	-0.646828	-0.393721	-0.210938	0.375000	0.398438	1120	16_15_04_3914800
