sensor_ID	0006660160E3
Accel_X	Accel_Y	Accel_Z	Roll	Pitch	Yaw	Mag_X	Mag_Y	Mag_Z	Count	SysTime
0.243164	-0.541992	-0.026367	-0.374973	-0.543711	-0.590582	0.386719	0.972656	0.058594	0	16_14_46_4520000
0.240234	-0.541992	-0.023438	-0.384347	-0.543711	-0.599956	0.433594	0.902344	-0.011719	1	16_14_46_4681290
0.257813	-0.547852	-0.029297	-0.374973	-0.553085	-0.599956	0.410156	0.925781	-0.011719	2	16_14_46_4842580
0.237305	-0.539063	-0.017578	-0.374973	-0.553085	-0.599956	0.445313	0.890625	-0.058594	3	16_14_46_5003870
0.246094	-0.539063	-0.026367	-0.374973	-0.543711	-0.599956	0.480469	0.878906	-0.046875	4	16_14_46_5165160
0.240234	-0.544922	-0.020508	-0.374973	-0.543711	-0.599956	0.421875	0.855469	-0.046875	5	16_14_46_5326450
0.240234	-0.539063	-0.026367	-0.374973	-0.543711	-0.599956	0.421875	0.867188	-0.023438	6	16_14_46_5487740
0.228516	-0.536133	-0.023438	-0.384347	-0.553085	-0.599956	1.019531	0.914063	0.199219	7	16_14_46_5649030
0.249023	-0.541992	-0.026367	-0.374973	-0.553085	-0.599956	0.960938	0.890625	0.187500	8	16_14_46_5810320
0.246094	-0.541992	-0.026367	-0.374973	-0.553085	-0.599956	0.410156	0.937500	-0.046875	9	16_14_46_5971610
0.251953	-0.530273	-0.029297	-0.374973	-0.543711	-0.599956	0.457031	0.902344	0.011719	10	16_14_46_6132900
0.219727	-0.550781	-0.026367	-0.374973	-0.543711	-0.599956	0.632813	0.902344	0.339844	11	16_14_46_6294190
0.228516	-0.547852	-0.026367	-0.384347	-0.543711	-0.599956	0.421875	0.914063	-0.058594	12	16_14_46_6455480
0.246094	-0.553711	-0.026367	-0.374973	-0.553085	-0.599956	0.457031	0.914063	-0.023438	13	16_14_46_6616770
0.237305	-0.539063	-0.026367	-0.374973	-0.553085	-0.599956	0.445313	0.890625	0.000000	14	16_14_46_6778060
0.240234	-0.550781	-0.017578	-0.393721	-0.553085	-0.599956	0.679688	0.867188	0.023438	15	16_14_46_6939350
0.246094	-0.544922	-0.014648	-0.374973	-0.543711	-0.599956	0.433594	0.843750	-0.070313	16	16_14_46_7100640
0.234375	-0.539063	-0.020508	-0.374973	-0.543711	-0.599956	0.410156	0.890625	0.000000	17	16_14_46_7261930
0.240234	-0.541992	-0.026367	-0.374973	-0.543711	-0.590582	0.421875	0.890625	0.000000	18	16_14_46_7423220
0.231445	-0.541992	-0.032227	-0.374973	-0.553085	-0.599956	0.410156	0.914063	-0.023438	19	16_14_46_7584510
0.251953	-0.541992	-0.011719	-0.374973	-0.543711	-0.599956	0.562500	0.878906	0.058594	20	16_14_46_7745800
0.240234	-0.550781	-0.020508	-0.374973	-0.543711	-0.599956	0.539063	0.937500	0.222656	21	16_14_46_7907090
0.234375	-0.544922	-0.014648	-0.374973	-0.543711	-0.599956	0.433594	0.914063	-0.035156	22	16_14_46_8068380
0.240234	-0.539063	-0.029297	-0.374973	-0.553085	-0.590582	0.445313	0.914063	-0.011719	23	16_14_46_8229670
0.246094	-0.541992	-0.023438	-0.374973	-0.543711	-0.590582	0.433594	0.914063	-0.035156	24	16_14_46_8390960
0.246094	-0.541992	-0.026367	-0.384347	-0.543711	-0.599956	0.480469	0.914063	-0.011719	25	16_14_46_8552250
0.246094	-0.550781	-0.029297	-0.374973	-0.543711	-0.599956	0.433594	0.914063	-0.011719	26	16_14_46_8713540
0.240234	-0.541992	-0.020508	-0.374973	-0.543711	-0.599956	0.445313	0.867188	0.000000	27	16_14_46_8874830
0.240234	-0.541992	-0.026367	-0.374973	-0.543711	-0.599956	0.468750	0.855469	0.000000	28	16_14_46_9036120
0.240234	-0.544922	-0.026367	-0.374973	-0.543711	-0.609331	0.433594	0.914063	0.000000	29	16_14_46_9197410
0.234375	-0.544922	-0.026367	-0.374973	-0.543711	-0.599956	0.468750	0.925781	-0.023438	30	16_14_46_9358700
0.240234	-0.544922	-0.020508	-0.374973	-0.543711	-0.599956	0.410156	0.890625	-0.058594	31	16_14_46_9519990
0.240234	-0.541992	-0.008789	-0.374973	-0.543711	-0.599956	0.457031	0.902344	-0.058594	32	16_14_46_9681280
0.234375	-0.536133	-0.014648	-0.374973	-0.543711	-0.599956	0.468750	0.890625	0.093750	33	16_14_46_9842570
0.234375	-0.544922	-0.020508	-0.374973	-0.543711	-0.599956	0.468750	0.878906	-0.035156	34	16_14_47_0003860
0.240234	-0.541992	-0.014648	-0.374973	-0.543711	-0.599956	0.480469	0.914063	-0.046875	35	16_14_47_0165150
0.234375	-0.553711	-0.017578	-0.374973	-0.543711	-0.599956	0.421875	0.914063	-0.046875	36	16_14_47_0326440
0.243164	-0.544922	-0.026367	-0.374973	-0.543711	-0.599956	0.503906	0.878906	-0.023438	37	16_14_47_0487730
0.237305	-0.544922	-0.017578	-0.374973	-0.543711	-0.609331	1.019531	0.914063	0.164063	38	16_14_47_0649020
0.243164	-0.550781	-0.026367	-0.384347	-0.543711	-0.599956	0.445313	0.937500	-0.058594	39	16_14_47_0810310
0.240234	-0.539063	-0.020508	-0.365598	-0.553085	-0.599956	0.445313	0.914063	0.000000	40	16_14_47_0971600
0.234375	-0.527344	-0.020508	-0.365598	-0.543711	-0.599956	0.410156	0.937500	-0.011719	41	16_14_47_1132890
0.246094	-0.547852	-0.020508	-0.374973	-0.543711	-0.599956	0.433594	0.914063	-0.070313	42	16_14_47_1294180
0.240234	-0.539063	-0.023438	-0.374973	-0.543711	-0.599956	0.410156	0.855469	-0.046875	43	16_14_47_1455470
0.246094	-0.550781	-0.017578	-0.374973	-0.553085	-0.590582	0.410156	0.914063	-0.058594	44	16_14_47_1616760
0.246094	-0.547852	-0.014648	-0.374973	-0.553085	-0.599956	0.656250	0.937500	-0.011719	45	16_14_47_1778050
0.243164	-0.544922	-0.023438	-0.374973	-0.543711	-0.599956	0.445313	0.902344	-0.070313	46	16_14_47_1939340
0.246094	-0.547852	-0.032227	-0.384347	-0.543711	-0.599956	0.468750	0.855469	-0.035156	47	16_14_47_2100630
0.228516	-0.547852	-0.014648	-0.374973	-0.543711	-0.599956	0.445313	0.902344	-0.011719	48	16_14_47_2261920
0.246094	-0.539063	-0.023438	-0.374973	-0.553085	-0.599956	0.433594	0.937500	-0.023438	49	16_14_47_2423210
0.249023	-0.533203	-0.017578	-0.384347	-0.553085	-0.590582	0.410156	0.902344	-0.046875	50	16_14_47_2584500
0.249023	-0.541992	-0.020508	-0.374973	-0.553085	-0.599956	0.468750	0.832031	-0.070313	51	16_14_47_2745790
0.243164	-0.547852	-0.020508	-0.374973	-0.543711	-0.599956	0.410156	0.843750	-0.070313	52	16_14_47_2907080
0.240234	-0.553711	-0.026367	-0.374973	-0.543711	-0.599956	0.445313	0.867188	0.000000	53	16_14_47_3068370
0.237305	-0.541992	-0.014648	-0.374973	-0.543711	-0.599956	0.433594	0.914063	-0.011719	54	16_14_47_3229660
0.237305	-0.536133	-0.026367	-0.374973	-0.543711	-0.599956	0.492188	0.914063	-0.011719	55	16_14_47_3390950
0.234375	-0.533203	-0.026367	-0.365598	-0.553085	-0.599956	0.691406	0.902344	0.058594	56	16_14_47_3552240
0.234375	-0.547852	-0.014648	-0.374973	-0.553085	-0.599956	0.433594	0.867188	-0.035156	57	16_14_47_3713530
0.237305	-0.544922	-0.014648	-0.374973	-0.543711	-0.599956	0.398438	0.890625	0.000000	58	16_14_47_3874820
0.234375	-0.541992	-0.023438	-0.374973	-0.543711	-0.599956	0.433594	0.867188	0.011719	59	16_14_47_4036110
0.240234	-0.539063	-0.020508	-0.374973	-0.543711	-0.599956	0.468750	0.878906	-0.058594	60	16_14_47_4197400
0.246094	-0.536133	-0.020508	-0.374973	-0.553085	-0.599956	0.410156	0.832031	-0.011719	61	16_14_47_4358690
0.240234	-0.544922	-0.017578	-0.374973	-0.553085	-0.599956	0.433594	0.867188	-0.011719	62	16_14_47_4519980
0.243164	-0.544922	-0.026367	-0.374973	-0.553085	-0.590582	0.574219	0.890625	0.304688	63	16_14_47_4681270
0.240234	-0.536133	-0.026367	-0.374973	-0.543711	-0.599956	0.445313	0.867188	-0.035156	64	16_14_47_4842560
0.240234	-0.547852	-0.023438	-0.374973	-0.553085	-0.599956	0.445313	0.902344	-0.035156	65	16_14_47_5003850
0.246094	-0.536133	-0.020508	-0.374973	-0.553085	-0.590582	0.457031	0.890625	-0.035156	66	16_14_47_5165140
0.240234	-0.539063	-0.026367	-0.374973	-0.543711	-0.590582	0.726563	0.843750	0.058594	67	16_14_47_5326430
0.249023	-0.550781	-0.026367	-0.374973	-0.543711	-0.599956	0.468750	0.914063	0.000000	68	16_14_47_5487720
0.246094	-0.541992	-0.014648	-0.374973	-0.543711	-0.599956	0.421875	0.878906	-0.011719	69	16_14_47_5649010
0.240234	-0.539063	-0.029297	-0.374973	-0.543711	-0.599956	0.421875	0.843750	-0.023438	70	16_14_47_5810300
0.249023	-0.539063	-0.029297	-0.374973	-0.553085	-0.599956	0.433594	0.890625	-0.011719	71	16_14_47_5971590
0.237305	-0.547852	-0.023438	-0.365598	-0.553085	-0.599956	0.410156	0.925781	0.011719	72	16_14_47_6132880
0.240234	-0.547852	-0.020508	-0.365598	-0.543711	-0.599956	0.527344	0.925781	0.000000	73	16_14_47_6294170
0.240234	-0.541992	-0.020508	-0.374973	-0.543711	-0.599956	0.457031	0.867188	-0.082031	74	16_14_47_6455460
0.234375	-0.547852	-0.014648	-0.374973	-0.543711	-0.599956	0.445313	0.902344	-0.046875	75	16_14_47_6616750
0.240234	-0.536133	-0.026367	-0.374973	-0.543711	-0.599956	0.492188	0.890625	-0.058594	76	16_14_47_6778040
0.237305	-0.547852	-0.026367	-0.374973	-0.553085	-0.599956	0.410156	0.902344	-0.023438	77	16_14_47_6939330
0.240234	-0.553711	-0.035156	-0.374973	-0.543711	-0.599956	0.738281	0.937500	0.128906	78	16_14_47_7100620
0.231445	-0.539063	-0.023438	-0.374973	-0.553085	-0.599956	0.457031	0.914063	-0.023438	79	16_14_47_7261910
0.243164	-0.544922	-0.020508	-0.374973	-0.553085	-0.590582	0.925781	0.855469	0.093750	80	16_14_47_7423200
0.240234	-0.544922	-0.020508	-0.374973	-0.543711	-0.599956	0.457031	0.832031	-0.011719	81	16_14_47_7584490
0.243164	-0.536133	-0.020508	-0.374973	-0.543711	-0.599956	0.445313	0.820313	0.023438	82	16_14_47_7745780
0.246094	-0.550781	-0.026367	-0.374973	-0.543711	-0.599956	0.468750	0.902344	-0.023438	83	16_14_47_7907070
0.246094	-0.533203	-0.020508	-0.374973	-0.553085	-0.590582	0.550781	0.867188	0.023438	84	16_14_47_8068360
0.246094	-0.539063	-0.020508	-0.374973	-0.543711	-0.599956	0.457031	0.796875	-0.011719	85	16_14_47_8229650
0.243164	-0.553711	-0.026367	-0.374973	-0.543711	-0.599956	0.468750	0.832031	-0.035156	86	16_14_47_8390940
0.237305	-0.539063	-0.023438	-0.374973	-0.553085	-0.599956	0.492188	0.867188	-0.023438	87	16_14_47_8552230
0.240234	-0.550781	-0.023438	-0.374973	-0.562459	-0.590582	0.679688	0.843750	0.070313	88	16_14_47_8713520
0.243164	-0.539063	-0.020508	-0.374973	-0.553085	-0.599956	0.421875	0.820313	-0.011719	89	16_14_47_8874810
0.246094	-0.544922	-0.020508	-0.374973	-0.543711	-0.599956	0.433594	0.890625	-0.011719	90	16_14_47_9036100
0.234375	-0.547852	-0.023438	-0.374973	-0.543711	-0.599956	0.410156	0.890625	-0.058594	91	16_14_47_9197390
0.243164	-0.541992	-0.026367	-0.384347	-0.543711	-0.599956	0.867188	0.984375	0.222656	92	16_14_47_9358680
0.234375	-0.544922	-0.035156	-0.374973	-0.553085	-0.599956	0.410156	0.925781	-0.046875	93	16_14_47_9519970
0.237305	-0.539063	-0.023438	-0.384347	-0.553085	-0.599956	0.410156	0.902344	-0.058594	94	16_14_47_9681260
0.246094	-0.533203	-0.026367	-0.374973	-0.543711	-0.599956	0.457031	0.914063	-0.058594	95	16_14_47_9842550
0.240234	-0.541992	-0.026367	-0.374973	-0.543711	-0.599956	0.421875	0.902344	-0.023438	96	16_14_48_0003840
0.246094	-0.547852	-0.017578	-0.374973	-0.543711	-0.599956	0.550781	0.878906	-0.023438	97	16_14_48_0165130
0.240234	-0.541992	-0.017578	-0.384347	-0.553085	-0.599956	0.445313	0.914063	0.000000	98	16_14_48_0326420
0.231445	-0.544922	-0.029297	-0.374973	-0.543711	-0.599956	0.761719	0.937500	0.093750	99	16_14_48_0487710
0.246094	-0.544922	-0.020508	-0.374973	-0.543711	-0.599956	0.410156	0.937500	-0.070313	100	16_14_48_0649000
0.240234	-0.536133	-0.014648	-0.374973	-0.543711	-0.590582	0.433594	0.937500	-0.058594	101	16_14_48_0810290
0.243164	-0.533203	-0.011719	-0.374973	-0.543711	-0.599956	0.410156	0.925781	-0.058594	102	16_14_48_0971580
0.243164	-0.547852	-0.023438	-0.374973	-0.543711	-0.599956	0.445313	0.902344	-0.046875	103	16_14_48_1132870
0.240234	-0.533203	-0.023438	-0.374973	-0.543711	-0.599956	0.468750	0.878906	-0.035156	104	16_14_48_1294160
0.240234	-0.536133	-0.020508	-0.384347	-0.543711	-0.599956	0.468750	0.820313	0.175781	105	16_14_48_1455450
0.246094	-0.550781	-0.014648	-0.374973	-0.543711	-0.590582	0.398438	0.937500	-0.058594	106	16_14_48_1616740
0.246094	-0.544922	-0.017578	-0.374973	-0.543711	-0.599956	0.433594	0.937500	-0.011719	107	16_14_48_1778030
0.240234	-0.533203	-0.029297	-0.374973	-0.543711	-0.599956	0.421875	0.925781	-0.011719	108	16_14_48_1939320
0.231445	-0.541992	-0.026367	-0.384347	-0.543711	-0.599956	0.445313	0.914063	-0.035156	109	16_14_48_2100610
0.228516	-0.539063	-0.026367	-0.374973	-0.553085	-0.599956	0.480469	0.890625	-0.035156	110	16_14_48_2261900
0.246094	-0.544922	-0.023438	-0.374973	-0.553085	-0.590582	0.398438	0.914063	-0.011719	111	16_14_48_2423190
0.246094	-0.547852	-0.023438	-0.374973	-0.553085	-0.599956	0.445313	0.925781	-0.046875	112	16_14_48_2584480
0.240234	-0.550781	-0.020508	-0.374973	-0.543711	-0.599956	0.457031	0.902344	-0.035156	113	16_14_48_2745770
0.240234	-0.547852	-0.020508	-0.374973	-0.543711	-0.599956	0.421875	0.878906	-0.023438	114	16_14_48_2907060
0.249023	-0.550781	-0.026367	-0.365598	-0.553085	-0.599956	0.445313	0.843750	0.316406	115	16_14_48_3068350
0.240234	-0.544922	-0.011719	-0.374973	-0.543711	-0.599956	0.410156	0.867188	-0.046875	116	16_14_48_3229640
0.240234	-0.544922	-0.029297	-0.374973	-0.553085	-0.599956	0.410156	0.832031	-0.035156	117	16_14_48_3390930
0.246094	-0.544922	-0.026367	-0.374973	-0.553085	-0.599956	0.433594	0.902344	-0.046875	118	16_14_48_3552220
0.240234	-0.541992	-0.026367	-0.374973	-0.553085	-0.590582	0.457031	0.890625	-0.023438	119	16_14_48_3713510
0.246094	-0.544922	-0.023438	-0.374973	-0.553085	-0.599956	0.433594	0.855469	0.000000	120	16_14_48_3874800
0.246094	-0.544922	-0.026367	-0.374973	-0.543711	-0.590582	0.480469	0.914063	-0.011719	121	16_14_48_4036090
0.231445	-0.547852	-0.020508	-0.374973	-0.562459	-0.599956	0.445313	0.878906	0.000000	122	16_14_48_4197380
0.240234	-0.541992	-0.023438	-0.374973	-0.553085	-0.599956	0.457031	0.890625	-0.046875	123	16_14_48_4358670
0.240234	-0.541992	-0.023438	-0.374973	-0.553085	-0.599956	0.410156	0.878906	-0.082031	124	16_14_48_4519960
0.231445	-0.541992	-0.026367	-0.374973	-0.553085	-0.599956	0.433594	0.890625	-0.046875	125	16_14_48_4681250
0.237305	-0.544922	-0.020508	-0.365598	-0.543711	-0.599956	0.410156	0.878906	-0.011719	126	16_14_48_4842540
0.240234	-0.553711	-0.023438	-0.374973	-0.543711	-0.599956	0.445313	0.914063	0.035156	127	16_14_48_5003830
0.246094	-0.544922	-0.023438	-0.374973	-0.553085	-0.599956	0.433594	0.937500	0.000000	128	16_14_48_5165120
0.246094	-0.539063	-0.023438	-0.374973	-0.553085	-0.599956	0.410156	0.902344	-0.082031	129	16_14_48_5326410
0.249023	-0.544922	-0.017578	-0.374973	-0.543711	-0.599956	0.445313	0.855469	-0.046875	130	16_14_48_5487700
0.237305	-0.544922	-0.020508	-0.374973	-0.543711	-0.599956	0.480469	0.937500	0.011719	131	16_14_48_5648990
0.240234	-0.541992	-0.020508	-0.374973	-0.543711	-0.599956	0.410156	0.902344	0.035156	132	16_14_48_5810280
0.240234	-0.550781	-0.029297	-0.374973	-0.553085	-0.590582	0.421875	0.890625	0.023438	133	16_14_48_5971570
0.240234	-0.541992	-0.020508	-0.374973	-0.553085	-0.599956	0.761719	0.890625	0.199219	134	16_14_48_6132860
0.243164	-0.544922	-0.020508	-0.374973	-0.543711	-0.599956	0.410156	0.890625	-0.070313	135	16_14_48_6294150
0.234375	-0.547852	-0.023438	-0.374973	-0.543711	-0.599956	0.433594	0.890625	-0.023438	136	16_14_48_6455440
0.240234	-0.533203	-0.032227	-0.384347	-0.543711	-0.599956	0.609375	0.914063	-0.011719	137	16_14_48_6616730
0.243164	-0.539063	-0.023438	-0.384347	-0.553085	-0.599956	0.480469	0.890625	-0.070313	138	16_14_48_6778020
0.246094	-0.541992	-0.026367	-0.374973	-0.562459	-0.599956	0.398438	0.867188	-0.035156	139	16_14_48_6939310
0.240234	-0.541992	-0.035156	-0.374973	-0.553085	-0.599956	0.445313	0.937500	0.000000	140	16_14_48_7100600
0.246094	-0.541992	-0.014648	-0.374973	-0.543711	-0.599956	0.750000	0.902344	0.070313	141	16_14_48_7261890
0.237305	-0.541992	-0.023438	-0.374973	-0.543711	-0.599956	0.445313	0.878906	-0.023438	142	16_14_48_7423180
0.246094	-0.547852	-0.020508	-0.365598	-0.543711	-0.599956	0.433594	0.914063	-0.035156	143	16_14_48_7584470
0.228516	-0.544922	-0.017578	-0.374973	-0.553085	-0.599956	0.421875	0.878906	-0.046875	144	16_14_48_7745760
0.240234	-0.544922	-0.023438	-0.374973	-0.553085	-0.599956	0.609375	0.890625	0.292969	145	16_14_48_7907050
0.243164	-0.544922	-0.008789	-0.374973	-0.543711	-0.599956	0.410156	0.902344	0.023438	146	16_14_48_8068340
0.231445	-0.541992	-0.020508	-0.374973	-0.543711	-0.599956	0.562500	0.867188	0.011719	147	16_14_48_8229630
0.234375	-0.547852	-0.017578	-0.393721	-0.543711	-0.590582	0.457031	0.914063	0.082031	148	16_14_48_8390920
0.240234	-0.547852	-0.023438	-0.374973	-0.543711	-0.599956	0.410156	0.843750	0.058594	149	16_14_48_8552210
0.240234	-0.556641	-0.017578	-0.374973	-0.553085	-0.599956	0.445313	0.832031	0.000000	150	16_14_48_8713500
0.243164	-0.547852	-0.020508	-0.374973	-0.553085	-0.590582	0.410156	0.914063	-0.046875	151	16_14_48_8874790
0.243164	-0.544922	-0.026367	-0.374973	-0.553085	-0.599956	0.480469	0.914063	-0.035156	152	16_14_48_9036080
0.234375	-0.533203	-0.017578	-0.374973	-0.543711	-0.599956	0.421875	0.878906	-0.046875	153	16_14_48_9197370
0.243164	-0.527344	-0.020508	-0.374973	-0.543711	-0.599956	0.445313	0.890625	-0.058594	154	16_14_48_9358660
0.240234	-0.539063	-0.020508	-0.374973	-0.543711	-0.599956	0.445313	0.878906	-0.035156	155	16_14_48_9519950
0.243164	-0.539063	-0.026367	-0.374973	-0.543711	-0.599956	0.445313	0.878906	0.363281	156	16_14_48_9681240
0.251953	-0.541992	-0.020508	-0.374973	-0.543711	-0.599956	0.503906	0.937500	0.023438	157	16_14_48_9842530
0.240234	-0.553711	-0.023438	-0.374973	-0.543711	-0.599956	0.421875	0.855469	0.000000	158	16_14_49_0003820
0.246094	-0.559570	-0.026367	-0.374973	-0.553085	-0.599956	0.621094	0.796875	0.023438	159	16_14_49_0165110
0.240234	-0.544922	-0.014648	-0.374973	-0.553085	-0.599956	0.457031	0.878906	-0.046875	160	16_14_49_0326400
0.246094	-0.547852	-0.017578	-0.374973	-0.543711	-0.590582	0.878906	0.914063	0.140625	161	16_14_49_0487690
0.240234	-0.547852	-0.026367	-0.374973	-0.562459	-0.599956	0.421875	0.890625	-0.011719	162	16_14_49_0648980
0.246094	-0.539063	-0.026367	-0.374973	-0.543711	-0.599956	0.421875	0.914063	0.000000	163	16_14_49_0810270
0.249023	-0.541992	-0.020508	-0.374973	-0.543711	-0.599956	0.433594	0.902344	-0.011719	164	16_14_49_0971560
0.240234	-0.536133	-0.023438	-0.374973	-0.543711	-0.599956	0.890625	0.902344	0.210938	165	16_14_49_1132850
0.234375	-0.539063	-0.020508	-0.374973	-0.553085	-0.599956	0.621094	0.914063	0.257813	166	16_14_49_1294140
0.243164	-0.536133	-0.023438	-0.374973	-0.553085	-0.599956	0.410156	0.937500	-0.011719	167	16_14_49_1455430
0.237305	-0.539063	-0.023438	-0.374973	-0.553085	-0.599956	0.410156	0.890625	-0.035156	168	16_14_49_1616720
0.249023	-0.533203	-0.014648	-0.374973	-0.543711	-0.599956	0.597656	0.867188	0.046875	169	16_14_49_1778010
0.243164	-0.544922	-0.020508	-0.374973	-0.553085	-0.599956	0.433594	0.890625	0.023438	170	16_14_49_1939300
0.240234	-0.536133	-0.017578	-0.384347	-0.543711	-0.599956	0.421875	0.867188	0.023438	171	16_14_49_2100590
0.237305	-0.553711	-0.026367	-0.374973	-0.543711	-0.599956	0.457031	0.867188	-0.011719	172	16_14_49_2261880
0.228516	-0.550781	-0.017578	-0.374973	-0.543711	-0.590582	0.867188	0.937500	0.093750	173	16_14_49_2423170
0.243164	-0.544922	-0.020508	-0.374973	-0.553085	-0.599956	0.433594	0.937500	-0.023438	174	16_14_49_2584460
0.249023	-0.539063	-0.026367	-0.374973	-0.553085	-0.590582	0.937500	0.937500	0.175781	175	16_14_49_2745750
0.246094	-0.541992	-0.026367	-0.374973	-0.543711	-0.599956	0.410156	0.902344	0.000000	176	16_14_49_2907040
0.249023	-0.553711	-0.020508	-0.374973	-0.543711	-0.599956	0.410156	0.890625	0.011719	177	16_14_49_3068330
0.246094	-0.556641	-0.026367	-0.374973	-0.543711	-0.590582	0.421875	0.937500	-0.023438	178	16_14_49_3229620
0.234375	-0.556641	-0.029297	-0.374973	-0.553085	-0.599956	0.421875	0.890625	0.140625	179	16_14_49_3390910
0.249023	-0.539063	-0.014648	-0.374973	-0.553085	-0.590582	0.410156	0.843750	-0.023438	180	16_14_49_3552200
0.243164	-0.536133	-0.026367	-0.374973	-0.543711	-0.599956	0.433594	0.914063	0.000000	181	16_14_49_3713490
0.243164	-0.533203	-0.023438	-0.374973	-0.543711	-0.599956	0.410156	0.890625	-0.046875	182	16_14_49_3874780
0.234375	-0.533203	-0.029297	-0.384347	-0.562459	-0.599956	0.445313	0.890625	-0.093750	183	16_14_49_4036070
0.240234	-0.539063	-0.020508	-0.374973	-0.553085	-0.599956	0.410156	0.890625	-0.046875	184	16_14_49_4197360
0.243164	-0.539063	-0.020508	-0.374973	-0.562459	-0.599956	0.445313	0.878906	-0.023438	185	16_14_49_4358650
0.246094	-0.541992	-0.023438	-0.374973	-0.553085	-0.590582	0.457031	0.890625	-0.011719	186	16_14_49_4519940
0.246094	-0.544922	-0.017578	-0.365598	-0.543711	-0.599956	0.421875	0.878906	-0.035156	187	16_14_49_4681230
0.246094	-0.547852	-0.026367	-0.374973	-0.543711	-0.599956	0.410156	0.902344	-0.023438	188	16_14_49_4842520
0.234375	-0.544922	-0.026367	-0.374973	-0.543711	-0.590582	0.433594	0.878906	-0.023438	189	16_14_49_5003810
0.234375	-0.539063	-0.011719	-0.374973	-0.553085	-0.590582	0.410156	0.890625	-0.058594	190	16_14_49_5165100
0.234375	-0.544922	-0.023438	-0.374973	-0.553085	-0.599956	0.457031	0.832031	-0.058594	191	16_14_49_5326390
0.249023	-0.541992	-0.023438	-0.374973	-0.553085	-0.599956	0.480469	0.914063	-0.058594	192	16_14_49_5487680
0.237305	-0.539063	-0.020508	-0.384347	-0.543711	-0.599956	0.421875	0.925781	-0.035156	193	16_14_49_5648970
0.240234	-0.533203	-0.029297	-0.374973	-0.543711	-0.599956	0.843750	0.890625	0.082031	194	16_14_49_5810260
0.246094	-0.539063	-0.017578	-0.374973	-0.553085	-0.599956	0.410156	0.855469	-0.058594	195	16_14_49_5971550
0.240234	-0.536133	-0.026367	-0.374973	-0.553085	-0.599956	0.902344	0.867188	0.175781	196	16_14_49_6132840
0.243164	-0.533203	-0.032227	-0.384347	-0.543711	-0.599956	0.421875	0.914063	-0.023438	197	16_14_49_6294130
0.251953	-0.533203	-0.020508	-0.374973	-0.543711	-0.599956	0.445313	0.914063	0.000000	198	16_14_49_6455420
0.240234	-0.550781	-0.020508	-0.374973	-0.553085	-0.599956	0.445313	0.902344	0.000000	199	16_14_49_6616710
0.243164	-0.536133	-0.029297	-0.374973	-0.553085	-0.599956	0.468750	0.890625	0.000000	200	16_14_49_6778000
0.234375	-0.536133	-0.020508	-0.374973	-0.553085	-0.599956	0.410156	0.855469	0.011719	201	16_14_49_6939290
0.249023	-0.547852	-0.011719	-0.374973	-0.553085	-0.599956	0.679688	0.890625	0.070313	202	16_14_49_7100580
0.251953	-0.553711	-0.020508	-0.374973	-0.543711	-0.599956	0.433594	0.855469	-0.023438	203	16_14_49_7261870
0.246094	-0.536133	-0.029297	-0.374973	-0.543711	-0.599956	0.457031	0.890625	-0.011719	204	16_14_49_7423160
0.240234	-0.539063	-0.032227	-0.374973	-0.553085	-0.599956	0.937500	0.960938	0.128906	205	16_14_49_7584450
0.237305	-0.544922	-0.035156	-0.374973	-0.543711	-0.599956	0.433594	0.937500	-0.046875	206	16_14_49_7745740
0.234375	-0.530273	-0.026367	-0.374973	-0.553085	-0.599956	0.410156	0.949219	-0.070313	207	16_14_49_7907030
0.240234	-0.544922	-0.014648	-0.365598	-0.553085	-0.599956	0.410156	0.914063	-0.093750	208	16_14_49_8068320
0.234375	-0.544922	-0.017578	-0.374973	-0.553085	-0.599956	0.433594	0.855469	0.199219	209	16_14_49_8229610
0.237305	-0.536133	-0.017578	-0.374973	-0.553085	-0.599956	0.445313	0.878906	-0.035156	210	16_14_49_8390900
0.240234	-0.544922	-0.014648	-0.374973	-0.553085	-0.590582	0.492188	0.890625	0.035156	211	16_14_49_8552190
0.251953	-0.536133	-0.023438	-0.374973	-0.553085	-0.599956	0.410156	0.902344	-0.035156	212	16_14_49_8713480
0.249023	-0.544922	-0.026367	-0.374973	-0.553085	-0.599956	0.468750	0.867188	-0.035156	213	16_14_49_8874770
0.246094	-0.541992	-0.014648	-0.374973	-0.543711	-0.599956	0.433594	0.890625	0.000000	214	16_14_49_9036060
0.234375	-0.547852	-0.026367	-0.374973	-0.543711	-0.599956	0.667969	0.878906	0.046875	215	16_14_49_9197350
0.240234	-0.550781	-0.017578	-0.374973	-0.553085	-0.599956	0.996094	0.843750	0.128906	216	16_14_49_9358640
0.240234	-0.533203	-0.026367	-0.374973	-0.553085	-0.599956	0.902344	0.878906	0.363281	217	16_14_49_9519930
0.243164	-0.539063	-0.014648	-0.374973	-0.553085	-0.599956	0.457031	0.855469	0.000000	218	16_14_49_9681220
0.240234	-0.536133	-0.017578	-0.374973	-0.543711	-0.599956	0.410156	0.878906	0.023438	219	16_14_49_9842510
0.234375	-0.539063	-0.026367	-0.365598	-0.543711	-0.599956	0.468750	0.890625	-0.035156	220	16_14_50_0003800
0.240234	-0.547852	-0.023438	-0.374973	-0.543711	-0.590582	0.457031	0.914063	-0.058594	221	16_14_50_0165090
0.240234	-0.536133	-0.020508	-0.374973	-0.553085	-0.590582	0.468750	0.914063	-0.035156	222	16_14_50_0326380
0.249023	-0.544922	-0.020508	-0.365598	-0.553085	-0.599956	0.785156	0.949219	0.140625	223	16_14_50_0487670
0.240234	-0.541992	-0.017578	-0.374973	-0.543711	-0.599956	0.398438	0.914063	0.000000	224	16_14_50_0648960
0.228516	-0.544922	-0.020508	-0.374973	-0.543711	-0.599956	0.421875	0.867188	-0.058594	225	16_14_50_0810250
0.234375	-0.539063	-0.026367	-0.374973	-0.543711	-0.599956	0.937500	0.890625	0.093750	226	16_14_50_0971540
0.246094	-0.536133	-0.029297	-0.374973	-0.553085	-0.599956	0.468750	0.937500	-0.070313	227	16_14_50_1132830
0.243164	-0.524414	-0.014648	-0.384347	-0.553085	-0.599956	0.410156	0.949219	-0.023438	228	16_14_50_1294120
0.246094	-0.544922	-0.020508	-0.384347	-0.553085	-0.599956	0.468750	0.855469	0.000000	229	16_14_50_1455410
0.249023	-0.539063	-0.023438	-0.374973	-0.543711	-0.599956	0.410156	0.820313	-0.035156	230	16_14_50_1616700
0.251953	-0.544922	-0.026367	-0.374973	-0.543711	-0.590582	0.398438	0.867188	-0.070313	231	16_14_50_1777990
0.243164	-0.544922	-0.029297	-0.374973	-0.543711	-0.599956	0.421875	0.867188	-0.046875	232	16_14_50_1939280
0.240234	-0.539063	-0.023438	-0.374973	-0.543711	-0.599956	0.550781	0.925781	-0.011719	233	16_14_50_2100570
0.240234	-0.553711	-0.014648	-0.374973	-0.553085	-0.599956	0.410156	0.878906	-0.023438	234	16_14_50_2261860
0.240234	-0.544922	-0.014648	-0.374973	-0.553085	-0.599956	0.410156	0.878906	-0.035156	235	16_14_50_2423150
0.240234	-0.539063	-0.020508	-0.374973	-0.553085	-0.599956	0.421875	0.890625	-0.070313	236	16_14_50_2584440
0.237305	-0.539063	-0.020508	-0.374973	-0.543711	-0.599956	0.949219	0.937500	0.117188	237	16_14_50_2745730
0.240234	-0.544922	-0.014648	-0.374973	-0.543711	-0.599956	0.890625	0.914063	0.363281	238	16_14_50_2907020
0.240234	-0.544922	-0.023438	-0.374973	-0.553085	-0.599956	0.410156	0.878906	-0.023438	239	16_14_50_3068310
0.246094	-0.550781	-0.020508	-0.374973	-0.562459	-0.590582	0.515625	0.867188	-0.046875	240	16_14_50_3229600
0.246094	-0.553711	-0.011719	-0.374973	-0.562459	-0.590582	0.410156	0.890625	-0.058594	241	16_14_50_3390890
0.251953	-0.536133	-0.017578	-0.374973	-0.543711	-0.599956	0.398438	0.890625	-0.023438	242	16_14_50_3552180
0.243164	-0.536133	-0.026367	-0.374973	-0.553085	-0.599956	0.410156	0.914063	-0.035156	243	16_14_50_3713470
0.240234	-0.539063	-0.026367	-0.374973	-0.553085	-0.599956	0.421875	0.914063	-0.082031	244	16_14_50_3874760
0.240234	-0.544922	-0.023438	-0.374973	-0.553085	-0.599956	0.445313	0.890625	-0.058594	245	16_14_50_4036050
0.240234	-0.541992	-0.035156	-0.374973	-0.553085	-0.599956	0.433594	0.902344	0.011719	246	16_14_50_4197340
0.249023	-0.547852	-0.026367	-0.374973	-0.543711	-0.599956	0.445313	0.914063	0.011719	247	16_14_50_4358630
0.246094	-0.541992	-0.014648	-0.374973	-0.543711	-0.599956	0.410156	0.878906	-0.058594	248	16_14_50_4519920
0.234375	-0.539063	-0.026367	-0.374973	-0.543711	-0.590582	0.703125	0.902344	0.222656	249	16_14_50_4681210
0.246094	-0.536133	-0.026367	-0.365598	-0.553085	-0.599956	0.433594	0.902344	-0.011719	250	16_14_50_4842500
0.251953	-0.550781	-0.017578	-0.374973	-0.543711	-0.590582	0.410156	0.843750	0.011719	251	16_14_50_5003790
0.246094	-0.547852	-0.017578	-0.374973	-0.553085	-0.599956	0.468750	0.855469	0.011719	252	16_14_50_5165080
0.246094	-0.544922	-0.017578	-0.374973	-0.553085	-0.599956	0.457031	0.937500	-0.011719	253	16_14_50_5326370
0.243164	-0.539063	-0.026367	-0.374973	-0.553085	-0.599956	0.445313	0.937500	-0.035156	254	16_14_50_5487660
0.246094	-0.539063	-0.023438	-0.374973	-0.553085	-0.599956	0.445313	0.937500	-0.023438	255	16_14_50_5648950
0.237305	-0.539063	-0.020508	-0.374973	-0.543711	-0.599956	0.410156	0.902344	-0.035156	256	16_14_50_5810240
0.243164	-0.539063	-0.026367	-0.384347	-0.553085	-0.599956	0.445313	0.902344	-0.082031	257	16_14_50_5971530
0.243164	-0.544922	-0.023438	-0.374973	-0.553085	-0.590582	0.433594	0.925781	-0.023438	258	16_14_50_6132820
0.234375	-0.533203	-0.026367	-0.374973	-0.553085	-0.599956	0.867188	0.890625	0.292969	259	16_14_50_6294110
0.240234	-0.536133	-0.032227	-0.384347	-0.553085	-0.599956	0.492188	0.890625	-0.011719	260	16_14_50_6455400
0.249023	-0.541992	-0.014648	-0.374973	-0.553085	-0.599956	0.457031	0.937500	-0.011719	261	16_14_50_6616690
0.237305	-0.541992	-0.014648	-0.374973	-0.553085	-0.599956	0.410156	0.878906	-0.011719	262	16_14_50_6777980
0.249023	-0.541992	-0.023438	-0.374973	-0.553085	-0.599956	0.410156	0.820313	0.011719	263	16_14_50_6939270
0.246094	-0.539063	-0.023438	-0.374973	-0.553085	-0.599956	0.433594	0.890625	-0.035156	264	16_14_50_7100560
0.240234	-0.550781	-0.026367	-0.374973	-0.562459	-0.599956	0.433594	0.855469	0.000000	265	16_14_50_7261850
0.251953	-0.541992	-0.020508	-0.374973	-0.553085	-0.599956	0.433594	0.843750	0.011719	266	16_14_50_7423140
0.251953	-0.539063	-0.032227	-0.374973	-0.553085	-0.599956	0.656250	0.867188	0.070313	267	16_14_50_7584430
0.240234	-0.539063	-0.026367	-0.374973	-0.543711	-0.609331	0.433594	0.937500	-0.023438	268	16_14_50_7745720
0.234375	-0.536133	-0.029297	-0.374973	-0.543711	-0.599956	0.433594	0.949219	-0.035156	269	16_14_50_7907010
0.240234	-0.541992	-0.032227	-0.374973	-0.553085	-0.599956	0.410156	0.914063	-0.070313	270	16_14_50_8068300
0.240234	-0.527344	-0.023438	-0.374973	-0.553085	-0.599956	0.445313	0.902344	-0.082031	271	16_14_50_8229590
0.225586	-0.541992	-0.026367	-0.374973	-0.553085	-0.599956	0.621094	0.867188	0.328125	272	16_14_50_8390880
0.251953	-0.544922	-0.020508	-0.374973	-0.543711	-0.599956	0.468750	0.820313	-0.011719	273	16_14_50_8552170
0.240234	-0.539063	-0.026367	-0.374973	-0.543711	-0.599956	0.457031	0.890625	0.000000	274	16_14_50_8713460
0.240234	-0.539063	-0.014648	-0.374973	-0.543711	-0.609331	0.667969	0.890625	0.035156	275	16_14_50_8874750
0.237305	-0.533203	-0.020508	-0.374973	-0.543711	-0.599956	0.410156	0.855469	-0.093750	276	16_14_50_9036040
0.237305	-0.539063	-0.026367	-0.365598	-0.553085	-0.599956	0.843750	0.914063	0.082031	277	16_14_50_9197330
0.243164	-0.544922	-0.026367	-0.374973	-0.553085	-0.599956	0.457031	0.890625	-0.011719	278	16_14_50_9358620
0.243164	-0.544922	-0.014648	-0.374973	-0.553085	-0.599956	0.433594	0.902344	-0.011719	279	16_14_50_9519910
0.246094	-0.547852	-0.023438	-0.374973	-0.553085	-0.599956	0.445313	0.914063	-0.011719	280	16_14_50_9681200
0.240234	-0.536133	-0.020508	-0.374973	-0.553085	-0.599956	0.468750	0.890625	-0.058594	281	16_14_50_9842490
0.240234	-0.544922	-0.026367	-0.374973	-0.543711	-0.599956	0.562500	0.914063	0.375000	282	16_14_51_0003780
0.240234	-0.541992	-0.032227	-0.374973	-0.553085	-0.599956	0.621094	0.890625	0.257813	283	16_14_51_0165070
0.243164	-0.544922	-0.020508	-0.374973	-0.553085	-0.599956	0.433594	0.914063	-0.058594	284	16_14_51_0326360
0.240234	-0.544922	-0.014648	-0.374973	-0.543711	-0.599956	0.433594	0.890625	-0.035156	285	16_14_51_0487650
0.240234	-0.536133	-0.023438	-0.374973	-0.553085	-0.599956	0.457031	0.890625	-0.011719	286	16_14_51_0648940
0.240234	-0.541992	-0.023438	-0.374973	-0.543711	-0.599956	0.410156	0.890625	-0.058594	287	16_14_51_0810230
0.254883	-0.544922	-0.023438	-0.374973	-0.553085	-0.599956	0.843750	0.949219	0.046875	288	16_14_51_0971520
0.240234	-0.547852	-0.023438	-0.374973	-0.543711	-0.609331	0.480469	0.949219	0.023438	289	16_14_51_1132810
0.249023	-0.541992	-0.026367	-0.374973	-0.543711	-0.609331	0.410156	0.890625	0.035156	290	16_14_51_1294100
0.234375	-0.553711	-0.026367	-0.374973	-0.534336	-0.609331	0.468750	0.855469	-0.046875	291	16_14_51_1455390
0.243164	-0.544922	-0.026367	-0.374973	-0.543711	-0.609331	0.445313	0.855469	-0.058594	292	16_14_51_1616680
0.246094	-0.539063	-0.020508	-0.374973	-0.543711	-0.599956	0.445313	0.890625	-0.035156	293	16_14_51_1777970
0.228516	-0.550781	-0.014648	-0.374973	-0.543711	-0.599956	0.410156	0.867188	-0.035156	294	16_14_51_1939260
0.231445	-0.544922	-0.014648	-0.365598	-0.543711	-0.599956	0.433594	0.890625	0.000000	295	16_14_51_2100550
0.234375	-0.547852	-0.014648	-0.374973	-0.543711	-0.599956	0.445313	0.867188	0.000000	296	16_14_51_2261840
0.246094	-0.541992	-0.023438	-0.374973	-0.543711	-0.609331	0.785156	0.867188	0.035156	297	16_14_51_2423130
0.246094	-0.544922	-0.026367	-0.374973	-0.534336	-0.609331	0.421875	0.914063	-0.082031	298	16_14_51_2584420
0.251953	-0.536133	-0.029297	-0.374973	-0.534336	-0.609331	0.433594	0.855469	-0.093750	299	16_14_51_2745710
0.243164	-0.541992	-0.026367	-0.374973	-0.543711	-0.609331	0.457031	0.855469	-0.093750	300	16_14_51_2907000
0.240234	-0.544922	-0.017578	-0.384347	-0.543711	-0.618705	0.457031	0.867188	-0.058594	301	16_14_51_3068290
0.251953	-0.533203	-0.026367	-0.384347	-0.534336	-0.618705	0.410156	0.843750	-0.046875	302	16_14_51_3229580
0.249023	-0.559570	-0.023438	-0.384347	-0.534336	-0.618705	0.445313	0.867188	0.257813	303	16_14_51_3390870
0.240234	-0.544922	-0.029297	-0.384347	-0.524962	-0.618705	0.457031	0.855469	0.035156	304	16_14_51_3552160
0.234375	-0.536133	-0.038086	-0.384347	-0.524962	-0.628079	0.410156	0.890625	0.011719	305	16_14_51_3713450
0.222656	-0.536133	-0.020508	-0.374973	-0.543711	-0.628079	0.421875	0.855469	-0.058594	306	16_14_51_3874740
0.216797	-0.547852	-0.023438	-0.374973	-0.553085	-0.637454	0.445313	0.890625	-0.046875	307	16_14_51_4036030
0.205078	-0.559570	-0.032227	-0.374973	-0.581208	-0.618705	0.785156	0.914063	0.082031	308	16_14_51_4197320
0.222656	-0.556641	-0.023438	-0.374973	-0.581208	-0.618705	0.433594	0.878906	-0.058594	309	16_14_51_4358610
0.240234	-0.553711	-0.002930	-0.374973	-0.581208	-0.609331	0.410156	0.914063	-0.046875	310	16_14_51_4519900
0.225586	-0.544922	-0.008789	-0.384347	-0.571833	-0.618705	0.457031	0.925781	-0.011719	311	16_14_51_4681190
0.234375	-0.550781	-0.008789	-0.384347	-0.562459	-0.609331	0.468750	0.914063	-0.035156	312	16_14_51_4842480
0.231445	-0.553711	-0.008789	-0.384347	-0.553085	-0.618705	0.445313	0.867188	0.234375	313	16_14_51_5003770
0.234375	-0.547852	-0.020508	-0.393721	-0.543711	-0.618705	0.562500	0.925781	0.199219	314	16_14_51_5165060
0.231445	-0.539063	-0.020508	-0.393721	-0.534336	-0.618705	0.468750	0.925781	-0.070313	315	16_14_51_5326350
0.228516	-0.544922	-0.032227	-0.384347	-0.543711	-0.609331	0.632813	0.878906	0.000000	316	16_14_51_5487640
0.228516	-0.553711	-0.014648	-0.384347	-0.543711	-0.609331	0.445313	0.890625	-0.011719	317	16_14_51_5648930
0.219727	-0.550781	-0.026367	-0.393721	-0.543711	-0.609331	0.457031	0.925781	0.011719	318	16_14_51_5810220
0.222656	-0.550781	-0.023438	-0.384347	-0.543711	-0.609331	0.445313	0.890625	0.000000	319	16_14_51_5971510
0.216797	-0.550781	-0.026367	-0.374973	-0.543711	-0.609331	0.925781	0.890625	0.140625	320	16_14_51_6132800
0.222656	-0.547852	-0.017578	-0.374973	-0.543711	-0.609331	0.410156	0.902344	-0.023438	321	16_14_51_6294090
0.210938	-0.556641	-0.014648	-0.374973	-0.543711	-0.609331	0.421875	0.914063	-0.011719	322	16_14_51_6455380
0.213867	-0.556641	0.002930	-0.374973	-0.543711	-0.609331	0.421875	0.855469	-0.011719	323	16_14_51_6616670
0.213867	-0.553711	-0.008789	-0.374973	-0.553085	-0.609331	0.433594	0.855469	-0.046875	324	16_14_51_6777960
0.216797	-0.547852	-0.020508	-0.374973	-0.543711	-0.599956	0.421875	0.937500	-0.046875	325	16_14_51_6939250
0.216797	-0.556641	-0.014648	-0.374973	-0.543711	-0.599956	0.410156	0.914063	-0.058594	326	16_14_51_7100540
0.222656	-0.559570	-0.017578	-0.374973	-0.543711	-0.599956	0.421875	0.890625	-0.035156	327	16_14_51_7261830
0.225586	-0.565430	-0.008789	-0.384347	-0.553085	-0.599956	0.679688	0.902344	0.058594	328	16_14_51_7423120
0.216797	-0.553711	-0.014648	-0.384347	-0.543711	-0.599956	0.445313	0.937500	-0.058594	329	16_14_51_7584410
0.216797	-0.547852	-0.014648	-0.374973	-0.543711	-0.599956	0.445313	0.960938	-0.035156	330	16_14_51_7745700
0.222656	-0.544922	-0.020508	-0.374973	-0.553085	-0.599956	0.433594	0.914063	-0.011719	331	16_14_51_7906990
0.213867	-0.547852	-0.011719	-0.374973	-0.553085	-0.590582	0.808594	0.960938	0.093750	332	16_14_51_8068280
0.213867	-0.556641	-0.017578	-0.374973	-0.553085	-0.590582	0.445313	0.937500	-0.023438	333	16_14_51_8229570
0.228516	-0.544922	-0.011719	-0.374973	-0.553085	-0.599956	0.550781	0.925781	0.316406	334	16_14_51_8390860
0.222656	-0.544922	-0.014648	-0.384347	-0.553085	-0.599956	0.445313	0.925781	0.199219	335	16_14_51_8552150
0.216797	-0.539063	-0.023438	-0.374973	-0.553085	-0.599956	0.410156	0.890625	-0.011719	336	16_14_51_8713440
0.225586	-0.544922	-0.017578	-0.374973	-0.562459	-0.599956	0.410156	0.890625	-0.011719	337	16_14_51_8874730
0.231445	-0.544922	-0.017578	-0.384347	-0.562459	-0.599956	0.421875	0.914063	-0.035156	338	16_14_51_9036020
0.222656	-0.544922	-0.014648	-0.384347	-0.562459	-0.599956	0.433594	0.890625	-0.035156	339	16_14_51_9197310
0.225586	-0.547852	-0.011719	-0.374973	-0.553085	-0.590582	0.468750	0.972656	-0.023438	340	16_14_51_9358600
0.216797	-0.544922	-0.014648	-0.374973	-0.562459	-0.590582	0.457031	0.937500	-0.035156	341	16_14_51_9519890
0.216797	-0.550781	-0.020508	-0.374973	-0.553085	-0.599956	0.492188	0.925781	-0.035156	342	16_14_51_9681180
0.216797	-0.550781	-0.020508	-0.374973	-0.553085	-0.590582	0.457031	0.878906	-0.058594	343	16_14_51_9842470
0.216797	-0.547852	-0.017578	-0.374973	-0.553085	-0.599956	0.597656	0.855469	-0.011719	344	16_14_52_0003760
0.225586	-0.539063	-0.011719	-0.374973	-0.553085	-0.590582	0.527344	0.914063	-0.035156	345	16_14_52_0165050
0.225586	-0.539063	-0.014648	-0.374973	-0.553085	-0.599956	0.457031	0.902344	-0.046875	346	16_14_52_0326340
0.219727	-0.544922	-0.020508	-0.374973	-0.553085	-0.599956	0.457031	0.867188	-0.046875	347	16_14_52_0487630
0.228516	-0.550781	-0.020508	-0.374973	-0.553085	-0.590582	0.421875	0.820313	-0.011719	348	16_14_52_0648920
0.222656	-0.550781	-0.011719	-0.374973	-0.562459	-0.599956	0.468750	0.843750	0.035156	349	16_14_52_0810210
0.216797	-0.541992	-0.002930	-0.374973	-0.553085	-0.599956	0.457031	0.937500	0.000000	350	16_14_52_0971500
0.228516	-0.544922	-0.014648	-0.374973	-0.543711	-0.599956	0.421875	0.914063	0.000000	351	16_14_52_1132790
0.213867	-0.541992	-0.017578	-0.374973	-0.543711	-0.599956	0.468750	0.867188	-0.011719	352	16_14_52_1294080
0.216797	-0.547852	-0.020508	-0.374973	-0.543711	-0.599956	0.421875	0.855469	-0.011719	353	16_14_52_1455370
0.225586	-0.533203	-0.014648	-0.374973	-0.553085	-0.590582	0.421875	0.890625	0.035156	354	16_14_52_1616660
0.216797	-0.544922	-0.014648	-0.374973	-0.562459	-0.599956	0.550781	0.878906	0.304688	355	16_14_52_1777950
0.225586	-0.550781	-0.014648	-0.374973	-0.553085	-0.590582	0.445313	0.878906	-0.070313	356	16_14_52_1939240
0.228516	-0.550781	-0.011719	-0.374973	-0.553085	-0.590582	0.421875	0.867188	-0.046875	357	16_14_52_2100530
0.219727	-0.556641	-0.014648	-0.374973	-0.553085	-0.590582	0.445313	0.925781	-0.023438	358	16_14_52_2261820
0.225586	-0.536133	-0.008789	-0.365598	-0.553085	-0.599956	0.468750	0.890625	-0.023438	359	16_14_52_2423110
0.210938	-0.544922	-0.014648	-0.365598	-0.562459	-0.599956	0.421875	0.867188	-0.035156	360	16_14_52_2584400
0.216797	-0.541992	-0.011719	-0.365598	-0.562459	-0.590582	0.445313	0.843750	0.000000	361	16_14_52_2745690
0.225586	-0.547852	-0.020508	-0.374973	-0.562459	-0.590582	0.410156	0.867188	0.000000	362	16_14_52_2906980
0.216797	-0.547852	-0.020508	-0.374973	-0.553085	-0.590582	0.761719	0.843750	0.058594	363	16_14_52_3068270
0.234375	-0.544922	-0.008789	-0.374973	-0.543711	-0.590582	0.656250	0.890625	0.210938	364	16_14_52_3229560
0.234375	-0.550781	-0.020508	-0.374973	-0.553085	-0.590582	0.421875	0.890625	-0.082031	365	16_14_52_3390850
0.225586	-0.559570	-0.020508	-0.384347	-0.553085	-0.590582	0.468750	0.890625	-0.105469	366	16_14_52_3552140
0.222656	-0.539063	-0.020508	-0.374973	-0.562459	-0.599956	0.445313	0.914063	0.070313	367	16_14_52_3713430
0.213867	-0.544922	-0.011719	-0.374973	-0.562459	-0.599956	0.410156	0.914063	0.011719	368	16_14_52_3874720
0.222656	-0.547852	-0.014648	-0.374973	-0.553085	-0.581208	0.503906	0.890625	0.000000	369	16_14_52_4036010
0.228516	-0.556641	-0.023438	-0.374973	-0.562459	-0.590582	0.468750	0.832031	0.000000	370	16_14_52_4197300
0.225586	-0.544922	-0.020508	-0.374973	-0.562459	-0.590582	0.843750	0.867188	0.128906	371	16_14_52_4358590
0.225586	-0.550781	-0.014648	-0.374973	-0.562459	-0.590582	0.445313	0.843750	0.000000	372	16_14_52_4519880
0.228516	-0.556641	-0.014648	-0.374973	-0.562459	-0.599956	0.457031	0.878906	-0.070313	373	16_14_52_4681170
0.228516	-0.550781	-0.020508	-0.374973	-0.553085	-0.590582	0.445313	0.878906	-0.058594	374	16_14_52_4842460
0.234375	-0.550781	-0.014648	-0.374973	-0.553085	-0.590582	0.445313	0.925781	-0.011719	375	16_14_52_5003750
0.234375	-0.550781	-0.023438	-0.374973	-0.562459	-0.590582	0.421875	0.914063	-0.035156	376	16_14_52_5165040
0.225586	-0.544922	-0.014648	-0.365598	-0.562459	-0.590582	0.410156	0.890625	-0.023438	377	16_14_52_5326330
0.228516	-0.550781	-0.023438	-0.374973	-0.553085	-0.599956	0.421875	0.890625	-0.023438	378	16_14_52_5487620
0.234375	-0.544922	-0.017578	-0.365598	-0.553085	-0.599956	0.421875	0.890625	-0.011719	379	16_14_52_5648910
0.225586	-0.544922	-0.023438	-0.374973	-0.562459	-0.599956	0.468750	0.914063	0.035156	380	16_14_52_5810200
0.225586	-0.553711	-0.020508	-0.374973	-0.553085	-0.590582	0.433594	0.914063	-0.011719	381	16_14_52_5971490
0.228516	-0.553711	-0.023438	-0.374973	-0.553085	-0.599956	0.410156	0.902344	-0.070313	382	16_14_52_6132780
0.234375	-0.550781	-0.020508	-0.374973	-0.553085	-0.599956	0.375000	0.867188	-0.058594	383	16_14_52_6294070
0.234375	-0.544922	-0.014648	-0.374973	-0.553085	-0.599956	0.433594	0.878906	-0.011719	384	16_14_52_6455360
0.240234	-0.539063	-0.020508	-0.374973	-0.553085	-0.599956	0.445313	0.843750	0.023438	385	16_14_52_6616650
0.228516	-0.547852	-0.017578	-0.374973	-0.553085	-0.590582	0.562500	0.902344	0.023438	386	16_14_52_6777940
0.228516	-0.550781	-0.035156	-0.374973	-0.562459	-0.590582	0.421875	0.902344	-0.023438	387	16_14_52_6939230
0.228516	-0.553711	-0.011719	-0.374973	-0.562459	-0.599956	0.445313	0.867188	-0.035156	388	16_14_52_7100520
0.234375	-0.544922	-0.014648	-0.374973	-0.553085	-0.599956	0.457031	0.914063	-0.046875	389	16_14_52_7261810
0.234375	-0.544922	-0.014648	-0.374973	-0.553085	-0.590582	0.468750	0.937500	-0.035156	390	16_14_52_7423100
0.225586	-0.550781	-0.017578	-0.374973	-0.543711	-0.599956	0.433594	0.878906	-0.046875	391	16_14_52_7584390
0.225586	-0.541992	-0.023438	-0.384347	-0.543711	-0.599956	0.421875	0.855469	-0.046875	392	16_14_52_7745680
0.228516	-0.541992	-0.020508	-0.384347	-0.553085	-0.599956	0.445313	0.890625	-0.046875	393	16_14_52_7906970
0.228516	-0.544922	-0.023438	-0.374973	-0.553085	-0.599956	0.457031	0.890625	-0.046875	394	16_14_52_8068260
0.237305	-0.544922	-0.023438	-0.374973	-0.553085	-0.599956	0.433594	0.902344	-0.023438	395	16_14_52_8229550
0.231445	-0.550781	-0.017578	-0.374973	-0.553085	-0.599956	0.421875	0.925781	-0.023438	396	16_14_52_8390840
0.228516	-0.547852	-0.017578	-0.374973	-0.553085	-0.599956	0.515625	0.937500	0.000000	397	16_14_52_8552130
0.222656	-0.547852	-0.017578	-0.374973	-0.553085	-0.590582	0.445313	0.890625	-0.035156	398	16_14_52_8713420
0.225586	-0.544922	-0.014648	-0.374973	-0.553085	-0.599956	0.410156	0.902344	-0.011719	399	16_14_52_8874710
0.213867	-0.559570	-0.014648	-0.374973	-0.553085	-0.590582	0.421875	0.890625	0.000000	400	16_14_52_9036000
0.216797	-0.550781	-0.017578	-0.374973	-0.553085	-0.599956	0.445313	0.925781	-0.046875	401	16_14_52_9197290
0.234375	-0.544922	-0.014648	-0.374973	-0.543711	-0.599956	0.421875	0.960938	-0.035156	402	16_14_52_9358580
0.222656	-0.556641	-0.026367	-0.374973	-0.553085	-0.599956	0.445313	0.949219	-0.011719	403	16_14_52_9519870
0.240234	-0.544922	-0.020508	-0.374973	-0.553085	-0.599956	0.421875	0.902344	0.000000	404	16_14_52_9681160
0.225586	-0.550781	-0.008789	-0.384347	-0.553085	-0.590582	0.445313	0.914063	-0.035156	405	16_14_52_9842450
0.234375	-0.550781	-0.014648	-0.374973	-0.553085	-0.599956	0.433594	0.890625	-0.070313	406	16_14_53_0003740
0.225586	-0.539063	-0.020508	-0.374973	-0.553085	-0.599956	0.445313	0.902344	0.316406	407	16_14_53_0165030
0.219727	-0.541992	-0.020508	-0.374973	-0.543711	-0.599956	0.421875	0.855469	0.175781	408	16_14_53_0326320
0.231445	-0.544922	-0.020508	-0.374973	-0.553085	-0.599956	0.457031	0.867188	-0.035156	409	16_14_53_0487610
0.222656	-0.544922	-0.014648	-0.374973	-0.553085	-0.590582	0.445313	0.867188	-0.023438	410	16_14_53_0648900
0.228516	-0.539063	-0.017578	-0.374973	-0.553085	-0.590582	0.433594	0.914063	-0.011719	411	16_14_53_0810190
0.222656	-0.544922	-0.014648	-0.374973	-0.553085	-0.599956	0.433594	0.902344	-0.035156	412	16_14_53_0971480
0.234375	-0.544922	-0.020508	-0.384347	-0.553085	-0.599956	0.433594	0.914063	-0.035156	413	16_14_53_1132770
0.234375	-0.556641	-0.020508	-0.374973	-0.553085	-0.599956	0.984375	0.914063	0.140625	414	16_14_53_1294060
0.228516	-0.547852	-0.023438	-0.365598	-0.599956	-0.599956	0.914063	0.937500	0.128906	415	16_14_53_1455350
0.228516	-0.539063	-0.020508	-0.337475	-0.553085	-0.599956	0.421875	0.925781	-0.082031	416	16_14_53_1616640
0.222656	-0.541992	-0.023438	-0.374973	-0.553085	-0.599956	0.445313	0.914063	0.304688	417	16_14_53_1777930
0.222656	-0.556641	-0.014648	-0.374973	-0.562459	-0.599956	0.597656	0.925781	0.316406	418	16_14_53_1939220
0.234375	-0.556641	-0.026367	-0.374973	-0.553085	-0.599956	0.445313	0.902344	-0.058594	419	16_14_53_2100510
0.231445	-0.541992	-0.014648	-0.374973	-0.562459	-0.590582	0.445313	0.914063	-0.070313	420	16_14_53_2261800
0.231445	-0.544922	-0.017578	-0.374973	-0.553085	-0.599956	0.445313	0.855469	0.011719	421	16_14_53_2423090
0.228516	-0.556641	-0.011719	-0.374973	-0.553085	-0.599956	0.410156	0.890625	0.000000	422	16_14_53_2584380
0.234375	-0.544922	-0.014648	-0.346850	-0.553085	-0.599956	0.445313	0.914063	0.000000	423	16_14_53_2745670
0.234375	-0.539063	-0.023438	-0.374973	-0.543711	-0.599956	0.410156	0.902344	-0.070313	424	16_14_53_2906960
0.222656	-0.539063	-0.026367	-0.374973	-0.553085	-0.590582	0.457031	0.937500	-0.082031	425	16_14_53_3068250
0.231445	-0.547852	-0.023438	-0.374973	-0.553085	-0.590582	0.445313	0.925781	-0.046875	426	16_14_53_3229540
0.228516	-0.539063	-0.017578	-0.374973	-0.553085	-0.599956	0.445313	0.914063	0.000000	427	16_14_53_3390830
0.228516	-0.541992	-0.020508	-0.374973	-0.553085	-0.599956	0.410156	0.949219	0.011719	428	16_14_53_3552120
0.231445	-0.547852	-0.014648	-0.374973	-0.543711	-0.599956	0.421875	0.937500	-0.011719	429	16_14_53_3713410
0.213867	-0.544922	-0.020508	-0.374973	-0.543711	-0.599956	0.421875	0.914063	0.011719	430	16_14_53_3874700
0.231445	-0.547852	-0.020508	-0.374973	-0.553085	-0.599956	0.433594	0.890625	-0.046875	431	16_14_53_4035990
0.234375	-0.544922	-0.023438	-0.374973	-0.562459	-0.599956	0.667969	0.820313	0.058594	432	16_14_53_4197280
0.228516	-0.544922	-0.023438	-0.374973	-0.562459	-0.599956	0.421875	0.855469	0.035156	433	16_14_53_4358570
0.234375	-0.547852	-0.017578	-0.374973	-0.553085	-0.599956	0.914063	0.902344	0.152344	434	16_14_53_4519860
0.237305	-0.559570	-0.020508	-0.374973	-0.543711	-0.590582	0.445313	0.878906	0.000000	435	16_14_53_4681150
0.228516	-0.541992	-0.020508	-0.374973	-0.553085	-0.599956	0.445313	0.867188	0.011719	436	16_14_53_4842440
0.225586	-0.541992	-0.017578	-0.374973	-0.553085	-0.599956	0.445313	0.878906	-0.011719	437	16_14_53_5003730
0.225586	-0.556641	-0.011719	-0.374973	-0.553085	-0.599956	0.492188	0.925781	-0.035156	438	16_14_53_5165020
0.225586	-0.544922	-0.020508	-0.374973	-0.553085	-0.599956	0.445313	0.902344	-0.011719	439	16_14_53_5326310
0.240234	-0.544922	-0.014648	-0.374973	-0.553085	-0.599956	0.445313	0.890625	-0.035156	440	16_14_53_5487600
0.222656	-0.550781	-0.017578	-0.374973	-0.553085	-0.599956	0.609375	0.855469	0.023438	441	16_14_53_5648890
0.225586	-0.541992	-0.020508	-0.374973	-0.543711	-0.599956	0.832031	0.867188	0.093750	442	16_14_53_5810180
0.222656	-0.550781	-0.014648	-0.365598	-0.553085	-0.599956	0.726563	0.890625	0.070313	443	16_14_53_5971470
0.243164	-0.547852	-0.026367	-0.374973	-0.543711	-0.599956	0.750000	0.902344	0.105469	444	16_14_53_6132760
0.228516	-0.539063	-0.017578	-0.374973	-0.553085	-0.599956	0.410156	0.914063	0.011719	445	16_14_53_6294050
0.228516	-0.544922	-0.017578	-0.374973	-0.553085	-0.599956	0.972656	0.925781	0.281250	446	16_14_53_6455340
0.225586	-0.547852	-0.026367	-0.374973	-0.553085	-0.599956	0.445313	0.867188	-0.035156	447	16_14_53_6616630
0.231445	-0.544922	-0.026367	-0.374973	-0.553085	-0.599956	0.445313	0.902344	-0.011719	448	16_14_53_6777920
0.237305	-0.550781	-0.026367	-0.374973	-0.553085	-0.599956	0.445313	0.914063	-0.035156	449	16_14_53_6939210
0.234375	-0.541992	-0.020508	-0.384347	-0.553085	-0.599956	0.421875	0.890625	-0.046875	450	16_14_53_7100500
0.228516	-0.550781	-0.026367	-0.374973	-0.553085	-0.599956	0.445313	0.890625	0.000000	451	16_14_53_7261790
0.225586	-0.547852	-0.032227	-0.374973	-0.553085	-0.599956	0.609375	0.890625	0.023438	452	16_14_53_7423080
0.228516	-0.547852	-0.014648	-0.374973	-0.553085	-0.599956	0.457031	0.914063	-0.011719	453	16_14_53_7584370
0.240234	-0.541992	-0.029297	-0.374973	-0.553085	-0.599956	0.445313	0.878906	0.011719	454	16_14_53_7745660
0.228516	-0.541992	-0.017578	-0.374973	-0.553085	-0.599956	0.410156	0.914063	-0.011719	455	16_14_53_7906950
0.225586	-0.550781	-0.014648	-0.384347	-0.553085	-0.599956	0.457031	0.984375	0.023438	456	16_14_53_8068240
0.228516	-0.547852	-0.017578	-0.374973	-0.553085	-0.599956	0.445313	0.914063	0.011719	457	16_14_53_8229530
0.231445	-0.544922	-0.026367	-0.384347	-0.553085	-0.599956	0.468750	0.890625	-0.046875	458	16_14_53_8390820
0.237305	-0.550781	-0.026367	-0.374973	-0.543711	-0.599956	0.457031	0.902344	-0.058594	459	16_14_53_8552110
0.219727	-0.541992	-0.017578	-0.374973	-0.562459	-0.599956	0.410156	0.925781	0.222656	460	16_14_53_8713400
0.228516	-0.541992	-0.017578	-0.374973	-0.553085	-0.599956	0.433594	0.914063	0.035156	461	16_14_53_8874690
0.234375	-0.547852	-0.011719	-0.374973	-0.553085	-0.599956	0.480469	0.890625	0.046875	462	16_14_53_9035980
0.228516	-0.553711	-0.017578	-0.374973	-0.553085	-0.599956	0.691406	0.867188	0.023438	463	16_14_53_9197270
0.234375	-0.547852	-0.017578	-0.374973	-0.553085	-0.599956	0.445313	0.855469	-0.058594	464	16_14_53_9358560
0.234375	-0.536133	-0.026367	-0.374973	-0.562459	-0.599956	0.421875	0.855469	-0.011719	465	16_14_53_9519850
0.234375	-0.550781	-0.011719	-0.374973	-0.553085	-0.599956	0.421875	0.867188	-0.046875	466	16_14_53_9681140
0.234375	-0.547852	-0.020508	-0.384347	-0.543711	-0.599956	0.421875	0.925781	-0.070313	467	16_14_53_9842430
0.231445	-0.527344	-0.020508	-0.374973	-0.543711	-0.599956	0.433594	0.925781	-0.058594	468	16_14_54_0003720
0.231445	-0.547852	-0.017578	-0.384347	-0.553085	-0.599956	0.421875	0.914063	-0.046875	469	16_14_54_0165010
0.228516	-0.539063	-0.014648	-0.374973	-0.562459	-0.599956	0.433594	0.890625	-0.082031	470	16_14_54_0326300
0.234375	-0.541992	-0.023438	-0.374973	-0.553085	-0.581208	0.410156	0.878906	-0.058594	471	16_14_54_0487590
0.234375	-0.539063	-0.023438	-0.374973	-0.553085	-0.599956	0.421875	0.785156	-0.023438	472	16_14_54_0648880
0.237305	-0.533203	-0.026367	-0.374973	-0.553085	-0.599956	0.421875	0.890625	0.000000	473	16_14_54_0810170
0.234375	-0.547852	-0.017578	-0.374973	-0.543711	-0.599956	0.503906	0.902344	0.000000	474	16_14_54_0971460
0.231445	-0.547852	-0.014648	-0.374973	-0.553085	-0.599956	0.480469	0.914063	0.000000	475	16_14_54_1132750
0.225586	-0.544922	-0.008789	-0.374973	-0.553085	-0.599956	0.410156	0.925781	0.023438	476	16_14_54_1294040
0.228516	-0.544922	-0.008789	-0.365598	-0.553085	-0.599956	0.750000	0.902344	0.082031	477	16_14_54_1455330
0.225586	-0.541992	-0.020508	-0.374973	-0.553085	-0.590582	0.433594	0.925781	-0.011719	478	16_14_54_1616620
0.231445	-0.544922	-0.014648	-0.374973	-0.553085	-0.599956	0.609375	0.925781	0.351563	479	16_14_54_1777910
0.228516	-0.536133	-0.020508	-0.374973	-0.553085	-0.599956	0.445313	0.890625	-0.011719	480	16_14_54_1939200
0.228516	-0.550781	-0.017578	-0.374973	-0.562459	-0.599956	0.421875	0.878906	-0.046875	481	16_14_54_2100490
0.234375	-0.544922	-0.020508	-0.374973	-0.562459	-0.599956	0.585938	0.914063	0.011719	482	16_14_54_2261780
0.231445	-0.539063	-0.014648	-0.374973	-0.553085	-0.599956	0.421875	0.902344	-0.093750	483	16_14_54_2423070
0.228516	-0.533203	-0.020508	-0.374973	-0.553085	-0.599956	0.410156	0.890625	-0.046875	484	16_14_54_2584360
0.225586	-0.550781	-0.035156	-0.374973	-0.553085	-0.599956	0.445313	0.914063	-0.035156	485	16_14_54_2745650
0.240234	-0.553711	-0.017578	-0.374973	-0.553085	-0.599956	0.421875	0.878906	0.000000	486	16_14_54_2906940
0.234375	-0.541992	-0.026367	-0.374973	-0.543711	-0.599956	0.433594	0.937500	0.035156	487	16_14_54_3068230
0.228516	-0.533203	-0.026367	-0.374973	-0.553085	-0.599956	0.457031	0.914063	0.035156	488	16_14_54_3229520
0.237305	-0.547852	-0.020508	-0.365598	-0.543711	-0.599956	0.445313	0.855469	-0.011719	489	16_14_54_3390810
0.231445	-0.547852	-0.020508	-0.374973	-0.553085	-0.599956	0.421875	0.843750	-0.070313	490	16_14_54_3552100
0.234375	-0.539063	-0.023438	-0.374973	-0.553085	-0.599956	0.480469	0.902344	-0.011719	491	16_14_54_3713390
0.228516	-0.541992	-0.023438	-0.374973	-0.553085	-0.599956	0.433594	0.914063	0.011719	492	16_14_54_3874680
0.231445	-0.544922	-0.014648	-0.374973	-0.553085	-0.599956	0.609375	0.890625	0.023438	493	16_14_54_4035970
0.234375	-0.544922	-0.020508	-0.374973	-0.553085	-0.599956	0.421875	0.914063	-0.035156	494	16_14_54_4197260
0.228516	-0.547852	-0.023438	-0.374973	-0.553085	-0.599956	0.492188	0.843750	-0.023438	495	16_14_54_4358550
0.228516	-0.550781	-0.023438	-0.374973	-0.553085	-0.599956	0.410156	0.890625	-0.046875	496	16_14_54_4519840
0.228516	-0.544922	-0.014648	-0.374973	-0.553085	-0.599956	0.421875	0.867188	-0.058594	497	16_14_54_4681130
0.234375	-0.544922	-0.014648	-0.374973	-0.553085	-0.590582	0.750000	0.902344	0.035156	498	16_14_54_4842420
0.228516	-0.547852	-0.005859	-0.374973	-0.553085	-0.599956	0.457031	0.937500	-0.070313	499	16_14_54_5003710
0.237305	-0.550781	-0.011719	-0.374973	-0.553085	-0.599956	0.667969	0.914063	0.246094	500	16_14_54_5165000
0.234375	-0.556641	-0.023438	-0.374973	-0.553085	-0.590582	0.539063	0.914063	0.316406	501	16_14_54_5326290
0.231445	-0.547852	-0.020508	-0.374973	-0.562459	-0.590582	0.410156	0.878906	-0.035156	502	16_14_54_5487580
0.234375	-0.547852	-0.020508	-0.374973	-0.562459	-0.599956	0.421875	0.867188	0.011719	503	16_14_54_5648870
0.243164	-0.544922	-0.011719	-0.384347	-0.553085	-0.599956	0.445313	0.890625	-0.023438	504	16_14_54_5810160
0.222656	-0.559570	-0.008789	-0.374973	-0.543711	-0.599956	0.738281	0.914063	0.011719	505	16_14_54_5971450
0.228516	-0.544922	-0.023438	-0.374973	-0.553085	-0.599956	0.457031	0.867188	-0.023438	506	16_14_54_6132740
0.225586	-0.544922	-0.011719	-0.374973	-0.553085	-0.599956	0.445313	0.914063	-0.011719	507	16_14_54_6294030
0.228516	-0.539063	-0.020508	-0.384347	-0.562459	-0.599956	0.433594	0.925781	-0.011719	508	16_14_54_6455320
0.228516	-0.550781	-0.026367	-0.374973	-0.562459	-0.590582	0.421875	0.890625	-0.070313	509	16_14_54_6616610
0.240234	-0.553711	-0.017578	-0.374973	-0.553085	-0.599956	0.445313	0.832031	-0.058594	510	16_14_54_6777900
0.228516	-0.550781	-0.026367	-0.374973	-0.543711	-0.599956	0.468750	0.820313	0.000000	511	16_14_54_6939190
0.234375	-0.550781	-0.032227	-0.374973	-0.543711	-0.599956	0.398438	0.890625	-0.023438	512	16_14_54_7100480
0.222656	-0.550781	-0.014648	-0.374973	-0.553085	-0.599956	0.433594	0.878906	-0.035156	513	16_14_54_7261770
0.228516	-0.547852	-0.014648	-0.374973	-0.553085	-0.599956	0.410156	0.890625	-0.058594	514	16_14_54_7423060
0.225586	-0.544922	-0.014648	-0.374973	-0.553085	-0.599956	0.574219	0.867188	-0.035156	515	16_14_54_7584350
0.225586	-0.544922	-0.008789	-0.374973	-0.553085	-0.599956	0.457031	0.914063	-0.058594	516	16_14_54_7745640
0.225586	-0.541992	-0.014648	-0.374973	-0.553085	-0.599956	0.468750	0.843750	-0.082031	517	16_14_54_7906930
0.222656	-0.547852	-0.014648	-0.384347	-0.553085	-0.599956	0.421875	0.855469	-0.105469	518	16_14_54_8068220
0.228516	-0.541992	-0.008789	-0.374973	-0.553085	-0.590582	0.433594	0.914063	-0.070313	519	16_14_54_8229510
0.228516	-0.550781	-0.017578	-0.374973	-0.553085	-0.599956	0.503906	0.914063	0.035156	520	16_14_54_8390800
0.234375	-0.550781	-0.020508	-0.374973	-0.553085	-0.599956	0.445313	0.890625	-0.023438	521	16_14_54_8552090
0.231445	-0.553711	-0.017578	-0.384347	-0.553085	-0.599956	0.421875	0.937500	-0.046875	522	16_14_54_8713380
0.234375	-0.536133	-0.011719	-0.384347	-0.562459	-0.599956	0.457031	0.914063	-0.035156	523	16_14_54_8874670
0.231445	-0.536133	-0.020508	-0.374973	-0.562459	-0.599956	0.468750	0.914063	-0.070313	524	16_14_54_9035960
0.228516	-0.544922	-0.014648	-0.374973	-0.553085	-0.599956	0.457031	0.855469	-0.023438	525	16_14_54_9197250
0.234375	-0.539063	-0.026367	-0.374973	-0.553085	-0.599956	0.550781	0.855469	0.058594	526	16_14_54_9358540
0.234375	-0.544922	-0.023438	-0.374973	-0.553085	-0.599956	0.421875	0.832031	0.011719	527	16_14_54_9519830
0.234375	-0.547852	-0.020508	-0.374973	-0.553085	-0.599956	0.421875	0.820313	0.000000	528	16_14_54_9681120
0.237305	-0.544922	-0.020508	-0.374973	-0.553085	-0.599956	0.996094	0.890625	0.117188	529	16_14_54_9842410
0.222656	-0.547852	-0.029297	-0.374973	-0.553085	-0.599956	0.457031	0.890625	0.011719	530	16_14_55_0003700
0.246094	-0.541992	-0.011719	-0.374973	-0.553085	-0.599956	0.515625	0.890625	0.011719	531	16_14_55_0164990
0.234375	-0.547852	-0.014648	-0.374973	-0.553085	-0.599956	0.410156	0.890625	-0.058594	532	16_14_55_0326280
0.231445	-0.553711	-0.017578	-0.374973	-0.553085	-0.599956	0.445313	0.902344	-0.023438	533	16_14_55_0487570
0.234375	-0.544922	-0.011719	-0.374973	-0.553085	-0.590582	0.667969	0.902344	0.035156	534	16_14_55_0648860
0.228516	-0.539063	-0.014648	-0.384347	-0.553085	-0.599956	0.421875	0.867188	-0.058594	535	16_14_55_0810150
0.234375	-0.547852	-0.023438	-0.374973	-0.553085	-0.599956	0.457031	0.914063	-0.035156	536	16_14_55_0971440
0.231445	-0.544922	-0.020508	-0.374973	-0.553085	-0.599956	0.421875	0.914063	-0.035156	537	16_14_55_1132730
0.231445	-0.547852	-0.014648	-0.374973	-0.562459	-0.599956	0.457031	0.914063	-0.023438	538	16_14_55_1294020
0.234375	-0.544922	-0.011719	-0.365598	-0.553085	-0.599956	0.445313	0.914063	-0.058594	539	16_14_55_1455310
0.231445	-0.539063	-0.020508	-0.365598	-0.553085	-0.599956	0.433594	0.867188	-0.058594	540	16_14_55_1616600
0.228516	-0.547852	-0.017578	-0.374973	-0.553085	-0.590582	0.433594	0.902344	-0.035156	541	16_14_55_1777890
0.225586	-0.550781	-0.014648	-0.374973	-0.562459	-0.590582	0.457031	0.890625	0.339844	542	16_14_55_1939180
0.228516	-0.556641	-0.020508	-0.384347	-0.553085	-0.590582	0.480469	0.914063	-0.011719	543	16_14_55_2100470
0.228516	-0.544922	-0.011719	-0.374973	-0.553085	-0.599956	0.421875	0.867188	0.152344	544	16_14_55_2261760
0.222656	-0.541992	-0.026367	-0.374973	-0.553085	-0.599956	0.433594	0.843750	-0.046875	545	16_14_55_2423050
0.225586	-0.541992	-0.014648	-0.384347	-0.553085	-0.599956	0.468750	0.890625	-0.035156	546	16_14_55_2584340
0.228516	-0.536133	-0.020508	-0.374973	-0.562459	-0.590582	0.468750	0.890625	-0.011719	547	16_14_55_2745630
0.231445	-0.547852	-0.017578	-0.384347	-0.562459	-0.599956	0.410156	0.855469	0.000000	548	16_14_55_2906920
0.240234	-0.556641	-0.023438	-0.384347	-0.562459	-0.599956	0.492188	0.867188	-0.011719	549	16_14_55_3068210
0.228516	-0.541992	-0.023438	-0.374973	-0.553085	-0.599956	0.445313	0.890625	-0.023438	550	16_14_55_3229500
0.228516	-0.553711	-0.017578	-0.374973	-0.553085	-0.599956	0.445313	0.890625	-0.011719	551	16_14_55_3390790
0.234375	-0.541992	-0.026367	-0.384347	-0.562459	-0.590582	0.433594	0.890625	0.000000	552	16_14_55_3552080
0.222656	-0.556641	-0.014648	-0.374973	-0.553085	-0.599956	0.433594	0.820313	-0.023438	553	16_14_55_3713370
0.234375	-0.541992	-0.014648	-0.374973	-0.562459	-0.590582	0.457031	0.878906	-0.082031	554	16_14_55_3874660
0.234375	-0.559570	-0.008789	-0.374973	-0.562459	-0.599956	0.445313	0.914063	-0.046875	555	16_14_55_4035950
0.237305	-0.556641	-0.008789	-0.374973	-0.553085	-0.590582	0.457031	0.867188	-0.023438	556	16_14_55_4197240
0.231445	-0.541992	-0.023438	-0.384347	-0.553085	-0.590582	0.433594	0.832031	-0.046875	557	16_14_55_4358530
0.225586	-0.547852	-0.020508	-0.374973	-0.562459	-0.590582	0.410156	0.890625	-0.035156	558	16_14_55_4519820
0.237305	-0.544922	-0.014648	-0.374973	-0.562459	-0.590582	0.468750	0.902344	-0.058594	559	16_14_55_4681110
0.246094	-0.550781	-0.008789	-0.384347	-0.562459	-0.590582	0.445313	0.914063	-0.082031	560	16_14_55_4842400
0.234375	-0.550781	-0.023438	-0.384347	-0.553085	-0.599956	0.457031	0.867188	-0.093750	561	16_14_55_5003690
0.237305	-0.536133	-0.020508	-0.384347	-0.562459	-0.590582	0.445313	0.867188	-0.082031	562	16_14_55_5164980
0.237305	-0.536133	-0.017578	-0.384347	-0.562459	-0.590582	0.457031	0.914063	-0.011719	563	16_14_55_5326270
0.225586	-0.530273	-0.026367	-0.374973	-0.562459	-0.599956	0.410156	0.949219	-0.023438	564	16_14_55_5487560
0.240234	-0.544922	-0.017578	-0.374973	-0.562459	-0.590582	0.609375	0.914063	0.082031	565	16_14_55_5648850
0.228516	-0.544922	-0.011719	-0.374973	-0.562459	-0.590582	0.492188	0.937500	-0.070313	566	16_14_55_5810140
0.243164	-0.536133	-0.026367	-0.374973	-0.553085	-0.599956	0.457031	0.937500	-0.023438	567	16_14_55_5971430
0.234375	-0.541992	-0.017578	-0.374973	-0.553085	-0.599956	0.421875	0.937500	0.000000	568	16_14_55_6132720
0.225586	-0.541992	-0.017578	-0.365598	-0.543711	-0.599956	0.738281	0.937500	0.082031	569	16_14_55_6294010
0.237305	-0.556641	-0.020508	-0.365598	-0.553085	-0.599956	0.445313	0.949219	0.011719	570	16_14_55_6455300
0.234375	-0.556641	-0.014648	-0.374973	-0.553085	-0.599956	0.925781	0.949219	0.187500	571	16_14_55_6616590
0.228516	-0.539063	-0.014648	-0.365598	-0.553085	-0.599956	0.480469	0.914063	0.000000	572	16_14_55_6777880
0.228516	-0.544922	-0.014648	-0.365598	-0.553085	-0.590582	0.457031	0.843750	-0.046875	573	16_14_55_6939170
0.225586	-0.544922	-0.026367	-0.365598	-0.553085	-0.590582	0.445313	0.867188	-0.046875	574	16_14_55_7100460
0.228516	-0.544922	-0.020508	-0.374973	-0.543711	-0.590582	0.445313	0.832031	-0.046875	575	16_14_55_7261750
0.234375	-0.544922	-0.017578	-0.365598	-0.553085	-0.599956	0.433594	0.773438	-0.058594	576	16_14_55_7423040
0.237305	-0.547852	-0.017578	-0.365598	-0.562459	-0.599956	0.457031	0.855469	-0.035156	577	16_14_55_7584330
0.234375	-0.539063	-0.029297	-0.384347	-0.553085	-0.599956	0.421875	0.878906	-0.046875	578	16_14_55_7745620
0.237305	-0.550781	-0.008789	-0.374973	-0.553085	-0.599956	0.457031	0.925781	-0.011719	579	16_14_55_7906910
0.234375	-0.530273	-0.011719	-0.374973	-0.553085	-0.599956	0.832031	0.890625	0.187500	580	16_14_55_8068200
0.240234	-0.530273	-0.014648	-0.374973	-0.553085	-0.599956	0.410156	0.867188	0.011719	581	16_14_55_8229490
0.231445	-0.536133	-0.008789	-0.374973	-0.553085	-0.599956	0.914063	0.890625	0.152344	582	16_14_55_8390780
0.234375	-0.539063	-0.020508	-0.374973	-0.553085	-0.599956	0.738281	0.867188	0.246094	583	16_14_55_8552070
0.225586	-0.539063	-0.026367	-0.374973	-0.553085	-0.599956	0.468750	0.902344	-0.035156	584	16_14_55_8713360
0.234375	-0.544922	-0.020508	-0.374973	-0.553085	-0.590582	0.421875	0.878906	0.222656	585	16_14_55_8874650
0.225586	-0.544922	-0.020508	-0.365598	-0.562459	-0.590582	0.421875	0.855469	0.070313	586	16_14_55_9035940
0.240234	-0.536133	-0.026367	-0.365598	-0.562459	-0.590582	0.433594	0.890625	-0.035156	587	16_14_55_9197230
0.237305	-0.533203	-0.020508	-0.365598	-0.553085	-0.599956	0.550781	0.867188	0.035156	588	16_14_55_9358520
0.240234	-0.533203	-0.020508	-0.374973	-0.553085	-0.599956	0.421875	0.914063	0.000000	589	16_14_55_9519810
0.234375	-0.544922	-0.011719	-0.374973	-0.553085	-0.599956	0.480469	0.914063	-0.023438	590	16_14_55_9681100
0.240234	-0.527344	-0.014648	-0.374973	-0.553085	-0.599956	0.468750	0.855469	-0.035156	591	16_14_55_9842390
0.228516	-0.547852	-0.020508	-0.374973	-0.553085	-0.599956	0.937500	0.808594	0.292969	592	16_14_56_0003680
0.228516	-0.544922	-0.008789	-0.374973	-0.553085	-0.590582	0.445313	0.867188	-0.023438	593	16_14_56_0164970
0.234375	-0.539063	-0.014648	-0.374973	-0.553085	-0.599956	0.468750	0.890625	-0.011719	594	16_14_56_0326260
0.234375	-0.544922	-0.026367	-0.374973	-0.543711	-0.599956	0.445313	0.890625	-0.046875	595	16_14_56_0487550
0.225586	-0.550781	-0.023438	-0.374973	-0.553085	-0.599956	0.445313	0.937500	-0.058594	596	16_14_56_0648840
0.231445	-0.533203	-0.020508	-0.374973	-0.562459	-0.599956	0.421875	0.914063	-0.046875	597	16_14_56_0810130
0.234375	-0.536133	-0.023438	-0.374973	-0.553085	-0.599956	0.410156	0.937500	-0.011719	598	16_14_56_0971420
0.228516	-0.541992	-0.026367	-0.374973	-0.553085	-0.590582	0.410156	0.937500	0.000000	599	16_14_56_1132710
0.240234	-0.536133	-0.023438	-0.374973	-0.553085	-0.599956	0.421875	0.902344	-0.046875	600	16_14_56_1294000
0.228516	-0.539063	-0.014648	-0.374973	-0.543711	-0.599956	0.667969	0.867188	0.023438	601	16_14_56_1455290
0.243164	-0.539063	-0.020508	-0.365598	-0.553085	-0.599956	0.457031	0.855469	-0.035156	602	16_14_56_1616580
0.243164	-0.533203	-0.023438	-0.365598	-0.553085	-0.599956	0.457031	0.937500	-0.046875	603	16_14_56_1777870
0.240234	-0.550781	-0.014648	-0.374973	-0.543711	-0.599956	0.667969	0.914063	0.093750	604	16_14_56_1939160
0.237305	-0.544922	-0.017578	-0.365598	-0.543711	-0.599956	0.468750	0.878906	-0.035156	605	16_14_56_2100450
0.249023	-0.544922	-0.014648	-0.365598	-0.553085	-0.599956	0.410156	0.902344	-0.023438	606	16_14_56_2261740
0.222656	-0.541992	-0.014648	-0.374973	-0.553085	-0.599956	0.433594	0.914063	-0.058594	607	16_14_56_2423030
0.219727	-0.544922	-0.017578	-0.374973	-0.553085	-0.599956	0.421875	0.902344	0.000000	608	16_14_56_2584320
0.234375	-0.544922	-0.020508	-0.374973	-0.553085	-0.590582	0.480469	0.890625	0.046875	609	16_14_56_2745610
0.243164	-0.550781	-0.020508	-0.374973	-0.553085	-0.599956	0.433594	0.890625	0.046875	610	16_14_56_2906900
0.240234	-0.533203	-0.017578	-0.374973	-0.543711	-0.599956	0.468750	0.855469	-0.011719	611	16_14_56_3068190
0.240234	-0.533203	-0.023438	-0.374973	-0.553085	-0.599956	0.457031	0.867188	-0.011719	612	16_14_56_3229480
0.237305	-0.544922	-0.017578	-0.365598	-0.543711	-0.599956	0.714844	0.914063	0.093750	613	16_14_56_3390770
0.231445	-0.544922	-0.026367	-0.365598	-0.553085	-0.590582	0.433594	0.937500	-0.011719	614	16_14_56_3552060
0.249023	-0.544922	-0.020508	-0.365598	-0.553085	-0.599956	0.445313	0.890625	0.011719	615	16_14_56_3713350
0.246094	-0.547852	-0.026367	-0.365598	-0.553085	-0.599956	0.457031	0.867188	0.000000	616	16_14_56_3874640
0.246094	-0.544922	-0.029297	-0.374973	-0.553085	-0.590582	0.445313	0.867188	-0.058594	617	16_14_56_4035930
0.240234	-0.547852	-0.014648	-0.365598	-0.543711	-0.599956	0.667969	0.925781	-0.011719	618	16_14_56_4197220
0.234375	-0.544922	-0.026367	-0.374973	-0.543711	-0.599956	0.421875	0.890625	-0.082031	619	16_14_56_4358510
0.234375	-0.539063	-0.020508	-0.374973	-0.543711	-0.590582	0.445313	0.867188	-0.046875	620	16_14_56_4519800
0.222656	-0.536133	-0.026367	-0.374973	-0.553085	-0.599956	0.445313	0.773438	-0.035156	621	16_14_56_4681090
0.234375	-0.556641	-0.023438	-0.374973	-0.553085	-0.590582	0.410156	0.867188	-0.058594	622	16_14_56_4842380
0.243164	-0.541992	-0.020508	-0.374973	-0.553085	-0.599956	0.433594	0.914063	-0.035156	623	16_14_56_5003670
0.228516	-0.547852	-0.023438	-0.374973	-0.553085	-0.599956	0.433594	0.925781	-0.046875	624	16_14_56_5164960
0.228516	-0.559570	-0.035156	-0.374973	-0.543711	-0.599956	0.433594	0.902344	-0.058594	625	16_14_56_5326250
0.231445	-0.539063	-0.020508	-0.374973	-0.543711	-0.599956	0.421875	0.902344	0.304688	626	16_14_56_5487540
0.228516	-0.539063	-0.026367	-0.365598	-0.553085	-0.599956	0.457031	0.878906	-0.058594	627	16_14_56_5648830
0.225586	-0.536133	-0.017578	-0.374973	-0.553085	-0.609331	0.480469	0.867188	-0.058594	628	16_14_56_5810120
0.246094	-0.544922	-0.014648	-0.374973	-0.562459	-0.599956	0.445313	0.855469	-0.046875	629	16_14_56_5971410
0.225586	-0.541992	-0.020508	-0.365598	-0.553085	-0.599956	0.703125	0.890625	0.058594	630	16_14_56_6132700
0.228516	-0.539063	-0.020508	-0.374973	-0.553085	-0.599956	0.421875	0.902344	0.011719	631	16_14_56_6293990
0.234375	-0.544922	-0.026367	-0.374973	-0.553085	-0.599956	0.492188	0.937500	-0.011719	632	16_14_56_6455280
0.237305	-0.547852	-0.029297	-0.374973	-0.543711	-0.599956	0.410156	0.914063	-0.058594	633	16_14_56_6616570
0.237305	-0.547852	-0.020508	-0.374973	-0.553085	-0.599956	0.410156	0.890625	-0.046875	634	16_14_56_6777860
0.234375	-0.556641	-0.020508	-0.374973	-0.543711	-0.599956	0.773438	0.832031	0.281250	635	16_14_56_6939150
0.225586	-0.539063	-0.026367	-0.374973	-0.553085	-0.599956	0.457031	0.878906	0.000000	636	16_14_56_7100440
0.234375	-0.536133	-0.023438	-0.374973	-0.543711	-0.599956	0.445313	0.937500	0.234375	637	16_14_56_7261730
0.225586	-0.544922	-0.020508	-0.374973	-0.553085	-0.599956	0.457031	0.937500	-0.023438	638	16_14_56_7423020
0.231445	-0.541992	-0.026367	-0.374973	-0.553085	-0.599956	0.492188	0.925781	-0.011719	639	16_14_56_7584310
0.240234	-0.544922	-0.023438	-0.374973	-0.553085	-0.599956	0.492188	0.972656	-0.035156	640	16_14_56_7745600
0.234375	-0.544922	-0.023438	-0.365598	-0.543711	-0.599956	0.691406	0.914063	0.011719	641	16_14_56_7906890
0.228516	-0.541992	-0.020508	-0.374973	-0.543711	-0.599956	0.468750	0.890625	-0.093750	642	16_14_56_8068180
0.228516	-0.539063	-0.020508	-0.365598	-0.543711	-0.599956	0.457031	0.867188	-0.128906	643	16_14_56_8229470
0.240234	-0.539063	-0.014648	-0.365598	-0.553085	-0.599956	0.492188	0.867188	-0.058594	644	16_14_56_8390760
0.228516	-0.536133	-0.023438	-0.365598	-0.553085	-0.599956	0.457031	0.878906	-0.011719	645	16_14_56_8552050
0.234375	-0.541992	-0.026367	-0.374973	-0.553085	-0.599956	0.433594	0.914063	-0.035156	646	16_14_56_8713340
0.237305	-0.544922	-0.017578	-0.374973	-0.553085	-0.599956	0.445313	0.937500	0.292969	647	16_14_56_8874630
0.228516	-0.550781	-0.032227	-0.374973	-0.543711	-0.599956	0.433594	0.937500	-0.011719	648	16_14_56_9035920
0.228516	-0.544922	-0.023438	-0.374973	-0.553085	-0.599956	0.445313	0.902344	-0.058594	649	16_14_56_9197210
0.219727	-0.536133	-0.026367	-0.365598	-0.553085	-0.599956	0.656250	0.878906	0.046875	650	16_14_56_9358500
0.237305	-0.541992	-0.023438	-0.365598	-0.553085	-0.599956	0.410156	0.867188	0.035156	651	16_14_56_9519790
0.231445	-0.533203	-0.020508	-0.374973	-0.543711	-0.599956	0.410156	0.937500	0.000000	652	16_14_56_9681080
0.228516	-0.539063	-0.020508	-0.365598	-0.553085	-0.599956	0.492188	0.914063	-0.011719	653	16_14_56_9842370
0.225586	-0.544922	-0.026367	-0.374973	-0.562459	-0.599956	0.421875	0.902344	0.011719	654	16_14_57_0003660
0.237305	-0.550781	-0.023438	-0.365598	-0.553085	-0.599956	0.960938	0.960938	0.246094	655	16_14_57_0164950
0.240234	-0.550781	-0.014648	-0.374973	-0.553085	-0.599956	0.468750	0.890625	-0.023438	656	16_14_57_0326240
0.228516	-0.562500	-0.026367	-0.365598	-0.543711	-0.599956	0.421875	0.855469	-0.058594	657	16_14_57_0487530
0.234375	-0.553711	-0.032227	-0.374973	-0.553085	-0.599956	0.445313	0.914063	-0.035156	658	16_14_57_0648820
0.228516	-0.536133	-0.020508	-0.374973	-0.562459	-0.590582	0.410156	0.937500	-0.058594	659	16_14_57_0810110
0.225586	-0.541992	-0.020508	-0.374973	-0.562459	-0.599956	0.457031	0.878906	-0.058594	660	16_14_57_0971400
0.237305	-0.544922	-0.023438	-0.365598	-0.562459	-0.599956	0.480469	0.937500	-0.046875	661	16_14_57_1132690
0.240234	-0.541992	-0.026367	-0.374973	-0.553085	-0.599956	0.480469	0.937500	-0.011719	662	16_14_57_1293980
0.231445	-0.547852	-0.023438	-0.374973	-0.543711	-0.599956	0.433594	0.914063	0.011719	663	16_14_57_1455270
0.228516	-0.553711	-0.032227	-0.374973	-0.553085	-0.599956	0.445313	0.843750	-0.070313	664	16_14_57_1616560
0.219727	-0.550781	-0.035156	-0.374973	-0.553085	-0.599956	0.433594	0.855469	-0.058594	665	16_14_57_1777850
0.234375	-0.550781	-0.029297	-0.365598	-0.562459	-0.590582	0.785156	0.972656	0.281250	666	16_14_57_1939140
0.237305	-0.544922	-0.020508	-0.365598	-0.553085	-0.599956	0.527344	0.890625	0.480469	667	16_14_57_2100430
0.234375	-0.541992	-0.014648	-0.374973	-0.553085	-0.599956	0.433594	0.843750	-0.011719	668	16_14_57_2261720
0.231445	-0.559570	-0.020508	-0.374973	-0.553085	-0.599956	0.445313	0.914063	-0.035156	669	16_14_57_2423010
0.240234	-0.544922	-0.026367	-0.374973	-0.553085	-0.599956	0.585938	0.914063	0.011719	670	16_14_57_2584300
0.228516	-0.544922	-0.026367	-0.374973	-0.553085	-0.599956	0.656250	0.902344	0.046875	671	16_14_57_2745590
0.240234	-0.544922	-0.020508	-0.374973	-0.562459	-0.590582	0.398438	0.890625	-0.011719	672	16_14_57_2906880
0.234375	-0.544922	-0.014648	-0.374973	-0.562459	-0.599956	0.457031	0.937500	0.011719	673	16_14_57_3068170
0.240234	-0.553711	-0.026367	-0.374973	-0.553085	-0.599956	0.832031	0.949219	0.164063	674	16_14_57_3229460
0.231445	-0.547852	-0.035156	-0.374973	-0.553085	-0.590582	0.480469	0.878906	0.011719	675	16_14_57_3390750
0.237305	-0.536133	-0.026367	-0.374973	-0.553085	-0.599956	0.878906	0.867188	0.199219	676	16_14_57_3552040
0.234375	-0.544922	-0.026367	-0.374973	-0.553085	-0.590582	0.410156	0.902344	-0.035156	677	16_14_57_3713330
0.243164	-0.547852	-0.029297	-0.374973	-0.553085	-0.590582	0.433594	0.925781	-0.011719	678	16_14_57_3874620
0.237305	-0.533203	-0.026367	-0.374973	-0.562459	-0.599956	0.433594	0.937500	0.011719	679	16_14_57_4035910
0.237305	-0.544922	-0.020508	-0.374973	-0.553085	-0.599956	0.410156	0.937500	0.035156	680	16_14_57_4197200
0.231445	-0.539063	-0.035156	-0.374973	-0.553085	-0.590582	0.457031	0.902344	0.035156	681	16_14_57_4358490
0.240234	-0.541992	-0.017578	-0.374973	-0.562459	-0.590582	0.632813	0.890625	0.093750	682	16_14_57_4519780
0.237305	-0.541992	-0.026367	-0.374973	-0.562459	-0.599956	0.445313	0.855469	0.011719	683	16_14_57_4681070
0.234375	-0.547852	-0.026367	-0.374973	-0.562459	-0.599956	0.785156	0.855469	0.035156	684	16_14_57_4842360
0.225586	-0.541992	-0.020508	-0.374973	-0.562459	-0.599956	0.914063	0.890625	0.117188	685	16_14_57_5003650
0.231445	-0.536133	-0.032227	-0.374973	-0.553085	-0.599956	0.480469	0.914063	-0.011719	686	16_14_57_5164940
0.234375	-0.547852	-0.026367	-0.374973	-0.553085	-0.599956	0.445313	0.937500	-0.023438	687	16_14_57_5326230
0.240234	-0.539063	-0.026367	-0.374973	-0.553085	-0.599956	0.503906	0.925781	-0.035156	688	16_14_57_5487520
0.231445	-0.539063	-0.029297	-0.374973	-0.562459	-0.599956	0.410156	0.902344	0.257813	689	16_14_57_5648810
0.237305	-0.533203	-0.029297	-0.374973	-0.571833	-0.590582	0.468750	0.914063	0.011719	690	16_14_57_5810100
0.246094	-0.544922	-0.020508	-0.374973	-0.562459	-0.599956	0.457031	0.890625	-0.023438	691	16_14_57_5971390
0.251953	-0.547852	-0.020508	-0.374973	-0.543711	-0.599956	0.410156	0.867188	-0.058594	692	16_14_57_6132680
0.228516	-0.539063	-0.035156	-0.384347	-0.543711	-0.599956	0.457031	0.855469	-0.046875	693	16_14_57_6293970
0.225586	-0.541992	-0.038086	-0.374973	-0.553085	-0.599956	0.410156	0.902344	-0.035156	694	16_14_57_6455260
0.228516	-0.541992	-0.038086	-0.374973	-0.562459	-0.590582	0.480469	0.820313	-0.035156	695	16_14_57_6616550
0.246094	-0.536133	-0.032227	-0.374973	-0.562459	-0.590582	0.925781	0.820313	0.164063	696	16_14_57_6777840
0.240234	-0.541992	-0.029297	-0.374973	-0.562459	-0.599956	0.480469	0.867188	0.023438	697	16_14_57_6939130
0.240234	-0.536133	-0.026367	-0.374973	-0.553085	-0.599956	0.433594	0.925781	-0.011719	698	16_14_57_7100420
0.231445	-0.544922	-0.020508	-0.374973	-0.553085	-0.599956	0.433594	0.890625	0.011719	699	16_14_57_7261710
0.231445	-0.547852	-0.029297	-0.374973	-0.543711	-0.599956	0.503906	0.867188	0.046875	700	16_14_57_7423000
0.225586	-0.550781	-0.029297	-0.374973	-0.562459	-0.599956	0.480469	0.925781	0.023438	701	16_14_57_7584290
0.240234	-0.536133	-0.026367	-0.374973	-0.562459	-0.599956	0.421875	0.925781	0.011719	702	16_14_57_7745580
0.246094	-0.539063	-0.023438	-0.365598	-0.562459	-0.599956	0.480469	0.878906	-0.058594	703	16_14_57_7906870
0.231445	-0.547852	-0.020508	-0.374973	-0.543711	-0.599956	0.433594	0.867188	-0.082031	704	16_14_57_8068160
0.234375	-0.539063	-0.032227	-0.374973	-0.553085	-0.599956	0.855469	0.878906	0.105469	705	16_14_57_8229450
0.228516	-0.536133	-0.026367	-0.374973	-0.553085	-0.590582	0.445313	0.925781	0.011719	706	16_14_57_8390740
0.234375	-0.541992	-0.023438	-0.374973	-0.553085	-0.599956	0.410156	0.914063	-0.035156	707	16_14_57_8552030
0.240234	-0.550781	-0.026367	-0.374973	-0.553085	-0.599956	0.527344	0.914063	-0.011719	708	16_14_57_8713320
0.240234	-0.547852	-0.029297	-0.374973	-0.553085	-0.599956	0.433594	0.914063	0.000000	709	16_14_57_8874610
0.234375	-0.541992	-0.020508	-0.374973	-0.562459	-0.599956	0.457031	0.914063	-0.023438	710	16_14_57_9035900
0.231445	-0.539063	-0.026367	-0.365598	-0.553085	-0.590582	0.574219	0.914063	0.035156	711	16_14_57_9197190
0.237305	-0.536133	-0.020508	-0.374973	-0.562459	-0.599956	0.433594	0.902344	-0.023438	712	16_14_57_9358480
0.234375	-0.541992	-0.023438	-0.374973	-0.562459	-0.599956	0.585938	0.925781	-0.011719	713	16_14_57_9519770
0.234375	-0.544922	-0.029297	-0.374973	-0.553085	-0.599956	0.433594	0.867188	-0.058594	714	16_14_57_9681060
0.240234	-0.541992	-0.038086	-0.374973	-0.553085	-0.599956	0.855469	0.878906	0.082031	715	16_14_57_9842350
0.234375	-0.544922	-0.029297	-0.374973	-0.553085	-0.599956	0.410156	0.925781	-0.035156	716	16_14_58_0003640
0.240234	-0.550781	-0.035156	-0.374973	-0.553085	-0.599956	0.445313	0.914063	-0.035156	717	16_14_58_0164930
0.228516	-0.547852	-0.032227	-0.374973	-0.553085	-0.599956	0.433594	0.890625	-0.035156	718	16_14_58_0326220
0.234375	-0.544922	-0.029297	-0.374973	-0.553085	-0.599956	0.585938	0.960938	0.281250	719	16_14_58_0487510
0.240234	-0.544922	-0.032227	-0.374973	-0.553085	-0.599956	0.445313	0.902344	-0.070313	720	16_14_58_0648800
0.237305	-0.533203	-0.026367	-0.374973	-0.553085	-0.599956	0.527344	0.914063	0.199219	721	16_14_58_0810090
0.237305	-0.547852	-0.029297	-0.374973	-0.553085	-0.599956	0.457031	0.937500	-0.023438	722	16_14_58_0971380
0.243164	-0.536133	-0.020508	-0.374973	-0.553085	-0.599956	0.445313	0.878906	0.000000	723	16_14_58_1132670
0.234375	-0.541992	-0.026367	-0.365598	-0.553085	-0.599956	0.445313	0.878906	-0.011719	724	16_14_58_1293960
0.228516	-0.539063	-0.035156	-0.374973	-0.553085	-0.599956	0.421875	0.925781	-0.011719	725	16_14_58_1455250
0.231445	-0.544922	-0.029297	-0.374973	-0.562459	-0.590582	0.457031	0.914063	-0.011719	726	16_14_58_1616540
0.240234	-0.541992	-0.026367	-0.374973	-0.562459	-0.599956	0.480469	0.855469	-0.011719	727	16_14_58_1777830
0.240234	-0.544922	-0.023438	-0.374973	-0.553085	-0.599956	0.468750	0.867188	-0.011719	728	16_14_58_1939120
0.231445	-0.553711	-0.020508	-0.374973	-0.543711	-0.609331	0.597656	0.914063	0.046875	729	16_14_58_2100410
0.228516	-0.539063	-0.026367	-0.374973	-0.553085	-0.599956	0.433594	0.867188	0.011719	730	16_14_58_2261700
0.234375	-0.544922	-0.020508	-0.374973	-0.562459	-0.599956	0.457031	0.890625	-0.011719	731	16_14_58_2422990
0.240234	-0.541992	-0.026367	-0.374973	-0.562459	-0.599956	0.539063	0.890625	0.023438	732	16_14_58_2584280
0.240234	-0.539063	-0.026367	-0.384347	-0.562459	-0.599956	0.445313	0.855469	-0.023438	733	16_14_58_2745570
0.234375	-0.544922	-0.032227	-0.365598	-0.553085	-0.599956	0.750000	0.878906	0.058594	734	16_14_58_2906860
0.231445	-0.547852	-0.026367	-0.374973	-0.553085	-0.599956	0.445313	0.867188	-0.070313	735	16_14_58_3068150
0.222656	-0.544922	-0.020508	-0.374973	-0.553085	-0.599956	0.421875	0.890625	-0.058594	736	16_14_58_3229440
0.231445	-0.544922	-0.035156	-0.374973	-0.562459	-0.599956	0.492188	0.902344	-0.046875	737	16_14_58_3390730
0.231445	-0.547852	-0.023438	-0.374973	-0.562459	-0.599956	0.445313	0.820313	-0.058594	738	16_14_58_3552020
0.237305	-0.539063	-0.029297	-0.374973	-0.562459	-0.599956	0.410156	0.820313	-0.023438	739	16_14_58_3713310
0.237305	-0.547852	-0.020508	-0.374973	-0.553085	-0.599956	0.445313	0.867188	-0.023438	740	16_14_58_3874600
0.237305	-0.541992	-0.023438	-0.374973	-0.562459	-0.599956	0.609375	0.914063	-0.035156	741	16_14_58_4035890
0.240234	-0.544922	-0.026367	-0.365598	-0.553085	-0.590582	0.421875	0.867188	-0.058594	742	16_14_58_4197180
0.234375	-0.544922	-0.032227	-0.374973	-0.553085	-0.599956	0.445313	0.914063	-0.058594	743	16_14_58_4358470
0.240234	-0.536133	-0.020508	-0.374973	-0.562459	-0.599956	0.468750	0.867188	-0.035156	744	16_14_58_4519760
0.231445	-0.556641	-0.023438	-0.374973	-0.562459	-0.599956	0.457031	0.937500	-0.011719	745	16_14_58_4681050
0.234375	-0.544922	-0.020508	-0.384347	-0.553085	-0.599956	0.750000	0.937500	0.082031	746	16_14_58_4842340
0.228516	-0.544922	-0.032227	-0.384347	-0.553085	-0.599956	0.410156	0.890625	-0.058594	747	16_14_58_5003630
0.240234	-0.544922	-0.032227	-0.374973	-0.553085	-0.599956	0.421875	0.890625	-0.023438	748	16_14_58_5164920
0.243164	-0.544922	-0.029297	-0.374973	-0.562459	-0.590582	0.433594	0.890625	0.000000	749	16_14_58_5326210
0.240234	-0.536133	-0.026367	-0.374973	-0.562459	-0.599956	0.398438	0.867188	-0.011719	750	16_14_58_5487500
0.240234	-0.536133	-0.026367	-0.374973	-0.553085	-0.599956	0.421875	0.855469	0.175781	751	16_14_58_5648790
0.231445	-0.539063	-0.038086	-0.374973	-0.553085	-0.599956	0.457031	0.878906	-0.023438	752	16_14_58_5810080
0.240234	-0.536133	-0.038086	-0.374973	-0.553085	-0.599956	0.421875	0.855469	-0.035156	753	16_14_58_5971370
0.240234	-0.544922	-0.032227	-0.365598	-0.571833	-0.599956	0.480469	0.867188	-0.011719	754	16_14_58_6132660
0.240234	-0.547852	-0.032227	-0.374973	-0.553085	-0.599956	0.445313	0.914063	0.011719	755	16_14_58_6293950
0.237305	-0.550781	-0.026367	-0.374973	-0.562459	-0.599956	0.457031	0.902344	-0.035156	756	16_14_58_6455240
0.234375	-0.533203	-0.026367	-0.374973	-0.553085	-0.599956	0.421875	0.902344	-0.046875	757	16_14_58_6616530
0.234375	-0.547852	-0.020508	-0.374973	-0.553085	-0.599956	0.949219	0.867188	0.128906	758	16_14_58_6777820
0.231445	-0.541992	-0.014648	-0.365598	-0.543711	-0.599956	0.937500	0.890625	0.152344	759	16_14_58_6939110
0.237305	-0.544922	-0.026367	-0.374973	-0.553085	-0.590582	0.468750	0.867188	0.011719	760	16_14_58_7100400
0.234375	-0.550781	-0.026367	-0.374973	-0.562459	-0.599956	0.457031	0.890625	0.023438	761	16_14_58_7261690
0.231445	-0.541992	-0.041016	-0.374973	-0.562459	-0.590582	0.410156	0.890625	-0.082031	762	16_14_58_7422980
0.240234	-0.544922	-0.023438	-0.374973	-0.562459	-0.599956	0.550781	0.878906	0.128906	763	16_14_58_7584270
0.246094	-0.539063	-0.023438	-0.384347	-0.543711	-0.599956	0.410156	0.855469	-0.011719	764	16_14_58_7745560
0.237305	-0.533203	-0.029297	-0.374973	-0.553085	-0.599956	0.421875	0.878906	0.011719	765	16_14_58_7906850
0.234375	-0.521484	-0.035156	-0.374973	-0.562459	-0.599956	0.421875	0.914063	-0.023438	766	16_14_58_8068140
0.231445	-0.536133	-0.043945	-0.384347	-0.562459	-0.599956	0.492188	0.867188	-0.046875	767	16_14_58_8229430
0.240234	-0.544922	-0.035156	-0.374973	-0.562459	-0.599956	0.468750	0.867188	-0.023438	768	16_14_58_8390720
0.251953	-0.533203	-0.032227	-0.374973	-0.553085	-0.599956	0.468750	0.855469	-0.023438	769	16_14_58_8552010
0.240234	-0.553711	-0.026367	-0.374973	-0.543711	-0.599956	0.433594	0.867188	-0.011719	770	16_14_58_8713300
0.228516	-0.550781	-0.026367	-0.374973	-0.543711	-0.599956	0.410156	0.925781	-0.046875	771	16_14_58_8874590
0.222656	-0.536133	-0.023438	-0.374973	-0.553085	-0.599956	0.445313	0.914063	-0.035156	772	16_14_58_9035880
0.228516	-0.541992	-0.026367	-0.384347	-0.562459	-0.599956	0.433594	0.937500	-0.023438	773	16_14_58_9197170
0.240234	-0.539063	-0.029297	-0.374973	-0.553085	-0.599956	0.433594	0.937500	-0.046875	774	16_14_58_9358460
0.240234	-0.544922	-0.023438	-0.374973	-0.553085	-0.599956	0.410156	0.937500	0.000000	775	16_14_58_9519750
0.240234	-0.544922	-0.017578	-0.374973	-0.553085	-0.599956	0.433594	0.914063	-0.023438	776	16_14_58_9681040
0.228516	-0.544922	-0.029297	-0.374973	-0.562459	-0.599956	0.468750	0.843750	-0.023438	777	16_14_58_9842330
0.237305	-0.544922	-0.026367	-0.384347	-0.553085	-0.599956	0.410156	0.832031	0.000000	778	16_14_59_0003620
0.240234	-0.541992	-0.023438	-0.365598	-0.562459	-0.599956	0.433594	0.937500	-0.046875	779	16_14_59_0164910
0.228516	-0.547852	-0.023438	-0.374973	-0.553085	-0.599956	0.445313	0.914063	-0.046875	780	16_14_59_0326200
0.234375	-0.544922	-0.020508	-0.384347	-0.553085	-0.599956	0.445313	0.914063	-0.035156	781	16_14_59_0487490
0.240234	-0.544922	-0.026367	-0.374973	-0.562459	-0.599956	0.410156	0.867188	-0.046875	782	16_14_59_0648780
0.237305	-0.539063	-0.035156	-0.374973	-0.562459	-0.599956	0.421875	0.855469	-0.058594	783	16_14_59_0810070
0.240234	-0.536133	-0.029297	-0.374973	-0.562459	-0.599956	0.433594	0.855469	-0.035156	784	16_14_59_0971360
0.234375	-0.541992	-0.035156	-0.374973	-0.553085	-0.599956	0.445313	0.902344	0.000000	785	16_14_59_1132650
0.240234	-0.539063	-0.026367	-0.374973	-0.553085	-0.599956	0.457031	0.890625	-0.011719	786	16_14_59_1293940
0.228516	-0.550781	-0.032227	-0.374973	-0.562459	-0.599956	0.492188	0.878906	-0.011719	787	16_14_59_1455230
0.222656	-0.533203	-0.032227	-0.374973	-0.562459	-0.599956	0.433594	0.914063	-0.035156	788	16_14_59_1616520
0.234375	-0.544922	-0.035156	-0.374973	-0.562459	-0.599956	0.445313	0.925781	-0.035156	789	16_14_59_1777810
0.240234	-0.550781	-0.026367	-0.374973	-0.562459	-0.590582	0.421875	0.902344	-0.011719	790	16_14_59_1939100
0.240234	-0.556641	-0.032227	-0.374973	-0.553085	-0.599956	0.468750	0.867188	0.011719	791	16_14_59_2100390
0.237305	-0.541992	-0.026367	-0.384347	-0.562459	-0.599956	0.410156	0.890625	-0.035156	792	16_14_59_2261680
0.234375	-0.527344	-0.026367	-0.374973	-0.553085	-0.599956	0.492188	0.890625	-0.058594	793	16_14_59_2422970
0.231445	-0.539063	-0.029297	-0.374973	-0.553085	-0.599956	0.597656	0.902344	0.234375	794	16_14_59_2584260
0.234375	-0.550781	-0.038086	-0.374973	-0.553085	-0.599956	0.421875	0.925781	0.035156	795	16_14_59_2745550
0.228516	-0.544922	-0.023438	-0.365598	-0.553085	-0.599956	0.421875	0.937500	0.046875	796	16_14_59_2906840
0.237305	-0.533203	-0.026367	-0.365598	-0.562459	-0.599956	0.410156	0.902344	-0.011719	797	16_14_59_3068130
0.234375	-0.541992	-0.014648	-0.374973	-0.562459	-0.599956	0.421875	0.902344	-0.035156	798	16_14_59_3229420
0.240234	-0.544922	-0.017578	-0.374973	-0.553085	-0.599956	0.457031	0.890625	-0.058594	799	16_14_59_3390710
0.231445	-0.559570	-0.026367	-0.384347	-0.553085	-0.599956	0.433594	0.867188	-0.070313	800	16_14_59_3552000
0.228516	-0.544922	-0.017578	-0.374973	-0.562459	-0.599956	0.984375	0.890625	0.210938	801	16_14_59_3713290
0.237305	-0.536133	-0.032227	-0.356224	-0.562459	-0.599956	0.679688	0.855469	0.234375	802	16_14_59_3874580
0.240234	-0.547852	-0.023438	-0.374973	-0.562459	-0.599956	0.445313	0.867188	-0.023438	803	16_14_59_4035870
0.243164	-0.544922	-0.029297	-0.374973	-0.562459	-0.599956	0.445313	0.902344	-0.011719	804	16_14_59_4197160
0.243164	-0.544922	-0.026367	-0.374973	-0.553085	-0.599956	0.433594	0.902344	-0.023438	805	16_14_59_4358450
0.234375	-0.539063	-0.035156	-0.384347	-0.553085	-0.599956	0.457031	0.867188	-0.046875	806	16_14_59_4519740
0.234375	-0.544922	-0.020508	-0.374973	-0.562459	-0.599956	0.445313	0.808594	-0.058594	807	16_14_59_4681030
0.240234	-0.544922	-0.023438	-0.374973	-0.562459	-0.599956	0.457031	0.843750	-0.058594	808	16_14_59_4842320
0.228516	-0.556641	-0.023438	-0.365598	-0.562459	-0.599956	0.972656	0.890625	0.105469	809	16_14_59_5003610
0.228516	-0.544922	-0.026367	-0.374973	-0.553085	-0.599956	0.421875	0.914063	-0.011719	810	16_14_59_5164900
0.240234	-0.544922	-0.032227	-0.384347	-0.562459	-0.599956	0.445313	0.878906	0.011719	811	16_14_59_5326190
0.234375	-0.550781	-0.032227	-0.374973	-0.553085	-0.599956	0.445313	0.890625	0.000000	812	16_14_59_5487480
0.222656	-0.539063	-0.026367	-0.374973	-0.553085	-0.599956	0.585938	0.914063	0.175781	813	16_14_59_5648770
0.234375	-0.536133	-0.032227	-0.374973	-0.562459	-0.590582	0.445313	0.890625	-0.035156	814	16_14_59_5810060
0.243164	-0.539063	-0.026367	-0.374973	-0.553085	-0.599956	0.410156	0.820313	0.164063	815	16_14_59_5971350
0.240234	-0.541992	-0.035156	-0.374973	-0.562459	-0.590582	0.445313	0.914063	-0.058594	816	16_14_59_6132640
0.231445	-0.541992	-0.023438	-0.374973	-0.562459	-0.590582	0.445313	0.902344	-0.046875	817	16_14_59_6293930
0.228516	-0.536133	-0.026367	-0.374973	-0.562459	-0.599956	0.738281	0.902344	0.046875	818	16_14_59_6455220
0.240234	-0.550781	-0.020508	-0.374973	-0.553085	-0.599956	0.679688	0.878906	0.046875	819	16_14_59_6616510
0.240234	-0.539063	-0.026367	-0.374973	-0.553085	-0.599956	0.609375	0.890625	-0.023438	820	16_14_59_6777800
0.234375	-0.527344	-0.032227	-0.374973	-0.553085	-0.599956	0.433594	0.914063	-0.035156	821	16_14_59_6939090
0.237305	-0.527344	-0.026367	-0.374973	-0.553085	-0.599956	0.445313	0.937500	-0.023438	822	16_14_59_7100380
0.240234	-0.541992	-0.029297	-0.365598	-0.553085	-0.599956	0.410156	0.878906	-0.046875	823	16_14_59_7261670
0.234375	-0.536133	-0.020508	-0.374973	-0.553085	-0.599956	0.410156	0.914063	-0.035156	824	16_14_59_7422960
0.234375	-0.547852	-0.023438	-0.374973	-0.562459	-0.599956	0.421875	0.878906	-0.023438	825	16_14_59_7584250
0.240234	-0.553711	-0.026367	-0.365598	-0.553085	-0.599956	0.480469	0.855469	0.000000	826	16_14_59_7745540
0.228516	-0.544922	-0.020508	-0.374973	-0.543711	-0.599956	0.492188	0.832031	-0.058594	827	16_14_59_7906830
0.234375	-0.547852	-0.026367	-0.374973	-0.553085	-0.599956	0.410156	0.796875	-0.082031	828	16_14_59_8068120
0.234375	-0.547852	-0.017578	-0.374973	-0.553085	-0.599956	0.421875	0.914063	-0.046875	829	16_14_59_8229410
0.237305	-0.550781	-0.020508	-0.374973	-0.553085	-0.599956	0.445313	0.914063	-0.035156	830	16_14_59_8390700
0.240234	-0.544922	-0.026367	-0.374973	-0.553085	-0.599956	0.468750	0.914063	0.011719	831	16_14_59_8551990
0.234375	-0.536133	-0.035156	-0.374973	-0.562459	-0.590582	0.410156	0.902344	-0.011719	832	16_14_59_8713280
0.240234	-0.541992	-0.026367	-0.374973	-0.562459	-0.599956	0.445313	0.867188	-0.035156	833	16_14_59_8874570
0.234375	-0.533203	-0.032227	-0.374973	-0.553085	-0.590582	0.457031	0.878906	-0.011719	834	16_14_59_9035860
0.231445	-0.547852	-0.029297	-0.374973	-0.553085	-0.599956	0.421875	0.867188	-0.035156	835	16_14_59_9197150
0.225586	-0.547852	-0.020508	-0.374973	-0.543711	-0.599956	0.480469	0.867188	-0.046875	836	16_14_59_9358440
0.222656	-0.544922	-0.029297	-0.374973	-0.553085	-0.599956	0.410156	0.902344	-0.093750	837	16_14_59_9519730
0.237305	-0.533203	-0.026367	-0.365598	-0.562459	-0.590582	0.480469	0.925781	-0.082031	838	16_14_59_9681020
0.234375	-0.544922	-0.035156	-0.374973	-0.562459	-0.599956	0.480469	0.878906	-0.035156	839	16_14_59_9842310
0.249023	-0.544922	-0.032227	-0.365598	-0.562459	-0.599956	0.468750	0.832031	0.011719	840	16_15_00_0003600
0.231445	-0.539063	-0.035156	-0.374973	-0.553085	-0.599956	0.433594	0.820313	-0.011719	841	16_15_00_0164890
0.234375	-0.541992	-0.020508	-0.374973	-0.553085	-0.599956	0.410156	0.867188	-0.023438	842	16_15_00_0326180
0.228516	-0.533203	-0.032227	-0.374973	-0.553085	-0.599956	0.468750	0.914063	-0.035156	843	16_15_00_0487470
0.231445	-0.547852	-0.023438	-0.374973	-0.562459	-0.599956	0.480469	0.937500	-0.070313	844	16_15_00_0648760
0.234375	-0.547852	-0.023438	-0.365598	-0.562459	-0.599956	0.445313	0.925781	-0.082031	845	16_15_00_0810050
0.231445	-0.541992	-0.023438	-0.374973	-0.553085	-0.599956	0.445313	0.902344	-0.011719	846	16_15_00_0971340
0.228516	-0.536133	-0.029297	-0.374973	-0.553085	-0.599956	0.468750	0.914063	-0.011719	847	16_15_00_1132630
0.225586	-0.533203	-0.020508	-0.374973	-0.562459	-0.599956	0.597656	0.914063	0.000000	848	16_15_00_1293920
0.249023	-0.547852	-0.026367	-0.374973	-0.562459	-0.599956	0.421875	0.855469	0.000000	849	16_15_00_1455210
0.251953	-0.547852	-0.026367	-0.374973	-0.553085	-0.599956	0.421875	0.878906	-0.011719	850	16_15_00_1616500
0.240234	-0.544922	-0.026367	-0.374973	-0.553085	-0.599956	0.785156	0.902344	0.082031	851	16_15_00_1777790
0.240234	-0.541992	-0.026367	-0.374973	-0.553085	-0.599956	0.445313	0.937500	-0.035156	852	16_15_00_1939080
0.237305	-0.541992	-0.032227	-0.374973	-0.562459	-0.599956	0.433594	0.867188	-0.023438	853	16_15_00_2100370
0.240234	-0.536133	-0.029297	-0.374973	-0.562459	-0.599956	0.726563	0.867188	0.316406	854	16_15_00_2261660
0.225586	-0.544922	-0.026367	-0.374973	-0.553085	-0.599956	0.468750	0.914063	-0.105469	855	16_15_00_2422950
0.231445	-0.544922	-0.020508	-0.374973	-0.553085	-0.599956	0.421875	0.914063	-0.082031	856	16_15_00_2584240
0.231445	-0.550781	-0.026367	-0.374973	-0.553085	-0.599956	0.421875	0.843750	-0.035156	857	16_15_00_2745530
0.234375	-0.541992	-0.026367	-0.374973	-0.562459	-0.599956	0.468750	0.843750	-0.011719	858	16_15_00_2906820
0.240234	-0.547852	-0.032227	-0.374973	-0.562459	-0.599956	0.480469	0.902344	-0.023438	859	16_15_00_3068110
0.234375	-0.550781	-0.032227	-0.374973	-0.562459	-0.599956	0.410156	0.937500	-0.023438	860	16_15_00_3229400
0.240234	-0.544922	-0.020508	-0.384347	-0.553085	-0.599956	0.433594	0.867188	0.011719	861	16_15_00_3390690
0.243164	-0.536133	-0.032227	-0.374973	-0.553085	-0.599956	0.410156	0.855469	0.023438	862	16_15_00_3551980
0.228516	-0.544922	-0.035156	-0.374973	-0.562459	-0.599956	0.925781	0.902344	0.164063	863	16_15_00_3713270
0.237305	-0.536133	-0.029297	-0.384347	-0.562459	-0.599956	0.410156	0.925781	-0.070313	864	16_15_00_3874560
0.243164	-0.544922	-0.032227	-0.374973	-0.562459	-0.599956	0.679688	0.890625	0.257813	865	16_15_00_4035850
0.246094	-0.533203	-0.026367	-0.384347	-0.553085	-0.599956	0.468750	0.914063	-0.058594	866	16_15_00_4197140
0.231445	-0.533203	-0.023438	-0.374973	-0.553085	-0.599956	0.445313	0.867188	0.222656	867	16_15_00_4358430
0.231445	-0.547852	-0.035156	-0.374973	-0.562459	-0.609331	0.433594	0.925781	-0.035156	868	16_15_00_4519720
0.228516	-0.539063	-0.032227	-0.374973	-0.562459	-0.599956	0.632813	0.914063	0.035156	869	16_15_00_4681010
0.228516	-0.533203	-0.023438	-0.374973	-0.562459	-0.599956	0.468750	0.925781	0.035156	870	16_15_00_4842300
0.234375	-0.541992	-0.026367	-0.374973	-0.553085	-0.599956	0.445313	0.960938	0.035156	871	16_15_00_5003590
0.225586	-0.550781	-0.017578	-0.384347	-0.553085	-0.609331	0.832031	0.890625	0.105469	872	16_15_00_5164880
0.237305	-0.541992	-0.035156	-0.384347	-0.562459	-0.599956	0.468750	0.867188	-0.011719	873	16_15_00_5326170
0.240234	-0.544922	-0.023438	-0.374973	-0.562459	-0.599956	0.503906	0.937500	-0.058594	874	16_15_00_5487460
0.234375	-0.541992	-0.026367	-0.374973	-0.562459	-0.599956	0.386719	0.890625	-0.035156	875	16_15_00_5648750
0.246094	-0.547852	-0.032227	-0.384347	-0.553085	-0.599956	0.562500	0.890625	0.046875	876	16_15_00_5810040
0.234375	-0.544922	-0.026367	-0.374973	-0.562459	-0.599956	0.421875	0.890625	-0.011719	877	16_15_00_5971330
0.231445	-0.536133	-0.020508	-0.384347	-0.553085	-0.599956	0.421875	0.902344	-0.046875	878	16_15_00_6132620
0.234375	-0.553711	-0.026367	-0.374973	-0.553085	-0.599956	0.445313	0.890625	-0.058594	879	16_15_00_6293910
0.228516	-0.536133	-0.020508	-0.374973	-0.562459	-0.599956	0.480469	0.855469	-0.082031	880	16_15_00_6455200
0.231445	-0.544922	-0.014648	-0.374973	-0.562459	-0.609331	0.433594	0.902344	0.000000	881	16_15_00_6616490
0.240234	-0.553711	-0.026367	-0.374973	-0.562459	-0.599956	0.457031	0.914063	0.023438	882	16_15_00_6777780
0.231445	-0.544922	-0.020508	-0.374973	-0.553085	-0.599956	0.445313	0.914063	-0.035156	883	16_15_00_6939070
0.234375	-0.539063	-0.020508	-0.374973	-0.553085	-0.590582	0.433594	0.902344	0.000000	884	16_15_00_7100360
0.240234	-0.544922	-0.023438	-0.365598	-0.562459	-0.599956	0.421875	0.902344	-0.023438	885	16_15_00_7261650
0.228516	-0.544922	-0.020508	-0.374973	-0.562459	-0.599956	0.433594	0.902344	-0.082031	886	16_15_00_7422940
0.231445	-0.544922	-0.023438	-0.374973	-0.553085	-0.590582	0.480469	0.878906	-0.105469	887	16_15_00_7584230
0.237305	-0.539063	-0.029297	-0.374973	-0.562459	-0.599956	0.421875	0.914063	-0.070313	888	16_15_00_7745520
0.234375	-0.539063	-0.023438	-0.374973	-0.571833	-0.599956	0.468750	0.937500	0.035156	889	16_15_00_7906810
0.234375	-0.547852	-0.023438	-0.374973	-0.562459	-0.599956	0.410156	0.914063	-0.011719	890	16_15_00_8068100
0.240234	-0.539063	-0.023438	-0.374973	-0.562459	-0.590582	0.515625	0.867188	0.000000	891	16_15_00_8229390
0.246094	-0.547852	-0.035156	-0.374973	-0.562459	-0.599956	0.410156	0.914063	-0.011719	892	16_15_00_8390680
0.231445	-0.547852	-0.032227	-0.374973	-0.553085	-0.599956	0.410156	0.914063	-0.023438	893	16_15_00_8551970
0.234375	-0.544922	-0.023438	-0.374973	-0.562459	-0.599956	0.433594	0.937500	-0.023438	894	16_15_00_8713260
0.234375	-0.536133	-0.032227	-0.365598	-0.562459	-0.599956	0.433594	0.937500	-0.035156	895	16_15_00_8874550
0.234375	-0.544922	-0.026367	-0.374973	-0.562459	-0.599956	0.410156	0.949219	-0.023438	896	16_15_00_9035840
0.231445	-0.544922	-0.026367	-0.365598	-0.553085	-0.599956	0.433594	0.960938	-0.023438	897	16_15_00_9197130
0.237305	-0.550781	-0.032227	-0.374973	-0.553085	-0.599956	0.492188	0.878906	-0.035156	898	16_15_00_9358420
0.234375	-0.544922	-0.023438	-0.374973	-0.562459	-0.599956	0.410156	0.867188	-0.046875	899	16_15_00_9519710
0.240234	-0.536133	-0.020508	-0.374973	-0.543711	-0.599956	0.433594	0.914063	-0.023438	900	16_15_00_9681000
0.249023	-0.536133	-0.023438	-0.374973	-0.562459	-0.599956	0.410156	0.890625	-0.035156	901	16_15_00_9842290
0.246094	-0.547852	-0.020508	-0.374973	-0.543711	-0.599956	0.421875	0.878906	-0.035156	902	16_15_01_0003580
0.225586	-0.550781	-0.023438	-0.374973	-0.553085	-0.599956	0.433594	0.890625	0.011719	903	16_15_01_0164870
0.225586	-0.533203	-0.032227	-0.374973	-0.562459	-0.599956	0.445313	0.855469	0.000000	904	16_15_01_0326160
0.237305	-0.544922	-0.017578	-0.374973	-0.562459	-0.599956	0.410156	0.914063	-0.011719	905	16_15_01_0487450
0.240234	-0.550781	-0.014648	-0.374973	-0.553085	-0.599956	0.750000	0.937500	0.210938	906	16_15_01_0648740
0.234375	-0.553711	-0.026367	-0.374973	-0.553085	-0.599956	0.410156	0.843750	-0.035156	907	16_15_01_0810030
0.234375	-0.544922	-0.032227	-0.374973	-0.553085	-0.599956	0.457031	0.867188	-0.035156	908	16_15_01_0971320
0.234375	-0.544922	-0.038086	-0.384347	-0.562459	-0.599956	0.433594	0.890625	-0.023438	909	16_15_01_1132610
0.234375	-0.527344	-0.032227	-0.374973	-0.562459	-0.599956	0.468750	0.914063	-0.046875	910	16_15_01_1293900
0.240234	-0.541992	-0.032227	-0.374973	-0.562459	-0.590582	0.539063	0.914063	-0.046875	911	16_15_01_1455190
0.243164	-0.544922	-0.020508	-0.365598	-0.553085	-0.599956	0.703125	0.878906	0.058594	912	16_15_01_1616480
0.234375	-0.547852	-0.026367	-0.393721	-0.553085	-0.599956	0.433594	0.902344	-0.070313	913	16_15_01_1777770
0.228516	-0.539063	-0.029297	-0.374973	-0.562459	-0.599956	0.843750	0.902344	0.035156	914	16_15_01_1939060
0.240234	-0.541992	-0.026367	-0.374973	-0.562459	-0.599956	0.468750	0.925781	-0.070313	915	16_15_01_2100350
0.228516	-0.547852	-0.026367	-0.374973	-0.562459	-0.599956	0.410156	0.890625	-0.058594	916	16_15_01_2261640
0.234375	-0.536133	-0.020508	-0.374973	-0.562459	-0.599956	0.515625	0.878906	-0.011719	917	16_15_01_2422930
0.231445	-0.544922	-0.026367	-0.374973	-0.562459	-0.599956	0.527344	0.855469	0.445313	918	16_15_01_2584220
0.243164	-0.544922	-0.020508	-0.374973	-0.562459	-0.599956	0.421875	0.867188	0.011719	919	16_15_01_2745510
0.240234	-0.550781	-0.026367	-0.365598	-0.562459	-0.599956	0.492188	0.890625	-0.011719	920	16_15_01_2906800
0.237305	-0.533203	-0.029297	-0.374973	-0.553085	-0.599956	0.445313	0.914063	-0.070313	921	16_15_01_3068090
0.237305	-0.536133	-0.032227	-0.374973	-0.553085	-0.599956	0.410156	0.937500	-0.058594	922	16_15_01_3229380
0.234375	-0.539063	-0.032227	-0.384347	-0.562459	-0.599956	0.421875	0.937500	0.011719	923	16_15_01_3390670
0.240234	-0.533203	-0.029297	-0.374973	-0.562459	-0.599956	0.468750	0.914063	0.011719	924	16_15_01_3551960
0.231445	-0.541992	-0.026367	-0.374973	-0.562459	-0.599956	0.410156	0.878906	-0.011719	925	16_15_01_3713250
0.243164	-0.536133	-0.026367	-0.374973	-0.562459	-0.599956	0.457031	0.925781	-0.011719	926	16_15_01_3874540
0.234375	-0.541992	-0.020508	-0.374973	-0.553085	-0.599956	0.410156	0.914063	-0.058594	927	16_15_01_4035830
0.240234	-0.541992	-0.026367	-0.374973	-0.553085	-0.599956	0.445313	0.902344	0.000000	928	16_15_01_4197120
0.234375	-0.547852	-0.032227	-0.374973	-0.553085	-0.599956	0.457031	0.937500	0.011719	929	16_15_01_4358410
0.240234	-0.547852	-0.026367	-0.374973	-0.562459	-0.599956	0.410156	0.890625	0.000000	930	16_15_01_4519700
0.243164	-0.539063	-0.020508	-0.365598	-0.562459	-0.590582	0.433594	0.832031	-0.011719	931	16_15_01_4680990
0.225586	-0.541992	-0.023438	-0.374973	-0.562459	-0.599956	0.457031	0.914063	-0.046875	932	16_15_01_4842280
0.222656	-0.553711	-0.038086	-0.374973	-0.562459	-0.599956	0.421875	0.867188	-0.035156	933	16_15_01_5003570
0.231445	-0.544922	-0.035156	-0.374973	-0.553085	-0.599956	0.468750	0.832031	-0.011719	934	16_15_01_5164860
0.234375	-0.541992	-0.026367	-0.374973	-0.562459	-0.599956	0.433594	0.867188	-0.035156	935	16_15_01_5326150
0.228516	-0.541992	-0.026367	-0.374973	-0.562459	-0.599956	0.457031	0.937500	0.000000	936	16_15_01_5487440
0.243164	-0.547852	-0.020508	-0.374973	-0.562459	-0.599956	0.902344	0.914063	0.199219	937	16_15_01_5648730
0.234375	-0.536133	-0.026367	-0.374973	-0.562459	-0.599956	0.410156	0.890625	-0.058594	938	16_15_01_5810020
0.243164	-0.539063	-0.023438	-0.374973	-0.543711	-0.599956	0.445313	0.878906	-0.070313	939	16_15_01_5971310
0.234375	-0.541992	-0.032227	-0.374973	-0.562459	-0.599956	0.445313	0.890625	-0.058594	940	16_15_01_6132600
0.234375	-0.544922	-0.014648	-0.374973	-0.562459	-0.599956	0.457031	0.902344	0.011719	941	16_15_01_6293890
0.240234	-0.541992	-0.023438	-0.374973	-0.562459	-0.599956	0.480469	0.843750	-0.035156	942	16_15_01_6455180
0.234375	-0.547852	-0.026367	-0.374973	-0.553085	-0.590582	0.750000	0.867188	0.011719	943	16_15_01_6616470
0.237305	-0.556641	-0.026367	-0.374973	-0.553085	-0.599956	0.468750	0.867188	-0.035156	944	16_15_01_6777760
0.234375	-0.541992	-0.035156	-0.374973	-0.562459	-0.599956	0.433594	0.843750	0.011719	945	16_15_01_6939050
0.237305	-0.536133	-0.020508	-0.374973	-0.562459	-0.599956	0.445313	0.843750	0.000000	946	16_15_01_7100340
0.243164	-0.541992	-0.029297	-0.374973	-0.562459	-0.599956	0.515625	0.914063	-0.058594	947	16_15_01_7261630
0.246094	-0.544922	-0.020508	-0.365598	-0.553085	-0.599956	0.445313	0.902344	-0.058594	948	16_15_01_7422920
0.234375	-0.550781	-0.029297	-0.374973	-0.562459	-0.599956	0.410156	0.925781	-0.023438	949	16_15_01_7584210
0.231445	-0.556641	-0.017578	-0.374973	-0.562459	-0.599956	0.468750	0.902344	-0.023438	950	16_15_01_7745500
0.225586	-0.539063	-0.020508	-0.374973	-0.562459	-0.599956	0.433594	0.867188	-0.023438	951	16_15_01_7906790
0.234375	-0.544922	-0.023438	-0.374973	-0.562459	-0.590582	0.433594	0.867188	0.023438	952	16_15_01_8068080
0.237305	-0.544922	-0.026367	-0.374973	-0.562459	-0.599956	0.492188	0.890625	-0.011719	953	16_15_01_8229370
0.234375	-0.541992	-0.026367	-0.374973	-0.562459	-0.599956	0.714844	0.937500	0.093750	954	16_15_01_8390660
0.234375	-0.547852	-0.026367	-0.337475	-0.562459	-0.599956	1.007813	0.937500	0.199219	955	16_15_01_8551950
0.240234	-0.544922	-0.023438	-0.374973	-0.553085	-0.599956	0.410156	0.843750	-0.046875	956	16_15_01_8713240
0.237305	-0.539063	-0.017578	-0.374973	-0.562459	-0.599956	0.480469	0.867188	-0.035156	957	16_15_01_8874530
0.237305	-0.547852	-0.026367	-0.374973	-0.562459	-0.599956	0.480469	0.902344	-0.011719	958	16_15_01_9035820
0.234375	-0.541992	-0.020508	-0.374973	-0.562459	-0.599956	0.445313	0.867188	-0.035156	959	16_15_01_9197110
0.234375	-0.553711	-0.026367	-0.374973	-0.571833	-0.599956	0.421875	0.890625	-0.046875	960	16_15_01_9358400
0.240234	-0.536133	-0.026367	-0.374973	-0.562459	-0.599956	0.562500	0.878906	0.023438	961	16_15_01_9519690
0.228516	-0.544922	-0.026367	-0.374973	-0.562459	-0.599956	0.632813	0.867188	0.000000	962	16_15_01_9680980
0.237305	-0.544922	-0.029297	-0.374973	-0.562459	-0.599956	0.421875	0.890625	-0.046875	963	16_15_01_9842270
0.234375	-0.544922	-0.026367	-0.374973	-0.553085	-0.599956	0.738281	0.890625	0.046875	964	16_15_02_0003560
0.228516	-0.544922	-0.023438	-0.374973	-0.562459	-0.599956	0.750000	0.949219	0.046875	965	16_15_02_0164850
0.246094	-0.533203	-0.035156	-0.374973	-0.562459	-0.599956	0.421875	0.960938	-0.046875	966	16_15_02_0326140
0.249023	-0.539063	-0.026367	-0.374973	-0.562459	-0.599956	0.433594	0.949219	-0.035156	967	16_15_02_0487430
0.246094	-0.550781	-0.020508	-0.374973	-0.562459	-0.599956	0.445313	0.902344	-0.011719	968	16_15_02_0648720
0.240234	-0.536133	-0.029297	-0.374973	-0.553085	-0.599956	0.445313	0.937500	0.023438	969	16_15_02_0810010
0.228516	-0.544922	-0.029297	-0.374973	-0.562459	-0.599956	0.457031	0.960938	-0.023438	970	16_15_02_0971300
0.228516	-0.539063	-0.026367	-0.374973	-0.562459	-0.599956	0.433594	0.914063	-0.035156	971	16_15_02_1132590
0.234375	-0.547852	-0.029297	-0.374973	-0.562459	-0.599956	0.445313	0.855469	-0.011719	972	16_15_02_1293880
0.243164	-0.544922	-0.026367	-0.374973	-0.562459	-0.599956	0.457031	0.902344	-0.023438	973	16_15_02_1455170
0.240234	-0.539063	-0.026367	-0.374973	-0.562459	-0.599956	0.480469	0.914063	-0.046875	974	16_15_02_1616460
0.237305	-0.536133	-0.026367	-0.374973	-0.553085	-0.599956	0.445313	0.867188	-0.023438	975	16_15_02_1777750
0.228516	-0.539063	-0.032227	-0.374973	-0.553085	-0.599956	0.515625	0.890625	-0.023438	976	16_15_02_1939040
0.240234	-0.536133	-0.032227	-0.374973	-0.562459	-0.599956	0.421875	0.855469	-0.046875	977	16_15_02_2100330
0.246094	-0.550781	-0.023438	-0.374973	-0.562459	-0.599956	0.445313	0.902344	-0.105469	978	16_15_02_2261620
0.240234	-0.547852	-0.017578	-0.374973	-0.553085	-0.599956	0.410156	0.914063	-0.082031	979	16_15_02_2422910
0.231445	-0.547852	-0.026367	-0.374973	-0.553085	-0.599956	0.527344	0.855469	0.000000	980	16_15_02_2584200
0.234375	-0.539063	-0.026367	-0.374973	-0.553085	-0.599956	0.480469	0.855469	0.011719	981	16_15_02_2745490
0.234375	-0.544922	-0.020508	-0.374973	-0.562459	-0.599956	0.410156	0.867188	-0.011719	982	16_15_02_2906780
0.240234	-0.533203	-0.023438	-0.374973	-0.562459	-0.599956	0.457031	0.843750	-0.023438	983	16_15_02_3068070
0.240234	-0.547852	-0.020508	-0.374973	-0.562459	-0.599956	0.644531	0.902344	0.046875	984	16_15_02_3229360
0.231445	-0.536133	-0.026367	-0.374973	-0.553085	-0.590582	0.410156	0.914063	-0.035156	985	16_15_02_3390650
0.234375	-0.550781	-0.029297	-0.374973	-0.553085	-0.599956	0.468750	0.902344	-0.046875	986	16_15_02_3551940
0.234375	-0.547852	-0.023438	-0.374973	-0.553085	-0.599956	0.410156	0.867188	-0.070313	987	16_15_02_3713230
0.234375	-0.539063	-0.026367	-0.365598	-0.553085	-0.599956	0.421875	0.773438	-0.046875	988	16_15_02_3874520
0.228516	-0.544922	-0.026367	-0.374973	-0.562459	-0.599956	0.445313	0.796875	-0.035156	989	16_15_02_4035810
0.243164	-0.541992	-0.017578	-0.374973	-0.553085	-0.599956	0.433594	0.914063	-0.035156	990	16_15_02_4197100
0.234375	-0.541992	-0.020508	-0.374973	-0.553085	-0.599956	0.421875	0.867188	0.246094	991	16_15_02_4358390
0.237305	-0.547852	-0.023438	-0.374973	-0.553085	-0.599956	0.585938	0.843750	0.234375	992	16_15_02_4519680
0.246094	-0.544922	-0.017578	-0.374973	-0.553085	-0.599956	0.445313	0.937500	-0.046875	993	16_15_02_4680970
0.234375	-0.550781	-0.026367	-0.384347	-0.553085	-0.599956	0.421875	0.937500	-0.035156	994	16_15_02_4842260
0.228516	-0.533203	-0.026367	-0.374973	-0.562459	-0.599956	0.656250	0.902344	0.058594	995	16_15_02_5003550
0.234375	-0.536133	-0.026367	-0.374973	-0.562459	-0.590582	0.433594	0.855469	0.000000	996	16_15_02_5164840
0.243164	-0.544922	-0.026367	-0.374973	-0.562459	-0.599956	0.421875	0.902344	0.000000	997	16_15_02_5326130
0.249023	-0.544922	-0.032227	-0.384347	-0.562459	-0.599956	0.457031	0.902344	-0.058594	998	16_15_02_5487420
0.234375	-0.547852	-0.026367	-0.374973	-0.562459	-0.599956	0.445313	0.914063	-0.058594	999	16_15_02_5648710
0.231445	-0.544922	-0.026367	-0.365598	-0.562459	-0.599956	0.503906	0.914063	-0.011719	1000	16_15_02_5810000
0.240234	-0.544922	-0.020508	-0.374973	-0.562459	-0.599956	0.421875	0.890625	-0.070313	1001	16_15_02_5971290
0.234375	-0.536133	-0.032227	-0.374973	-0.562459	-0.599956	0.421875	0.914063	-0.058594	1002	16_15_02_6132580
0.240234	-0.541992	-0.023438	-0.374973	-0.562459	-0.599956	0.539063	0.878906	0.011719	1003	16_15_02_6293870
0.234375	-0.536133	-0.020508	-0.374973	-0.562459	-0.599956	0.527344	0.925781	0.000000	1004	16_15_02_6455160
0.228516	-0.536133	-0.017578	-0.374973	-0.562459	-0.599956	0.421875	0.878906	-0.011719	1005	16_15_02_6616450
0.228516	-0.547852	-0.026367	-0.374973	-0.562459	-0.590582	0.468750	0.902344	-0.035156	1006	16_15_02_6777740
0.234375	-0.544922	-0.026367	-0.384347	-0.562459	-0.599956	0.433594	0.914063	-0.035156	1007	16_15_02_6939030
0.234375	-0.539063	-0.023438	-0.374973	-0.562459	-0.599956	0.457031	0.914063	0.011719	1008	16_15_02_7100320
0.234375	-0.541992	-0.032227	-0.374973	-0.562459	-0.599956	0.445313	0.925781	0.046875	1009	16_15_02_7261610
0.240234	-0.530273	-0.023438	-0.374973	-0.562459	-0.599956	0.445313	0.937500	0.000000	1010	16_15_02_7422900
0.237305	-0.550781	-0.026367	-0.374973	-0.562459	-0.599956	0.609375	0.914063	0.316406	1011	16_15_02_7584190
0.222656	-0.544922	-0.026367	-0.374973	-0.562459	-0.599956	0.433594	0.902344	-0.011719	1012	16_15_02_7745480
0.234375	-0.544922	-0.032227	-0.374973	-0.562459	-0.599956	0.410156	0.890625	-0.011719	1013	16_15_02_7906770
0.234375	-0.541992	-0.032227	-0.365598	-0.562459	-0.590582	0.445313	0.890625	0.000000	1014	16_15_02_8068060
0.243164	-0.539063	-0.029297	-0.374973	-0.571833	-0.599956	0.421875	0.890625	-0.035156	1015	16_15_02_8229350
0.237305	-0.553711	-0.026367	-0.374973	-0.553085	-0.599956	0.445313	0.855469	-0.058594	1016	16_15_02_8390640
0.240234	-0.536133	-0.032227	-0.374973	-0.553085	-0.599956	0.421875	0.890625	-0.011719	1017	16_15_02_8551930
0.225586	-0.536133	-0.020508	-0.374973	-0.562459	-0.599956	0.457031	0.867188	0.011719	1018	16_15_02_8713220
0.237305	-0.533203	-0.026367	-0.374973	-0.571833	-0.590582	0.480469	0.902344	-0.035156	1019	16_15_02_8874510
0.237305	-0.544922	-0.017578	-0.374973	-0.562459	-0.599956	0.492188	0.890625	-0.058594	1020	16_15_02_9035800
0.246094	-0.539063	-0.017578	-0.384347	-0.562459	-0.599956	0.410156	0.855469	-0.046875	1021	16_15_02_9197090
0.228516	-0.550781	-0.032227	-0.374973	-0.553085	-0.599956	0.421875	0.867188	-0.058594	1022	16_15_02_9358380
0.231445	-0.544922	-0.032227	-0.374973	-0.553085	-0.599956	0.398438	0.808594	-0.046875	1023	16_15_02_9519670
0.234375	-0.539063	-0.026367	-0.374973	-0.553085	-0.599956	0.515625	0.878906	-0.023438	1024	16_15_02_9680960
0.234375	-0.539063	-0.020508	-0.374973	-0.562459	-0.599956	0.421875	0.925781	-0.023438	1025	16_15_02_9842250
0.237305	-0.544922	-0.020508	-0.374973	-0.562459	-0.599956	0.480469	0.890625	-0.070313	1026	16_15_03_0003540
0.234375	-0.550781	-0.023438	-0.374973	-0.562459	-0.599956	0.480469	0.925781	-0.046875	1027	16_15_03_0164830
0.243164	-0.541992	-0.017578	-0.374973	-0.553085	-0.599956	0.609375	0.960938	0.023438	1028	16_15_03_0326120
0.234375	-0.544922	-0.026367	-0.374973	-0.562459	-0.599956	0.468750	0.937500	-0.082031	1029	16_15_03_0487410
0.243164	-0.544922	-0.026367	-0.374973	-0.562459	-0.599956	0.445313	0.937500	-0.070313	1030	16_15_03_0648700
0.225586	-0.550781	-0.026367	-0.384347	-0.562459	-0.599956	0.457031	0.914063	-0.046875	1031	16_15_03_0809990
0.231445	-0.544922	-0.026367	-0.374973	-0.562459	-0.599956	0.562500	0.890625	0.257813	1032	16_15_03_0971280
0.234375	-0.541992	-0.020508	-0.374973	-0.562459	-0.599956	0.410156	0.890625	-0.046875	1033	16_15_03_1132570
0.240234	-0.539063	-0.026367	-0.384347	-0.562459	-0.599956	0.410156	0.867188	-0.070313	1034	16_15_03_1293860
0.234375	-0.539063	-0.032227	-0.384347	-0.562459	-0.590582	0.457031	0.867188	-0.035156	1035	16_15_03_1455150
0.228516	-0.536133	-0.035156	-0.374973	-0.562459	-0.599956	0.539063	0.867188	-0.011719	1036	16_15_03_1616440
0.237305	-0.539063	-0.029297	-0.365598	-0.562459	-0.599956	0.421875	0.867188	-0.046875	1037	16_15_03_1777730
0.234375	-0.544922	-0.026367	-0.374973	-0.562459	-0.599956	0.445313	0.914063	-0.023438	1038	16_15_03_1939020
0.240234	-0.544922	-0.026367	-0.374973	-0.562459	-0.599956	0.433594	0.867188	-0.035156	1039	16_15_03_2100310
0.243164	-0.541992	-0.026367	-0.374973	-0.562459	-0.599956	0.445313	0.855469	-0.058594	1040	16_15_03_2261600
0.246094	-0.539063	-0.023438	-0.374973	-0.562459	-0.590582	0.445313	0.890625	-0.070313	1041	16_15_03_2422890
0.234375	-0.539063	-0.023438	-0.374973	-0.562459	-0.599956	0.445313	0.914063	-0.046875	1042	16_15_03_2584180
0.237305	-0.539063	-0.023438	-0.374973	-0.562459	-0.599956	0.503906	0.914063	0.210938	1043	16_15_03_2745470
0.225586	-0.547852	-0.020508	-0.374973	-0.562459	-0.599956	0.445313	0.867188	-0.023438	1044	16_15_03_2906760
0.231445	-0.539063	-0.029297	-0.374973	-0.562459	-0.590582	0.410156	0.890625	-0.058594	1045	16_15_03_3068050
0.240234	-0.541992	-0.023438	-0.374973	-0.562459	-0.599956	0.421875	0.820313	-0.035156	1046	16_15_03_3229340
0.234375	-0.539063	-0.017578	-0.374973	-0.562459	-0.590582	0.503906	0.867188	0.000000	1047	16_15_03_3390630
0.237305	-0.536133	-0.014648	-0.365598	-0.553085	-0.599956	0.902344	0.902344	0.152344	1048	16_15_03_3551920
0.228516	-0.544922	-0.041016	-0.374973	-0.553085	-0.599956	0.468750	0.914063	-0.023438	1049	16_15_03_3713210
0.234375	-0.553711	-0.032227	-0.374973	-0.562459	-0.599956	0.433594	0.867188	-0.035156	1050	16_15_03_3874500
0.228516	-0.533203	-0.032227	-0.374973	-0.562459	-0.599956	0.445313	0.855469	-0.058594	1051	16_15_03_4035790
0.234375	-0.541992	-0.002930	-0.374973	-0.562459	-0.599956	0.855469	0.890625	0.199219	1052	16_15_03_4197080
0.240234	-0.541992	-0.026367	-0.374973	-0.553085	-0.599956	0.433594	0.937500	-0.070313	1053	16_15_03_4358370
0.228516	-0.533203	-0.023438	-0.374973	-0.553085	-0.599956	0.527344	0.902344	0.328125	1054	16_15_03_4519660
0.228516	-0.544922	-0.029297	-0.365598	-0.562459	-0.590582	0.457031	0.937500	0.023438	1055	16_15_03_4680950
0.231445	-0.536133	-0.032227	-0.365598	-0.562459	-0.599956	0.609375	0.867188	0.035156	1056	16_15_03_4842240
0.240234	-0.536133	-0.029297	-0.374973	-0.562459	-0.599956	0.410156	0.890625	-0.023438	1057	16_15_03_5003530
0.246094	-0.550781	-0.029297	-0.374973	-0.562459	-0.599956	0.421875	0.902344	-0.046875	1058	16_15_03_5164820
0.234375	-0.550781	-0.026367	-0.374973	-0.553085	-0.599956	0.433594	0.855469	-0.058594	1059	16_15_03_5326110
0.228516	-0.539063	-0.029297	-0.374973	-0.553085	-0.599956	0.445313	0.902344	0.000000	1060	16_15_03_5487400
0.228516	-0.547852	-0.029297	-0.374973	-0.553085	-0.599956	0.421875	0.937500	0.023438	1061	16_15_03_5648690
0.228516	-0.536133	-0.026367	-0.365598	-0.562459	-0.599956	0.503906	0.902344	0.046875	1062	16_15_03_5809980
0.234375	-0.553711	-0.023438	-0.374973	-0.562459	-0.599956	0.457031	0.855469	0.046875	1063	16_15_03_5971270
0.234375	-0.544922	-0.026367	-0.374973	-0.562459	-0.599956	0.562500	0.914063	0.316406	1064	16_15_03_6132560
0.240234	-0.539063	-0.023438	-0.374973	-0.562459	-0.599956	0.433594	0.867188	-0.035156	1065	16_15_03_6293850
0.234375	-0.536133	-0.023438	-0.374973	-0.562459	-0.590582	0.445313	0.890625	-0.011719	1066	16_15_03_6455140
0.234375	-0.536133	-0.023438	-0.384347	-0.562459	-0.599956	0.410156	0.902344	-0.046875	1067	16_15_03_6616430
0.234375	-0.536133	-0.023438	-0.374973	-0.562459	-0.599956	0.457031	0.914063	-0.058594	1068	16_15_03_6777720
0.240234	-0.533203	-0.026367	-0.374973	-0.562459	-0.599956	0.421875	0.914063	-0.046875	1069	16_15_03_6939010
0.234375	-0.541992	-0.026367	-0.374973	-0.562459	-0.599956	0.445313	0.925781	0.000000	1070	16_15_03_7100300
0.240234	-0.541992	-0.020508	-0.374973	-0.562459	-0.599956	0.410156	0.914063	-0.011719	1071	16_15_03_7261590
0.240234	-0.544922	-0.029297	-0.374973	-0.562459	-0.599956	0.433594	0.890625	-0.058594	1072	16_15_03_7422880
0.234375	-0.536133	-0.023438	-0.374973	-0.562459	-0.599956	0.433594	0.855469	-0.093750	1073	16_15_03_7584170
0.231445	-0.539063	-0.032227	-0.374973	-0.562459	-0.599956	0.609375	0.855469	0.269531	1074	16_15_03_7745460
0.234375	-0.541992	-0.023438	-0.374973	-0.562459	-0.599956	0.445313	0.902344	0.023438	1075	16_15_03_7906750
0.234375	-0.533203	-0.029297	-0.374973	-0.562459	-0.599956	0.445313	0.937500	-0.023438	1076	16_15_03_8068040
0.240234	-0.533203	-0.026367	-0.374973	-0.562459	-0.599956	0.597656	0.914063	-0.035156	1077	16_15_03_8229330
0.237305	-0.533203	-0.020508	-0.374973	-0.553085	-0.599956	0.445313	0.914063	-0.058594	1078	16_15_03_8390620
0.222656	-0.547852	-0.032227	-0.374973	-0.562459	-0.599956	0.433594	0.890625	-0.046875	1079	16_15_03_8551910
0.234375	-0.547852	-0.026367	-0.374973	-0.562459	-0.599956	0.410156	0.843750	-0.046875	1080	16_15_03_8713200
0.240234	-0.550781	-0.023438	-0.384347	-0.562459	-0.590582	0.433594	0.878906	0.000000	1081	16_15_03_8874490
0.240234	-0.544922	-0.023438	-0.374973	-0.553085	-0.599956	0.445313	0.878906	0.000000	1082	16_15_03_9035780
0.234375	-0.544922	-0.023438	-0.374973	-0.562459	-0.599956	0.445313	0.890625	-0.046875	1083	16_15_03_9197070
0.243164	-0.544922	-0.011719	-0.374973	-0.562459	-0.599956	0.433594	0.937500	-0.023438	1084	16_15_03_9358360
0.240234	-0.547852	-0.029297	-0.374973	-0.553085	-0.599956	0.503906	0.890625	0.000000	1085	16_15_03_9519650
0.234375	-0.541992	-0.035156	-0.374973	-0.562459	-0.590582	0.433594	0.902344	-0.011719	1086	16_15_03_9680940
0.225586	-0.539063	-0.020508	-0.374973	-0.562459	-0.599956	0.433594	0.890625	0.011719	1087	16_15_03_9842230
0.228516	-0.544922	-0.017578	-0.374973	-0.562459	-0.599956	0.503906	0.832031	-0.011719	1088	16_15_04_0003520
0.246094	-0.539063	-0.026367	-0.365598	-0.553085	-0.599956	0.468750	0.832031	-0.058594	1089	16_15_04_0164810
0.228516	-0.544922	-0.014648	-0.384347	-0.553085	-0.599956	0.445313	0.867188	-0.046875	1090	16_15_04_0326100
0.225586	-0.541992	-0.035156	-0.374973	-0.562459	-0.599956	0.410156	0.902344	-0.035156	1091	16_15_04_0487390
0.225586	-0.544922	-0.029297	-0.374973	-0.562459	-0.599956	0.679688	0.914063	0.035156	1092	16_15_04_0648680
0.243164	-0.533203	-0.035156	-0.374973	-0.562459	-0.599956	0.855469	0.937500	0.152344	1093	16_15_04_0809970
0.234375	-0.541992	-0.023438	-0.374973	-0.562459	-0.599956	0.410156	0.914063	-0.058594	1094	16_15_04_0971260
0.234375	-0.539063	-0.020508	-0.374973	-0.553085	-0.599956	0.410156	0.925781	-0.058594	1095	16_15_04_1132550
0.237305	-0.553711	-0.026367	-0.374973	-0.562459	-0.599956	0.468750	0.914063	-0.046875	1096	16_15_04_1293840
0.231445	-0.536133	-0.023438	-0.374973	-0.562459	-0.599956	0.445313	0.902344	0.000000	1097	16_15_04_1455130
0.240234	-0.547852	-0.026367	-0.374973	-0.553085	-0.599956	0.574219	0.914063	0.058594	1098	16_15_04_1616420
0.240234	-0.544922	-0.020508	-0.374973	-0.562459	-0.599956	0.457031	0.949219	-0.023438	1099	16_15_04_1777710
0.240234	-0.544922	-0.020508	-0.374973	-0.562459	-0.599956	0.445313	0.914063	-0.046875	1100	16_15_04_1939000
0.240234	-0.544922	-0.023438	-0.374973	-0.562459	-0.599956	0.457031	0.890625	-0.046875	1101	16_15_04_2100290
0.228516	-0.550781	-0.023438	-0.374973	-0.553085	-0.599956	0.410156	0.902344	-0.046875	1102	16_15_04_2261580
0.234375	-0.550781	-0.032227	-0.374973	-0.553085	-0.599956	0.468750	0.855469	-0.058594	1103	16_15_04_2422870
0.237305	-0.530273	-0.020508	-0.374973	-0.562459	-0.599956	0.457031	0.902344	0.011719	1104	16_15_04_2584160
0.234375	-0.533203	-0.029297	-0.374973	-0.562459	-0.599956	0.667969	0.937500	0.410156	1105	16_15_04_2745450
0.240234	-0.536133	-0.032227	-0.374973	-0.562459	-0.599956	0.421875	0.914063	-0.011719	1106	16_15_04_2906740
0.237305	-0.533203	-0.029297	-0.374973	-0.562459	-0.599956	0.433594	0.925781	-0.023438	1107	16_15_04_3068030
0.231445	-0.547852	-0.035156	-0.374973	-0.562459	-0.599956	0.410156	0.914063	-0.023438	1108	16_15_04_3229320
0.240234	-0.536133	-0.026367	-0.374973	-0.562459	-0.599956	0.421875	0.914063	-0.070313	1109	16_15_04_3390610
0.225586	-0.544922	-0.023438	-0.374973	-0.562459	-0.599956	0.445313	0.914063	-0.046875	1110	16_15_04_3551900
0.231445	-0.544922	-0.029297	-0.374973	-0.562459	-0.599956	0.421875	0.867188	-0.035156	1111	16_15_04_3713190
0.240234	-0.544922	-0.032227	-0.374973	-0.562459	-0.599956	0.421875	0.902344	-0.035156	1112	16_15_04_3874480
