sensor_ID	000666015711
Accel_X	Accel_Y	Accel_Z	Roll	Pitch	Yaw	Mag_X	Mag_Y	Mag_Z	Count	SysTime
0.046875	-0.234375	0.706055	-0.712448	-0.224984	-0.487465	-0.339844	-0.082031	-0.175781	0	16_14_46_3430000
0.052734	-0.231445	0.697266	-0.712448	-0.224984	-0.478090	-0.339844	-0.082031	-0.117188	1	16_14_46_3591290
0.058594	-0.237305	0.706055	-0.712448	-0.215609	-0.487465	-0.339844	-0.070313	-0.117188	2	16_14_46_3752580
0.055664	-0.231445	0.697266	-0.712448	-0.224984	-0.478090	-0.339844	-0.093750	-0.140625	3	16_14_46_3913870
0.061523	-0.231445	0.700195	-0.712448	-0.224984	-0.478090	-0.328125	-0.093750	-0.140625	4	16_14_46_4075160
0.058594	-0.216797	0.706055	-0.712448	-0.224984	-0.487465	-0.140625	-0.023438	0.000000	5	16_14_46_4236450
0.058594	-0.216797	0.703125	-0.712448	-0.224984	-0.487465	-0.351563	-0.082031	-0.105469	6	16_14_46_4397740
0.058594	-0.228516	0.703125	-0.721823	-0.224984	-0.487465	-0.281250	0.058594	0.011719	7	16_14_46_4559030
0.052734	-0.228516	0.700195	-0.712448	-0.234358	-0.487465	-0.339844	-0.128906	-0.140625	8	16_14_46_4720320
0.064453	-0.228516	0.703125	-0.712448	-0.224984	-0.487465	-0.339844	-0.140625	-0.128906	9	16_14_46_4881610
0.052734	-0.231445	0.700195	-0.712448	-0.224984	-0.478090	-0.339844	-0.070313	-0.152344	10	16_14_46_5042900
0.061523	-0.231445	0.700195	-0.712448	-0.224984	-0.487465	-0.339844	-0.082031	-0.140625	11	16_14_46_5204190
0.058594	-0.228516	0.700195	-0.703074	-0.224984	-0.487465	-0.339844	-0.082031	-0.164063	12	16_14_46_5365480
0.046875	-0.228516	0.697266	-0.721823	-0.224984	-0.478090	-0.328125	-0.105469	-0.128906	13	16_14_46_5526770
0.070313	-0.222656	0.703125	-0.712448	-0.224984	-0.487465	-0.339844	-0.093750	-0.058594	14	16_14_46_5688060
0.061523	-0.216797	0.700195	-0.712448	-0.224984	-0.487465	-0.046875	-0.035156	0.128906	15	16_14_46_5849350
0.058594	-0.222656	0.700195	-0.712448	-0.224984	-0.487465	-0.339844	-0.082031	-0.046875	16	16_14_46_6010640
0.052734	-0.228516	0.700195	-0.712448	-0.224984	-0.487465	-0.363281	-0.117188	-0.070313	17	16_14_46_6171930
0.058594	-0.231445	0.694336	-0.712448	-0.224984	-0.487465	-0.339844	-0.117188	-0.140625	18	16_14_46_6333220
0.049805	-0.222656	0.691406	-0.712448	-0.224984	-0.487465	-0.339844	-0.093750	-0.140625	19	16_14_46_6494510
0.052734	-0.231445	0.691406	-0.712448	-0.234358	-0.478090	-0.351563	-0.105469	-0.175781	20	16_14_46_6655800
0.055664	-0.222656	0.703125	-0.712448	-0.224984	-0.487465	-0.339844	-0.082031	-0.187500	21	16_14_46_6817090
0.058594	-0.228516	0.706055	-0.712448	-0.224984	-0.487465	-0.339844	-0.093750	-0.140625	22	16_14_46_6978380
0.058594	-0.219727	0.700195	-0.712448	-0.224984	-0.487465	-0.351563	-0.070313	-0.117188	23	16_14_46_7139670
0.064453	-0.225586	0.700195	-0.712448	-0.234358	-0.478090	-0.339844	-0.105469	-0.164063	24	16_14_46_7300960
0.058594	-0.225586	0.711914	-0.721823	-0.234358	-0.487465	-0.351563	-0.140625	-0.164063	25	16_14_46_7462250
0.070313	-0.228516	0.694336	-0.712448	-0.224984	-0.487465	-0.351563	-0.093750	-0.105469	26	16_14_46_7623540
0.070313	-0.234375	0.697266	-0.712448	-0.224984	-0.478090	-0.351563	-0.117188	-0.140625	27	16_14_46_7784830
0.049805	-0.231445	0.691406	-0.721823	-0.224984	-0.478090	-0.281250	-0.058594	0.164063	28	16_14_46_7946120
0.046875	-0.219727	0.700195	-0.712448	-0.224984	-0.478090	-0.339844	-0.117188	-0.164063	29	16_14_46_8107410
0.052734	-0.225586	0.703125	-0.712448	-0.224984	-0.487465	-0.363281	-0.093750	-0.152344	30	16_14_46_8268700
0.061523	-0.231445	0.700195	-0.712448	-0.224984	-0.487465	-0.339844	-0.117188	-0.140625	31	16_14_46_8429990
0.049805	-0.228516	0.697266	-0.703074	-0.234358	-0.487465	-0.339844	-0.187500	-0.117188	32	16_14_46_8591280
0.058594	-0.231445	0.703125	-0.712448	-0.224984	-0.487465	-0.339844	-0.140625	-0.117188	33	16_14_46_8752570
0.055664	-0.234375	0.694336	-0.712448	-0.224984	-0.478090	-0.339844	-0.082031	-0.105469	34	16_14_46_8913860
0.064453	-0.225586	0.700195	-0.712448	-0.234358	-0.478090	-0.339844	-0.093750	-0.105469	35	16_14_46_9075150
0.061523	-0.225586	0.700195	-0.712448	-0.224984	-0.478090	-0.351563	-0.117188	-0.128906	36	16_14_46_9236440
0.055664	-0.234375	0.694336	-0.712448	-0.224984	-0.478090	-0.351563	-0.093750	-0.117188	37	16_14_46_9397730
0.064453	-0.231445	0.706055	-0.712448	-0.224984	-0.478090	-0.339844	-0.093750	-0.117188	38	16_14_46_9559020
0.067383	-0.231445	0.700195	-0.703074	-0.224984	-0.478090	-0.339844	-0.117188	-0.140625	39	16_14_46_9720310
0.058594	-0.228516	0.711914	-0.712448	-0.224984	-0.487465	-0.339844	-0.082031	-0.093750	40	16_14_46_9881600
0.058594	-0.225586	0.694336	-0.712448	-0.224984	-0.487465	-0.339844	-0.105469	-0.093750	41	16_14_47_0042890
0.064453	-0.228516	0.700195	-0.712448	-0.224984	-0.487465	-0.304688	-0.140625	-0.128906	42	16_14_47_0204180
0.058594	-0.225586	0.700195	-0.712448	-0.224984	-0.478090	-0.339844	-0.105469	-0.128906	43	16_14_47_0365470
0.058594	-0.219727	0.711914	-0.731197	-0.224984	-0.478090	-0.222656	-0.070313	-0.058594	44	16_14_47_0526760
0.052734	-0.210938	0.700195	-0.712448	-0.224984	-0.478090	-0.339844	-0.093750	-0.164063	45	16_14_47_0688050
0.052734	-0.225586	0.694336	-0.721823	-0.224984	-0.487465	-0.140625	-0.058594	-0.023438	46	16_14_47_0849340
0.052734	-0.225586	0.700195	-0.712448	-0.224984	-0.478090	-0.339844	-0.082031	-0.105469	47	16_14_47_1010630
0.064453	-0.228516	0.697266	-0.712448	-0.224984	-0.487465	-0.339844	-0.082031	-0.140625	48	16_14_47_1171920
0.058594	-0.234375	0.706055	-0.712448	-0.224984	-0.487465	-0.339844	-0.082031	-0.152344	49	16_14_47_1333210
0.046875	-0.222656	0.706055	-0.712448	-0.224984	-0.478090	-0.339844	-0.082031	-0.093750	50	16_14_47_1494500
0.058594	-0.228516	0.688477	-0.703074	-0.224984	-0.478090	-0.339844	-0.082031	-0.058594	51	16_14_47_1655790
0.064453	-0.228516	0.703125	-0.712448	-0.224984	-0.487465	-0.339844	-0.093750	-0.105469	52	16_14_47_1817080
0.061523	-0.231445	0.700195	-0.712448	-0.224984	-0.478090	-0.351563	-0.117188	-0.164063	53	16_14_47_1978370
0.058594	-0.228516	0.700195	-0.712448	-0.224984	-0.478090	-0.339844	-0.093750	-0.117188	54	16_14_47_2139660
0.046875	-0.231445	0.703125	-0.712448	-0.224984	-0.487465	-0.339844	-0.105469	-0.117188	55	16_14_47_2300950
0.055664	-0.222656	0.697266	-0.712448	-0.224984	-0.487465	-0.339844	-0.070313	-0.105469	56	16_14_47_2462240
0.058594	-0.216797	0.706055	-0.712448	-0.224984	-0.487465	-0.339844	-0.082031	-0.105469	57	16_14_47_2623530
0.067383	-0.228516	0.700195	-0.712448	-0.224984	-0.487465	-0.339844	-0.093750	-0.140625	58	16_14_47_2784820
0.061523	-0.225586	0.703125	-0.712448	-0.224984	-0.487465	-0.339844	-0.105469	-0.093750	59	16_14_47_2946110
0.064453	-0.222656	0.706055	-0.712448	-0.224984	-0.478090	-0.339844	-0.082031	-0.105469	60	16_14_47_3107400
0.052734	-0.225586	0.703125	-0.712448	-0.224984	-0.487465	-0.363281	-0.105469	-0.070313	61	16_14_47_3268690
0.055664	-0.234375	0.706055	-0.712448	-0.224984	-0.487465	-0.339844	-0.082031	-0.128906	62	16_14_47_3429980
0.061523	-0.228516	0.703125	-0.712448	-0.224984	-0.478090	-0.339844	-0.082031	-0.105469	63	16_14_47_3591270
0.055664	-0.228516	0.694336	-0.712448	-0.224984	-0.478090	-0.363281	-0.082031	-0.164063	64	16_14_47_3752560
0.061523	-0.216797	0.706055	-0.712448	-0.224984	-0.487465	-0.292969	-0.058594	-0.093750	65	16_14_47_3913850
0.070313	-0.234375	0.700195	-0.712448	-0.224984	-0.487465	-0.339844	-0.105469	-0.070313	66	16_14_47_4075140
0.064453	-0.222656	0.700195	-0.712448	-0.224984	-0.487465	-0.339844	-0.070313	-0.082031	67	16_14_47_4236430
0.052734	-0.228516	0.703125	-0.712448	-0.224984	-0.487465	-0.339844	-0.070313	-0.105469	68	16_14_47_4397720
0.049805	-0.222656	0.703125	-0.712448	-0.224984	-0.478090	-0.246094	-0.070313	0.058594	69	16_14_47_4559010
0.061523	-0.222656	0.694336	-0.712448	-0.224984	-0.487465	-0.339844	-0.023438	0.023438	70	16_14_47_4720300
0.058594	-0.231445	0.694336	-0.712448	-0.224984	-0.487465	-0.339844	-0.082031	-0.152344	71	16_14_47_4881590
0.061523	-0.228516	0.706055	-0.712448	-0.224984	-0.487465	-0.339844	-0.082031	-0.128906	72	16_14_47_5042880
0.055664	-0.234375	0.700195	-0.712448	-0.234358	-0.478090	-0.339844	-0.093750	-0.140625	73	16_14_47_5204170
0.058594	-0.222656	0.700195	-0.712448	-0.224984	-0.487465	-0.339844	-0.117188	-0.140625	74	16_14_47_5365460
0.058594	-0.225586	0.706055	-0.712448	-0.224984	-0.478090	-0.339844	-0.128906	-0.105469	75	16_14_47_5526750
0.052734	-0.228516	0.703125	-0.712448	-0.224984	-0.478090	-0.339844	-0.105469	-0.117188	76	16_14_47_5688040
0.052734	-0.219727	0.703125	-0.712448	-0.224984	-0.478090	-0.339844	-0.093750	-0.117188	77	16_14_47_5849330
0.058594	-0.225586	0.697266	-0.721823	-0.224984	-0.487465	-0.339844	-0.105469	-0.105469	78	16_14_47_6010620
0.058594	-0.222656	0.694336	-0.712448	-0.224984	-0.487465	-0.199219	-0.058594	0.117188	79	16_14_47_6171910
0.052734	-0.219727	0.694336	-0.712448	-0.224984	-0.487465	-0.339844	-0.082031	-0.093750	80	16_14_47_6333200
0.052734	-0.228516	0.694336	-0.712448	-0.224984	-0.478090	-0.339844	-0.023438	0.011719	81	16_14_47_6494490
0.058594	-0.222656	0.700195	-0.721823	-0.224984	-0.487465	-0.339844	-0.070313	-0.105469	82	16_14_47_6655780
0.061523	-0.225586	0.706055	-0.712448	-0.224984	-0.487465	-0.351563	-0.093750	-0.117188	83	16_14_47_6817070
0.064453	-0.219727	0.700195	-0.712448	-0.224984	-0.478090	-0.339844	-0.140625	-0.117188	84	16_14_47_6978360
0.055664	-0.231445	0.700195	-0.712448	-0.224984	-0.478090	-0.339844	-0.164063	-0.058594	85	16_14_47_7139650
0.070313	-0.225586	0.694336	-0.712448	-0.224984	-0.487465	-0.339844	-0.105469	-0.082031	86	16_14_47_7300940
0.049805	-0.225586	0.703125	-0.721823	-0.224984	-0.487465	-0.164063	-0.046875	0.000000	87	16_14_47_7462230
0.049805	-0.222656	0.700195	-0.712448	-0.224984	-0.487465	-0.363281	-0.082031	-0.093750	88	16_14_47_7623520
0.061523	-0.228516	0.691406	-0.712448	-0.224984	-0.487465	-0.339844	-0.082031	-0.152344	89	16_14_47_7784810
0.061523	-0.234375	0.703125	-0.712448	-0.224984	-0.478090	-0.351563	-0.082031	-0.152344	90	16_14_47_7946100
0.052734	-0.240234	0.703125	-0.712448	-0.224984	-0.487465	-0.363281	-0.082031	-0.058594	91	16_14_47_8107390
0.061523	-0.231445	0.706055	-0.712448	-0.224984	-0.487465	-0.339844	-0.093750	-0.117188	92	16_14_47_8268680
0.061523	-0.234375	0.706055	-0.712448	-0.224984	-0.487465	-0.375000	-0.117188	-0.152344	93	16_14_47_8429970
0.064453	-0.234375	0.700195	-0.712448	-0.224984	-0.487465	-0.339844	-0.093750	-0.093750	94	16_14_47_8591260
0.052734	-0.228516	0.706055	-0.712448	-0.224984	-0.478090	-0.339844	-0.128906	-0.140625	95	16_14_47_8752550
0.064453	-0.228516	0.703125	-0.712448	-0.224984	-0.478090	-0.339844	-0.117188	-0.117188	96	16_14_47_8913840
0.058594	-0.228516	0.700195	-0.712448	-0.224984	-0.478090	-0.339844	-0.082031	-0.082031	97	16_14_47_9075130
0.064453	-0.219727	0.703125	-0.721823	-0.224984	-0.487465	-0.140625	-0.046875	0.023438	98	16_14_47_9236420
0.064453	-0.234375	0.694336	-0.712448	-0.234358	-0.478090	-0.339844	-0.082031	-0.093750	99	16_14_47_9397710
0.052734	-0.231445	0.703125	-0.712448	-0.234358	-0.487465	-0.339844	-0.082031	-0.082031	100	16_14_47_9559000
0.055664	-0.225586	0.700195	-0.712448	-0.224984	-0.487465	-0.339844	-0.082031	-0.117188	101	16_14_47_9720290
0.049805	-0.234375	0.694336	-0.712448	-0.234358	-0.487465	-0.339844	-0.082031	-0.152344	102	16_14_47_9881580
0.049805	-0.213867	0.703125	-0.721823	-0.234358	-0.478090	-0.281250	-0.082031	-0.093750	103	16_14_48_0042870
0.067383	-0.225586	0.703125	-0.712448	-0.224984	-0.487465	-0.351563	-0.105469	-0.128906	104	16_14_48_0204160
0.055664	-0.234375	0.697266	-0.712448	-0.224984	-0.487465	-0.339844	-0.093750	-0.140625	105	16_14_48_0365450
0.052734	-0.225586	0.703125	-0.721823	-0.224984	-0.487465	-0.246094	-0.082031	-0.117188	106	16_14_48_0526740
0.067383	-0.231445	0.700195	-0.712448	-0.234358	-0.487465	-0.363281	-0.117188	-0.140625	107	16_14_48_0688030
0.058594	-0.231445	0.703125	-0.712448	-0.224984	-0.478090	-0.339844	-0.082031	-0.105469	108	16_14_48_0849320
0.046875	-0.234375	0.700195	-0.712448	-0.224984	-0.487465	-0.339844	-0.105469	-0.117188	109	16_14_48_1010610
0.064453	-0.222656	0.700195	-0.712448	-0.224984	-0.487465	-0.339844	-0.105469	-0.117188	110	16_14_48_1171900
0.041016	-0.216797	0.694336	-0.712448	-0.224984	-0.487465	-0.351563	-0.117188	-0.128906	111	16_14_48_1333190
0.058594	-0.228516	0.700195	-0.712448	-0.224984	-0.487465	-0.363281	-0.117188	-0.152344	112	16_14_48_1494480
0.067383	-0.237305	0.694336	-0.712448	-0.224984	-0.478090	-0.339844	-0.082031	-0.128906	113	16_14_48_1655770
0.055664	-0.222656	0.711914	-0.712448	-0.243732	-0.487465	-0.339844	-0.093750	-0.117188	114	16_14_48_1817060
0.055664	-0.228516	0.700195	-0.712448	-0.224984	-0.487465	-0.339844	-0.105469	-0.152344	115	16_14_48_1978350
0.049805	-0.225586	0.700195	-0.712448	-0.224984	-0.496839	-0.339844	-0.082031	-0.164063	116	16_14_48_2139640
0.067383	-0.231445	0.700195	-0.712448	-0.224984	-0.478090	-0.339844	-0.093750	-0.175781	117	16_14_48_2300930
0.064453	-0.231445	0.703125	-0.712448	-0.234358	-0.478090	-0.339844	-0.093750	-0.105469	118	16_14_48_2462220
0.049805	-0.234375	0.694336	-0.712448	-0.224984	-0.487465	-0.339844	-0.117188	-0.082031	119	16_14_48_2623510
0.058594	-0.225586	0.703125	-0.712448	-0.224984	-0.487465	-0.351563	-0.082031	-0.128906	120	16_14_48_2784800
0.064453	-0.231445	0.697266	-0.721823	-0.234358	-0.478090	-0.257813	-0.046875	0.222656	121	16_14_48_2946090
0.052734	-0.225586	0.691406	-0.712448	-0.224984	-0.487465	-0.339844	-0.105469	-0.152344	122	16_14_48_3107380
0.055664	-0.216797	0.694336	-0.712448	-0.224984	-0.487465	-0.339844	-0.082031	-0.093750	123	16_14_48_3268670
0.052734	-0.237305	0.694336	-0.712448	-0.224984	-0.478090	-0.328125	-0.082031	-0.093750	124	16_14_48_3429960
0.058594	-0.222656	0.700195	-0.712448	-0.234358	-0.487465	-0.339844	-0.117188	-0.105469	125	16_14_48_3591250
0.064453	-0.225586	0.700195	-0.712448	-0.224984	-0.487465	-0.339844	-0.093750	-0.058594	126	16_14_48_3752540
0.058594	-0.225586	0.714844	-0.712448	-0.224984	-0.487465	-0.375000	-0.105469	-0.058594	127	16_14_48_3913830
0.058594	-0.234375	0.697266	-0.712448	-0.224984	-0.487465	-0.339844	-0.082031	-0.093750	128	16_14_48_4075120
0.061523	-0.234375	0.700195	-0.712448	-0.224984	-0.487465	-0.339844	-0.082031	-0.117188	129	16_14_48_4236410
0.049805	-0.228516	0.700195	-0.712448	-0.234358	-0.478090	-0.351563	-0.093750	-0.152344	130	16_14_48_4397700
0.055664	-0.228516	0.700195	-0.712448	-0.224984	-0.487465	-0.339844	-0.105469	-0.175781	131	16_14_48_4558990
0.055664	-0.219727	0.703125	-0.712448	-0.224984	-0.478090	-0.339844	-0.093750	-0.152344	132	16_14_48_4720280
0.055664	-0.219727	0.703125	-0.712448	-0.234358	-0.487465	-0.339844	-0.093750	-0.105469	133	16_14_48_4881570
0.058594	-0.219727	0.700195	-0.721823	-0.224984	-0.487465	-0.339844	-0.105469	-0.117188	134	16_14_48_5042860
0.049805	-0.228516	0.700195	-0.712448	-0.224984	-0.487465	-0.339844	-0.082031	-0.117188	135	16_14_48_5204150
0.061523	-0.228516	0.700195	-0.712448	-0.224984	-0.487465	-0.339844	-0.082031	-0.117188	136	16_14_48_5365440
0.064453	-0.234375	0.703125	-0.712448	-0.224984	-0.487465	-0.339844	-0.082031	-0.105469	137	16_14_48_5526730
0.061523	-0.228516	0.700195	-0.712448	-0.224984	-0.478090	-0.339844	-0.070313	-0.140625	138	16_14_48_5688020
0.052734	-0.222656	0.700195	-0.712448	-0.224984	-0.478090	-0.339844	-0.082031	-0.152344	139	16_14_48_5849310
0.061523	-0.225586	0.700195	-0.712448	-0.224984	-0.487465	-0.128906	-0.023438	0.000000	140	16_14_48_6010600
0.058594	-0.231445	0.697266	-0.721823	-0.224984	-0.478090	-0.339844	-0.082031	-0.105469	141	16_14_48_6171890
0.049805	-0.231445	0.706055	-0.712448	-0.224984	-0.478090	-0.339844	-0.082031	-0.128906	142	16_14_48_6333180
0.061523	-0.231445	0.703125	-0.703074	-0.224984	-0.487465	-0.339844	-0.070313	-0.082031	143	16_14_48_6494470
0.067383	-0.219727	0.703125	-0.712448	-0.224984	-0.478090	-0.339844	-0.093750	-0.105469	144	16_14_48_6655760
0.049805	-0.222656	0.706055	-0.712448	-0.224984	-0.487465	-0.363281	-0.117188	-0.128906	145	16_14_48_6817050
0.052734	-0.225586	0.688477	-0.712448	-0.224984	-0.487465	-0.339844	-0.082031	-0.164063	146	16_14_48_6978340
0.058594	-0.216797	0.703125	-0.712448	-0.224984	-0.478090	-0.339844	-0.082031	-0.152344	147	16_14_48_7139630
0.064453	-0.219727	0.700195	-0.712448	-0.224984	-0.478090	-0.339844	-0.093750	-0.128906	148	16_14_48_7300920
0.052734	-0.228516	0.706055	-0.712448	-0.224984	-0.487465	-0.339844	-0.093750	-0.140625	149	16_14_48_7462210
0.064453	-0.228516	0.700195	-0.712448	-0.224984	-0.478090	-0.164063	-0.082031	-0.070313	150	16_14_48_7623500
0.067383	-0.228516	0.703125	-0.712448	-0.224984	-0.478090	-0.339844	-0.164063	-0.152344	151	16_14_48_7784790
0.064453	-0.225586	0.700195	-0.712448	-0.224984	-0.478090	-0.351563	-0.093750	-0.140625	152	16_14_48_7946080
0.052734	-0.213867	0.703125	-0.712448	-0.224984	-0.487465	-0.339844	-0.117188	-0.117188	153	16_14_48_8107370
0.058594	-0.240234	0.694336	-0.712448	-0.224984	-0.487465	-0.351563	-0.105469	-0.152344	154	16_14_48_8268660
0.055664	-0.216797	0.703125	-0.712448	-0.234358	-0.487465	-0.339844	-0.117188	-0.082031	155	16_14_48_8429950
0.055664	-0.234375	0.706055	-0.712448	-0.234358	-0.487465	-0.339844	-0.082031	-0.117188	156	16_14_48_8591240
0.058594	-0.225586	0.703125	-0.712448	-0.224984	-0.487465	-0.339844	-0.070313	-0.164063	157	16_14_48_8752530
0.055664	-0.222656	0.694336	-0.712448	-0.224984	-0.487465	-0.351563	-0.070313	-0.128906	158	16_14_48_8913820
0.055664	-0.219727	0.708984	-0.712448	-0.224984	-0.478090	-0.351563	-0.082031	-0.082031	159	16_14_48_9075110
0.058594	-0.225586	0.706055	-0.712448	-0.224984	-0.478090	-0.339844	-0.093750	-0.128906	160	16_14_48_9236400
0.055664	-0.228516	0.694336	-0.712448	-0.224984	-0.487465	-0.339844	-0.082031	-0.187500	161	16_14_48_9397690
0.052734	-0.222656	0.703125	-0.712448	-0.224984	-0.487465	-0.339844	-0.082031	-0.175781	162	16_14_48_9558980
0.067383	-0.228516	0.700195	-0.712448	-0.224984	-0.478090	-0.339844	-0.082031	-0.152344	163	16_14_48_9720270
0.052734	-0.228516	0.703125	-0.712448	-0.224984	-0.478090	-0.339844	-0.105469	-0.152344	164	16_14_48_9881560
0.061523	-0.222656	0.697266	-0.712448	-0.234358	-0.478090	-0.292969	-0.105469	0.046875	165	16_14_49_0042850
0.058594	-0.222656	0.708984	-0.712448	-0.224984	-0.478090	-0.339844	-0.093750	-0.140625	166	16_14_49_0204140
0.052734	-0.219727	0.700195	-0.721823	-0.224984	-0.478090	-0.339844	-0.093750	-0.140625	167	16_14_49_0365430
0.052734	-0.234375	0.700195	-0.712448	-0.224984	-0.478090	-0.351563	-0.093750	-0.128906	168	16_14_49_0526720
0.052734	-0.216797	0.694336	-0.703074	-0.224984	-0.478090	-0.339844	-0.117188	-0.140625	169	16_14_49_0688010
0.046875	-0.228516	0.703125	-0.721823	-0.224984	-0.478090	-0.328125	-0.082031	-0.105469	170	16_14_49_0849300
0.070313	-0.228516	0.697266	-0.712448	-0.224984	-0.487465	-0.339844	-0.082031	-0.117188	171	16_14_49_1010590
0.061523	-0.225586	0.697266	-0.712448	-0.224984	-0.487465	-0.339844	-0.082031	-0.117188	172	16_14_49_1171880
0.049805	-0.225586	0.700195	-0.712448	-0.224984	-0.487465	-0.339844	-0.082031	-0.105469	173	16_14_49_1333170
0.070313	-0.225586	0.711914	-0.721823	-0.224984	-0.487465	-0.339844	-0.082031	-0.093750	174	16_14_49_1494460
0.064453	-0.225586	0.706055	-0.712448	-0.224984	-0.487465	-0.351563	-0.093750	-0.128906	175	16_14_49_1655750
0.064453	-0.228516	0.700195	-0.712448	-0.234358	-0.478090	-0.339844	-0.082031	-0.128906	176	16_14_49_1817040
0.052734	-0.231445	0.700195	-0.712448	-0.224984	-0.478090	-0.351563	-0.093750	-0.164063	177	16_14_49_1978330
0.061523	-0.219727	0.691406	-0.712448	-0.224984	-0.487465	-0.339844	-0.105469	-0.152344	178	16_14_49_2139620
0.055664	-0.234375	0.700195	-0.712448	-0.224984	-0.478090	-0.339844	-0.093750	-0.175781	179	16_14_49_2300910
0.052734	-0.225586	0.697266	-0.712448	-0.224984	-0.487465	-0.339844	-0.082031	-0.164063	180	16_14_49_2462200
0.064453	-0.222656	0.694336	-0.712448	-0.224984	-0.487465	-0.328125	-0.070313	-0.164063	181	16_14_49_2623490
0.055664	-0.222656	0.703125	-0.712448	-0.224984	-0.487465	-0.339844	-0.082031	-0.175781	182	16_14_49_2784780
0.064453	-0.231445	0.700195	-0.712448	-0.224984	-0.487465	-0.339844	-0.093750	-0.152344	183	16_14_49_2946070
0.061523	-0.231445	0.700195	-0.712448	-0.224984	-0.487465	-0.339844	-0.117188	-0.117188	184	16_14_49_3107360
0.055664	-0.219727	0.706055	-0.712448	-0.234358	-0.487465	-0.339844	-0.082031	0.082031	185	16_14_49_3268650
0.058594	-0.222656	0.697266	-0.712448	-0.224984	-0.478090	-0.339844	-0.082031	-0.140625	186	16_14_49_3429940
0.049805	-0.234375	0.706055	-0.712448	-0.224984	-0.487465	-0.339844	-0.082031	-0.187500	187	16_14_49_3591230
0.049805	-0.228516	0.694336	-0.712448	-0.224984	-0.478090	-0.351563	-0.082031	-0.152344	188	16_14_49_3752520
0.061523	-0.228516	0.706055	-0.712448	-0.224984	-0.478090	-0.339844	-0.082031	-0.152344	189	16_14_49_3913810
0.055664	-0.222656	0.706055	-0.721823	-0.224984	-0.478090	-0.222656	-0.011719	-0.117188	190	16_14_49_4075100
0.055664	-0.234375	0.700195	-0.712448	-0.224984	-0.478090	-0.339844	-0.093750	-0.117188	191	16_14_49_4236390
0.061523	-0.231445	0.688477	-0.712448	-0.224984	-0.487465	-0.339844	-0.093750	-0.082031	192	16_14_49_4397680
0.064453	-0.231445	0.688477	-0.712448	-0.224984	-0.487465	-0.339844	-0.117188	-0.105469	193	16_14_49_4558970
0.061523	-0.228516	0.703125	-0.712448	-0.234358	-0.487465	-0.339844	-0.093750	-0.117188	194	16_14_49_4720260
0.058594	-0.228516	0.700195	-0.712448	-0.234358	-0.478090	-0.339844	-0.117188	-0.117188	195	16_14_49_4881550
0.058594	-0.222656	0.706055	-0.712448	-0.224984	-0.487465	-0.292969	-0.093750	-0.093750	196	16_14_49_5042840
0.055664	-0.228516	0.694336	-0.712448	-0.224984	-0.478090	-0.339844	-0.093750	-0.105469	197	16_14_49_5204130
0.061523	-0.228516	0.706055	-0.712448	-0.224984	-0.478090	-0.339844	-0.128906	-0.140625	198	16_14_49_5365420
0.061523	-0.234375	0.703125	-0.712448	-0.224984	-0.487465	-0.363281	-0.093750	-0.117188	199	16_14_49_5526710
0.058594	-0.225586	0.703125	-0.712448	-0.224984	-0.478090	-0.339844	-0.082031	-0.117188	200	16_14_49_5688000
0.055664	-0.228516	0.703125	-0.712448	-0.234358	-0.487465	-0.339844	-0.082031	-0.093750	201	16_14_49_5849290
0.061523	-0.222656	0.711914	-0.712448	-0.224984	-0.478090	-0.339844	-0.093750	-0.117188	202	16_14_49_6010580
0.064453	-0.222656	0.697266	-0.721823	-0.224984	-0.478090	-0.164063	0.046875	-0.035156	203	16_14_49_6171870
0.058594	-0.222656	0.694336	-0.721823	-0.224984	-0.487465	-0.316406	-0.070313	-0.140625	204	16_14_49_6333160
0.058594	-0.231445	0.700195	-0.712448	-0.224984	-0.478090	-0.339844	-0.082031	-0.140625	205	16_14_49_6494450
0.049805	-0.231445	0.700195	-0.712448	-0.224984	-0.487465	-0.339844	-0.093750	-0.093750	206	16_14_49_6655740
0.058594	-0.228516	0.700195	-0.712448	-0.224984	-0.487465	-0.339844	-0.117188	-0.082031	207	16_14_49_6817030
0.055664	-0.228516	0.708984	-0.712448	-0.224984	-0.487465	-0.339844	-0.070313	-0.105469	208	16_14_49_6978320
0.058594	-0.225586	0.700195	-0.712448	-0.224984	-0.487465	-0.339844	-0.082031	-0.152344	209	16_14_49_7139610
0.049805	-0.228516	0.700195	-0.712448	-0.224984	-0.478090	-0.339844	-0.117188	-0.152344	210	16_14_49_7300900
0.055664	-0.222656	0.700195	-0.712448	-0.224984	-0.478090	-0.339844	-0.070313	-0.152344	211	16_14_49_7462190
0.061523	-0.228516	0.700195	-0.712448	-0.224984	-0.478090	-0.339844	-0.082031	-0.128906	212	16_14_49_7623480
0.055664	-0.222656	0.700195	-0.712448	-0.224984	-0.478090	-0.339844	-0.082031	-0.117188	213	16_14_49_7784770
0.061523	-0.231445	0.703125	-0.712448	-0.224984	-0.487465	-0.339844	-0.070313	-0.082031	214	16_14_49_7946060
0.046875	-0.240234	0.694336	-0.712448	-0.224984	-0.478090	-0.339844	-0.082031	-0.105469	215	16_14_49_8107350
0.049805	-0.234375	0.691406	-0.712448	-0.224984	-0.487465	-0.339844	-0.093750	-0.140625	216	16_14_49_8268640
0.064453	-0.219727	0.703125	-0.731197	-0.224984	-0.478090	-0.292969	-0.082031	-0.128906	217	16_14_49_8429930
0.055664	-0.231445	0.706055	-0.712448	-0.224984	-0.487465	-0.339844	-0.082031	-0.164063	218	16_14_49_8591220
0.046875	-0.231445	0.691406	-0.712448	-0.224984	-0.487465	-0.339844	-0.093750	-0.152344	219	16_14_49_8752510
0.049805	-0.228516	0.700195	-0.712448	-0.234358	-0.478090	-0.339844	-0.117188	-0.152344	220	16_14_49_8913800
0.058594	-0.219727	0.700195	-0.712448	-0.224984	-0.487465	-0.339844	-0.082031	-0.175781	221	16_14_49_9075090
0.049805	-0.228516	0.703125	-0.712448	-0.224984	-0.487465	-0.339844	-0.082031	-0.152344	222	16_14_49_9236380
0.058594	-0.222656	0.694336	-0.712448	-0.234358	-0.487465	-0.339844	-0.093750	-0.140625	223	16_14_49_9397670
0.052734	-0.225586	0.703125	-0.712448	-0.224984	-0.487465	-0.339844	-0.093750	-0.152344	224	16_14_49_9558960
0.058594	-0.231445	0.703125	-0.712448	-0.224984	-0.487465	-0.339844	-0.082031	-0.140625	225	16_14_49_9720250
0.052734	-0.216797	0.694336	-0.712448	-0.224984	-0.487465	-0.339844	-0.082031	-0.117188	226	16_14_49_9881540
0.070313	-0.228516	0.697266	-0.712448	-0.224984	-0.487465	-0.292969	-0.082031	-0.117188	227	16_14_50_0042830
0.070313	-0.222656	0.703125	-0.712448	-0.234358	-0.478090	-0.339844	-0.082031	-0.152344	228	16_14_50_0204120
0.049805	-0.228516	0.700195	-0.712448	-0.224984	-0.478090	-0.339844	-0.105469	-0.128906	229	16_14_50_0365410
0.070313	-0.222656	0.688477	-0.712448	-0.224984	-0.478090	-0.339844	-0.140625	-0.128906	230	16_14_50_0526700
0.061523	-0.222656	0.700195	-0.712448	-0.224984	-0.478090	-0.339844	-0.117188	-0.105469	231	16_14_50_0687990
0.052734	-0.228516	0.691406	-0.712448	-0.224984	-0.478090	-0.339844	-0.105469	-0.093750	232	16_14_50_0849280
0.058594	-0.237305	0.700195	-0.721823	-0.224984	-0.487465	-0.328125	-0.128906	-0.082031	233	16_14_50_1010570
0.055664	-0.234375	0.703125	-0.712448	-0.234358	-0.478090	-0.339844	-0.093750	-0.117188	234	16_14_50_1171860
0.049805	-0.216797	0.700195	-0.721823	-0.234358	-0.487465	-0.316406	-0.082031	-0.140625	235	16_14_50_1333150
0.043945	-0.225586	0.700195	-0.712448	-0.224984	-0.487465	-0.339844	-0.117188	-0.128906	236	16_14_50_1494440
0.061523	-0.225586	0.700195	-0.712448	-0.224984	-0.487465	-0.339844	-0.082031	-0.128906	237	16_14_50_1655730
0.052734	-0.228516	0.697266	-0.712448	-0.224984	-0.478090	-0.339844	-0.093750	-0.105469	238	16_14_50_1817020
0.064453	-0.222656	0.694336	-0.712448	-0.224984	-0.478090	-0.339844	-0.117188	-0.093750	239	16_14_50_1978310
0.070313	-0.225586	0.708984	-0.712448	-0.224984	-0.487465	-0.339844	-0.082031	-0.128906	240	16_14_50_2139600
0.064453	-0.225586	0.700195	-0.712448	-0.234358	-0.487465	-0.339844	-0.082031	-0.140625	241	16_14_50_2300890
0.064453	-0.225586	0.700195	-0.712448	-0.234358	-0.487465	-0.339844	-0.093750	-0.128906	242	16_14_50_2462180
0.061523	-0.225586	0.703125	-0.712448	-0.234358	-0.487465	-0.187500	-0.023438	-0.070313	243	16_14_50_2623470
0.058594	-0.231445	0.700195	-0.712448	-0.224984	-0.478090	-0.339844	-0.082031	-0.128906	244	16_14_50_2784760
0.058594	-0.222656	0.700195	-0.721823	-0.224984	-0.487465	-0.339844	-0.082031	-0.117188	245	16_14_50_2946050
0.061523	-0.234375	0.706055	-0.712448	-0.224984	-0.487465	-0.339844	-0.082031	-0.105469	246	16_14_50_3107340
0.049805	-0.222656	0.700195	-0.712448	-0.224984	-0.478090	-0.363281	-0.082031	-0.093750	247	16_14_50_3268630
0.058594	-0.216797	0.700195	-0.712448	-0.224984	-0.487465	-0.316406	-0.093750	-0.105469	248	16_14_50_3429920
0.064453	-0.234375	0.697266	-0.712448	-0.224984	-0.487465	-0.339844	-0.082031	-0.117188	249	16_14_50_3591210
0.058594	-0.222656	0.700195	-0.712448	-0.224984	-0.487465	-0.351563	-0.093750	-0.152344	250	16_14_50_3752500
0.067383	-0.225586	0.706055	-0.712448	-0.224984	-0.487465	-0.292969	-0.070313	-0.140625	251	16_14_50_3913790
0.046875	-0.228516	0.706055	-0.721823	-0.234358	-0.487465	-0.339844	-0.117188	-0.105469	252	16_14_50_4075080
0.058594	-0.234375	0.706055	-0.712448	-0.224984	-0.478090	-0.339844	-0.082031	-0.105469	253	16_14_50_4236370
0.052734	-0.222656	0.700195	-0.712448	-0.224984	-0.478090	-0.339844	-0.117188	-0.128906	254	16_14_50_4397660
0.058594	-0.234375	0.703125	-0.712448	-0.224984	-0.487465	-0.339844	-0.082031	-0.164063	255	16_14_50_4558950
0.061523	-0.222656	0.697266	-0.712448	-0.234358	-0.478090	-0.351563	-0.082031	-0.164063	256	16_14_50_4720240
0.052734	-0.225586	0.700195	-0.712448	-0.224984	-0.478090	-0.339844	-0.082031	-0.128906	257	16_14_50_4881530
0.046875	-0.231445	0.700195	-0.712448	-0.224984	-0.487465	-0.328125	-0.082031	-0.140625	258	16_14_50_5042820
0.058594	-0.234375	0.691406	-0.712448	-0.224984	-0.478090	-0.339844	-0.117188	-0.164063	259	16_14_50_5204110
0.052734	-0.231445	0.694336	-0.712448	-0.243732	-0.487465	-0.339844	-0.105469	-0.105469	260	16_14_50_5365400
0.052734	-0.234375	0.706055	-0.712448	-0.224984	-0.487465	-0.339844	-0.093750	-0.070313	261	16_14_50_5526690
0.061523	-0.228516	0.700195	-0.712448	-0.234358	-0.487465	-0.339844	-0.117188	-0.152344	262	16_14_50_5687980
0.058594	-0.231445	0.703125	-0.721823	-0.234358	-0.487465	-0.328125	-0.082031	-0.128906	263	16_14_50_5849270
0.049805	-0.222656	0.700195	-0.712448	-0.234358	-0.487465	-0.339844	-0.117188	-0.082031	264	16_14_50_6010560
0.061523	-0.222656	0.703125	-0.712448	-0.224984	-0.487465	-0.339844	-0.082031	-0.128906	265	16_14_50_6171850
0.052734	-0.219727	0.700195	-0.712448	-0.234358	-0.487465	-0.339844	-0.105469	-0.117188	266	16_14_50_6333140
0.061523	-0.231445	0.700195	-0.721823	-0.234358	-0.487465	-0.339844	-0.093750	-0.140625	267	16_14_50_6494430
0.055664	-0.222656	0.694336	-0.721823	-0.224984	-0.478090	-0.304688	-0.046875	0.000000	268	16_14_50_6655720
0.058594	-0.222656	0.700195	-0.703074	-0.224984	-0.487465	-0.351563	-0.093750	-0.140625	269	16_14_50_6817010
0.058594	-0.228516	0.706055	-0.712448	-0.234358	-0.487465	-0.339844	-0.093750	-0.140625	270	16_14_50_6978300
0.046875	-0.216797	0.706055	-0.712448	-0.224984	-0.478090	-0.339844	-0.082031	-0.128906	271	16_14_50_7139590
0.061523	-0.228516	0.694336	-0.721823	-0.224984	-0.478090	-0.339844	-0.093750	-0.128906	272	16_14_50_7300880
0.052734	-0.234375	0.697266	-0.712448	-0.224984	-0.487465	-0.339844	-0.082031	-0.140625	273	16_14_50_7462170
0.064453	-0.228516	0.700195	-0.712448	-0.234358	-0.487465	-0.339844	-0.070313	-0.140625	274	16_14_50_7623460
0.049805	-0.240234	0.700195	-0.712448	-0.234358	-0.487465	-0.339844	-0.093750	-0.105469	275	16_14_50_7784750
0.058594	-0.213867	0.700195	-0.712448	-0.224984	-0.478090	-0.351563	-0.117188	-0.058594	276	16_14_50_7946040
0.052734	-0.237305	0.703125	-0.712448	-0.224984	-0.487465	-0.339844	-0.105469	-0.058594	277	16_14_50_8107330
0.041016	-0.219727	0.700195	-0.712448	-0.234358	-0.487465	-0.339844	-0.082031	-0.105469	278	16_14_50_8268620
0.052734	-0.228516	0.706055	-0.721823	-0.234358	-0.487465	-0.339844	-0.082031	-0.140625	279	16_14_50_8429910
0.061523	-0.231445	0.700195	-0.712448	-0.224984	-0.487465	-0.339844	-0.093750	-0.152344	280	16_14_50_8591200
0.041016	-0.219727	0.700195	-0.721823	-0.243732	-0.478090	-0.269531	-0.093750	-0.117188	281	16_14_50_8752490
0.058594	-0.231445	0.694336	-0.712448	-0.224984	-0.487465	-0.339844	-0.082031	-0.152344	282	16_14_50_8913780
0.061523	-0.228516	0.691406	-0.712448	-0.224984	-0.487465	-0.386719	-0.070313	-0.140625	283	16_14_50_9075070
0.052734	-0.225586	0.700195	-0.712448	-0.224984	-0.487465	-0.351563	-0.082031	-0.152344	284	16_14_50_9236360
0.070313	-0.228516	0.703125	-0.712448	-0.224984	-0.487465	-0.339844	-0.082031	-0.117188	285	16_14_50_9397650
0.052734	-0.228516	0.700195	-0.712448	-0.234358	-0.487465	-0.363281	-0.082031	-0.117188	286	16_14_50_9558940
0.052734	-0.222656	0.697266	-0.712448	-0.234358	-0.478090	-0.339844	-0.093750	-0.164063	287	16_14_50_9720230
0.049805	-0.225586	0.697266	-0.721823	-0.234358	-0.487465	-0.339844	-0.023438	0.023438	288	16_14_50_9881520
0.067383	-0.231445	0.706055	-0.721823	-0.234358	-0.487465	-0.304688	-0.070313	-0.128906	289	16_14_51_0042810
0.052734	-0.216797	0.700195	-0.712448	-0.234358	-0.487465	-0.339844	-0.128906	-0.152344	290	16_14_51_0204100
0.052734	-0.228516	0.694336	-0.712448	-0.234358	-0.487465	-0.339844	-0.117188	-0.175781	291	16_14_51_0365390
0.058594	-0.225586	0.691406	-0.712448	-0.234358	-0.478090	-0.339844	-0.082031	-0.175781	292	16_14_51_0526680
0.055664	-0.225586	0.700195	-0.712448	-0.224984	-0.487465	-0.339844	-0.105469	-0.164063	293	16_14_51_0687970
0.055664	-0.216797	0.703125	-0.712448	-0.224984	-0.487465	-0.339844	-0.105469	-0.117188	294	16_14_51_0849260
0.049805	-0.231445	0.703125	-0.721823	-0.224984	-0.487465	-0.257813	-0.070313	-0.082031	295	16_14_51_1010550
0.046875	-0.228516	0.700195	-0.712448	-0.234358	-0.487465	-0.339844	-0.070313	-0.128906	296	16_14_51_1171840
0.049805	-0.231445	0.700195	-0.712448	-0.234358	-0.487465	-0.339844	-0.082031	-0.140625	297	16_14_51_1333130
0.052734	-0.234375	0.694336	-0.731197	-0.234358	-0.478090	-0.257813	-0.058594	0.140625	298	16_14_51_1494420
0.061523	-0.219727	0.711914	-0.721823	-0.234358	-0.478090	-0.339844	-0.082031	-0.152344	299	16_14_51_1655710
0.058594	-0.225586	0.703125	-0.712448	-0.224984	-0.487465	-0.339844	-0.117188	-0.164063	300	16_14_51_1817000
0.052734	-0.219727	0.697266	-0.712448	-0.224984	-0.487465	-0.339844	-0.152344	-0.164063	301	16_14_51_1978290
0.058594	-0.228516	0.706055	-0.712448	-0.224984	-0.487465	-0.339844	-0.105469	-0.164063	302	16_14_51_2139580
0.064453	-0.222656	0.711914	-0.712448	-0.224984	-0.478090	-0.351563	-0.128906	-0.140625	303	16_14_51_2300870
0.061523	-0.231445	0.708984	-0.712448	-0.234358	-0.487465	-0.339844	-0.082031	-0.105469	304	16_14_51_2462160
0.055664	-0.234375	0.706055	-0.712448	-0.243732	-0.478090	-0.339844	-0.093750	-0.105469	305	16_14_51_2623450
0.052734	-0.228516	0.700195	-0.712448	-0.234358	-0.487465	-0.339844	-0.105469	-0.128906	306	16_14_51_2784740
0.064453	-0.228516	0.691406	-0.721823	-0.234358	-0.478090	-0.128906	-0.023438	0.152344	307	16_14_51_2946030
0.058594	-0.231445	0.691406	-0.712448	-0.224984	-0.487465	-0.339844	-0.082031	-0.128906	308	16_14_51_3107320
0.055664	-0.228516	0.706055	-0.712448	-0.224984	-0.487465	-0.339844	-0.082031	-0.128906	309	16_14_51_3268610
0.064453	-0.228516	0.700195	-0.731197	-0.224984	-0.487465	-0.292969	-0.058594	-0.070313	310	16_14_51_3429900
0.052734	-0.216797	0.700195	-0.712448	-0.224984	-0.487465	-0.316406	-0.082031	-0.082031	311	16_14_51_3591190
0.064453	-0.219727	0.700195	-0.712448	-0.224984	-0.487465	-0.339844	-0.105469	-0.117188	312	16_14_51_3752480
0.061523	-0.228516	0.703125	-0.721823	-0.234358	-0.487465	-0.339844	-0.082031	-0.128906	313	16_14_51_3913770
0.058594	-0.225586	0.700195	-0.712448	-0.224984	-0.487465	-0.339844	-0.105469	-0.128906	314	16_14_51_4075060
0.064453	-0.222656	0.694336	-0.712448	-0.224984	-0.487465	-0.210938	-0.082031	-0.046875	315	16_14_51_4236350
0.064453	-0.228516	0.703125	-0.712448	-0.224984	-0.487465	-0.339844	-0.093750	-0.152344	316	16_14_51_4397640
0.067383	-0.231445	0.700195	-0.712448	-0.224984	-0.478090	-0.339844	-0.128906	-0.164063	317	16_14_51_4558930
0.058594	-0.228516	0.703125	-0.712448	-0.234358	-0.478090	-0.351563	-0.164063	-0.093750	318	16_14_51_4720220
0.067383	-0.231445	0.703125	-0.712448	-0.224984	-0.478090	-0.339844	-0.117188	-0.105469	319	16_14_51_4881510
0.052734	-0.231445	0.706055	-0.712448	-0.224984	-0.478090	-0.339844	-0.117188	-0.128906	320	16_14_51_5042800
0.046875	-0.219727	0.706055	-0.712448	-0.224984	-0.487465	-0.281250	-0.058594	-0.128906	321	16_14_51_5204090
0.046875	-0.225586	0.700195	-0.712448	-0.224984	-0.487465	-0.339844	-0.093750	-0.164063	322	16_14_51_5365380
0.058594	-0.228516	0.697266	-0.712448	-0.234358	-0.487465	-0.339844	-0.082031	-0.140625	323	16_14_51_5526670
0.046875	-0.228516	0.697266	-0.712448	-0.224984	-0.487465	-0.375000	-0.093750	-0.128906	324	16_14_51_5687960
0.052734	-0.228516	0.694336	-0.712448	-0.234358	-0.478090	-0.339844	-0.082031	-0.152344	325	16_14_51_5849250
0.046875	-0.219727	0.700195	-0.712448	-0.224984	-0.478090	-0.386719	-0.082031	-0.175781	326	16_14_51_6010540
0.049805	-0.225586	0.703125	-0.712448	-0.224984	-0.487465	-0.339844	-0.082031	-0.128906	327	16_14_51_6171830
0.041016	-0.219727	0.703125	-0.712448	-0.234358	-0.487465	-0.187500	-0.070313	-0.035156	328	16_14_51_6333120
0.061523	-0.228516	0.700195	-0.712448	-0.234358	-0.487465	-0.351563	-0.093750	-0.175781	329	16_14_51_6494410
0.052734	-0.222656	0.708984	-0.712448	-0.234358	-0.487465	-0.351563	-0.082031	-0.164063	330	16_14_51_6655700
0.049805	-0.219727	0.706055	-0.712448	-0.234358	-0.487465	-0.339844	-0.082031	-0.164063	331	16_14_51_6816990
0.058594	-0.225586	0.700195	-0.712448	-0.234358	-0.487465	-0.339844	-0.082031	-0.140625	332	16_14_51_6978280
0.052734	-0.222656	0.706055	-0.712448	-0.234358	-0.487465	-0.339844	-0.082031	-0.128906	333	16_14_51_7139570
0.064453	-0.228516	0.703125	-0.712448	-0.224984	-0.487465	-0.339844	-0.093750	-0.164063	334	16_14_51_7300860
0.067383	-0.228516	0.706055	-0.712448	-0.234358	-0.487465	-0.339844	-0.105469	-0.128906	335	16_14_51_7462150
0.052734	-0.234375	0.697266	-0.712448	-0.224984	-0.478090	-0.351563	-0.093750	-0.093750	336	16_14_51_7623440
0.061523	-0.228516	0.700195	-0.712448	-0.224984	-0.478090	-0.339844	-0.082031	-0.058594	337	16_14_51_7784730
0.055664	-0.234375	0.703125	-0.712448	-0.234358	-0.478090	-0.339844	-0.082031	-0.082031	338	16_14_51_7946020
0.058594	-0.228516	0.708984	-0.721823	-0.234358	-0.487465	-0.339844	-0.082031	-0.152344	339	16_14_51_8107310
0.052734	-0.225586	0.700195	-0.712448	-0.234358	-0.478090	-0.339844	-0.082031	-0.175781	340	16_14_51_8268600
0.058594	-0.219727	0.700195	-0.712448	-0.234358	-0.478090	-0.339844	-0.093750	-0.105469	341	16_14_51_8429890
0.061523	-0.222656	0.703125	-0.712448	-0.224984	-0.487465	-0.339844	-0.082031	-0.105469	342	16_14_51_8591180
0.052734	-0.228516	0.700195	-0.712448	-0.224984	-0.478090	-0.339844	-0.082031	-0.082031	343	16_14_51_8752470
0.046875	-0.216797	0.697266	-0.712448	-0.224984	-0.487465	-0.339844	-0.117188	-0.082031	344	16_14_51_8913760
0.041016	-0.228516	0.700195	-0.721823	-0.234358	-0.478090	-0.234375	-0.140625	-0.023438	345	16_14_51_9075050
0.064453	-0.240234	0.694336	-0.721823	-0.234358	-0.487465	-0.339844	-0.082031	-0.070313	346	16_14_51_9236340
0.061523	-0.228516	0.700195	-0.712448	-0.234358	-0.487465	-0.339844	-0.093750	-0.152344	347	16_14_51_9397630
0.058594	-0.237305	0.700195	-0.712448	-0.224984	-0.487465	-0.339844	-0.082031	-0.152344	348	16_14_51_9558920
0.049805	-0.225586	0.700195	-0.712448	-0.234358	-0.487465	-0.339844	-0.093750	-0.093750	349	16_14_51_9720210
0.049805	-0.228516	0.700195	-0.712448	-0.224984	-0.478090	-0.375000	-0.082031	-0.105469	350	16_14_51_9881500
0.055664	-0.237305	0.700195	-0.712448	-0.234358	-0.487465	-0.339844	-0.093750	-0.128906	351	16_14_52_0042790
0.052734	-0.231445	0.703125	-0.721823	-0.224984	-0.487465	-0.316406	-0.117188	-0.093750	352	16_14_52_0204080
0.052734	-0.228516	0.694336	-0.712448	-0.234358	-0.487465	-0.351563	-0.082031	-0.152344	353	16_14_52_0365370
0.052734	-0.219727	0.703125	-0.712448	-0.234358	-0.487465	-0.328125	-0.093750	-0.117188	354	16_14_52_0526660
0.058594	-0.228516	0.700195	-0.712448	-0.234358	-0.478090	-0.339844	-0.105469	-0.128906	355	16_14_52_0687950
0.067383	-0.234375	0.694336	-0.712448	-0.234358	-0.487465	-0.339844	-0.082031	-0.164063	356	16_14_52_0849240
0.058594	-0.240234	0.700195	-0.712448	-0.224984	-0.487465	-0.339844	-0.082031	-0.105469	357	16_14_52_1010530
0.052734	-0.228516	0.703125	-0.712448	-0.224984	-0.487465	-0.375000	-0.082031	-0.105469	358	16_14_52_1171820
0.055664	-0.231445	0.697266	-0.712448	-0.234358	-0.487465	-0.199219	0.058594	-0.023438	359	16_14_52_1333110
0.049805	-0.222656	0.706055	-0.712448	-0.234358	-0.487465	-0.339844	-0.082031	-0.117188	360	16_14_52_1494400
0.052734	-0.231445	0.700195	-0.712448	-0.224984	-0.487465	-0.339844	-0.082031	-0.117188	361	16_14_52_1655690
0.064453	-0.228516	0.700195	-0.721823	-0.234358	-0.487465	-0.292969	-0.070313	-0.117188	362	16_14_52_1816980
0.067383	-0.228516	0.703125	-0.712448	-0.224984	-0.487465	-0.351563	-0.082031	-0.152344	363	16_14_52_1978270
0.052734	-0.225586	0.703125	-0.712448	-0.224984	-0.487465	-0.351563	-0.082031	-0.152344	364	16_14_52_2139560
0.055664	-0.228516	0.706055	-0.693700	-0.224984	-0.478090	-0.339844	-0.082031	-0.128906	365	16_14_52_2300850
0.049805	-0.228516	0.703125	-0.712448	-0.234358	-0.487465	-0.339844	-0.105469	-0.128906	366	16_14_52_2462140
0.055664	-0.216797	0.700195	-0.712448	-0.224984	-0.478090	-0.339844	-0.128906	-0.164063	367	16_14_52_2623430
0.061523	-0.222656	0.703125	-0.721823	-0.234358	-0.487465	-0.128906	-0.046875	0.023438	368	16_14_52_2784720
0.058594	-0.219727	0.703125	-0.712448	-0.224984	-0.487465	-0.339844	-0.105469	-0.093750	369	16_14_52_2946010
0.061523	-0.234375	0.700195	-0.712448	-0.224984	-0.487465	-0.339844	-0.105469	-0.140625	370	16_14_52_3107300
0.052734	-0.222656	0.697266	-0.721823	-0.224984	-0.478090	-0.339844	-0.082031	-0.128906	371	16_14_52_3268590
0.061523	-0.225586	0.700195	-0.712448	-0.234358	-0.478090	-0.339844	-0.058594	0.035156	372	16_14_52_3429880
0.064453	-0.231445	0.700195	-0.712448	-0.234358	-0.478090	-0.339844	-0.082031	-0.152344	373	16_14_52_3591170
0.058594	-0.231445	0.706055	-0.721823	-0.224984	-0.487465	-0.339844	-0.082031	-0.152344	374	16_14_52_3752460
0.061523	-0.222656	0.694336	-0.712448	-0.224984	-0.487465	-0.339844	-0.093750	-0.140625	375	16_14_52_3913750
0.052734	-0.225586	0.694336	-0.712448	-0.224984	-0.478090	-0.339844	-0.117188	-0.164063	376	16_14_52_4075040
0.055664	-0.222656	0.697266	-0.712448	-0.224984	-0.478090	-0.234375	-0.058594	-0.140625	377	16_14_52_4236330
0.052734	-0.231445	0.703125	-0.712448	-0.234358	-0.487465	-0.363281	-0.117188	-0.152344	378	16_14_52_4397620
0.052734	-0.219727	0.700195	-0.712448	-0.234358	-0.487465	-0.375000	-0.082031	-0.140625	379	16_14_52_4558910
0.046875	-0.228516	0.706055	-0.712448	-0.234358	-0.487465	-0.339844	-0.082031	-0.152344	380	16_14_52_4720200
0.052734	-0.222656	0.703125	-0.712448	-0.234358	-0.487465	-0.339844	-0.082031	-0.152344	381	16_14_52_4881490
0.052734	-0.228516	0.706055	-0.712448	-0.224984	-0.487465	-0.328125	-0.082031	-0.128906	382	16_14_52_5042780
0.055664	-0.219727	0.697266	-0.712448	-0.234358	-0.487465	-0.363281	-0.117188	-0.140625	383	16_14_52_5204070
0.064453	-0.228516	0.703125	-0.712448	-0.224984	-0.487465	-0.339844	-0.082031	-0.152344	384	16_14_52_5365360
0.052734	-0.240234	0.700195	-0.712448	-0.234358	-0.487465	-0.351563	-0.093750	-0.093750	385	16_14_52_5526650
0.052734	-0.222656	0.700195	-0.712448	-0.224984	-0.478090	-0.339844	-0.117188	-0.105469	386	16_14_52_5687940
0.061523	-0.234375	0.708984	-0.712448	-0.224984	-0.478090	-0.281250	-0.046875	-0.128906	387	16_14_52_5849230
0.058594	-0.228516	0.694336	-0.712448	-0.224984	-0.487465	-0.363281	-0.082031	-0.140625	388	16_14_52_6010520
0.061523	-0.234375	0.700195	-0.721823	-0.234358	-0.487465	-0.328125	-0.070313	-0.164063	389	16_14_52_6171810
0.058594	-0.216797	0.700195	-0.712448	-0.224984	-0.487465	-0.339844	-0.082031	-0.164063	390	16_14_52_6333100
0.052734	-0.225586	0.700195	-0.712448	-0.224984	-0.487465	-0.339844	-0.093750	-0.128906	391	16_14_52_6494390
0.061523	-0.219727	0.711914	-0.721823	-0.234358	-0.487465	-0.292969	-0.093750	-0.082031	392	16_14_52_6655680
0.055664	-0.228516	0.700195	-0.712448	-0.224984	-0.487465	-0.339844	-0.105469	-0.152344	393	16_14_52_6816970
0.061523	-0.228516	0.697266	-0.712448	-0.234358	-0.478090	-0.351563	-0.093750	-0.058594	394	16_14_52_6978260
0.058594	-0.225586	0.697266	-0.712448	-0.243732	-0.487465	-0.339844	-0.105469	-0.093750	395	16_14_52_7139550
0.064453	-0.228516	0.697266	-0.712448	-0.224984	-0.487465	-0.339844	-0.082031	-0.117188	396	16_14_52_7300840
0.058594	-0.237305	0.703125	-0.712448	-0.224984	-0.478090	-0.351563	-0.082031	-0.152344	397	16_14_52_7462130
0.061523	-0.231445	0.703125	-0.712448	-0.224984	-0.487465	-0.351563	-0.105469	-0.152344	398	16_14_52_7623420
0.064453	-0.228516	0.700195	-0.721823	-0.224984	-0.478090	-0.164063	0.000000	-0.070313	399	16_14_52_7784710
0.064453	-0.228516	0.711914	-0.712448	-0.234358	-0.487465	-0.339844	-0.082031	-0.128906	400	16_14_52_7946000
0.055664	-0.219727	0.706055	-0.712448	-0.224984	-0.487465	-0.339844	-0.082031	-0.128906	401	16_14_52_8107290
0.058594	-0.225586	0.697266	-0.712448	-0.234358	-0.487465	-0.339844	-0.082031	-0.105469	402	16_14_52_8268580
0.067383	-0.234375	0.708984	-0.721823	-0.224984	-0.487465	-0.281250	-0.023438	0.128906	403	16_14_52_8429870
0.064453	-0.219727	0.700195	-0.712448	-0.234358	-0.478090	-0.351563	-0.093750	-0.117188	404	16_14_52_8591160
0.064453	-0.228516	0.694336	-0.721823	-0.224984	-0.487465	-0.292969	-0.117188	-0.093750	405	16_14_52_8752450
0.061523	-0.216797	0.700195	-0.712448	-0.224984	-0.487465	-0.339844	-0.093750	-0.175781	406	16_14_52_8913740
0.061523	-0.219727	0.706055	-0.721823	-0.224984	-0.487465	-0.351563	-0.105469	-0.128906	407	16_14_52_9075030
0.055664	-0.216797	0.703125	-0.712448	-0.224984	-0.487465	-0.339844	-0.093750	-0.093750	408	16_14_52_9236320
0.049805	-0.213867	0.691406	-0.712448	-0.224984	-0.487465	-0.257813	-0.058594	-0.093750	409	16_14_52_9397610
0.058594	-0.222656	0.697266	-0.712448	-0.224984	-0.487465	-0.351563	-0.070313	-0.152344	410	16_14_52_9558900
0.061523	-0.228516	0.703125	-0.712448	-0.224984	-0.478090	-0.339844	-0.082031	-0.117188	411	16_14_52_9720190
0.052734	-0.234375	0.700195	-0.712448	-0.234358	-0.487465	-0.339844	-0.082031	-0.093750	412	16_14_52_9881480
0.046875	-0.216797	0.691406	-0.712448	-0.234358	-0.487465	-0.339844	-0.093750	-0.093750	413	16_14_53_0042770
0.058594	-0.228516	0.700195	-0.721823	-0.224984	-0.487465	-0.292969	-0.105469	0.128906	414	16_14_53_0204060
0.061523	-0.222656	0.700195	-0.712448	-0.224984	-0.487465	-0.339844	-0.093750	-0.058594	415	16_14_53_0365350
0.064453	-0.228516	0.700195	-0.712448	-0.243732	-0.487465	-0.351563	-0.117188	-0.105469	416	16_14_53_0526640
0.049805	-0.228516	0.694336	-0.712448	-0.224984	-0.487465	-0.339844	-0.082031	-0.105469	417	16_14_53_0687930
0.055664	-0.222656	0.703125	-0.712448	-0.234358	-0.487465	-0.339844	-0.082031	-0.070313	418	16_14_53_0849220
0.049805	-0.228516	0.703125	-0.712448	-0.224984	-0.487465	-0.339844	-0.093750	-0.093750	419	16_14_53_1010510
0.073242	-0.222656	0.694336	-0.712448	-0.234358	-0.478090	-0.363281	-0.117188	-0.164063	420	16_14_53_1171800
0.058594	-0.222656	0.700195	-0.712448	-0.224984	-0.478090	-0.339844	-0.070313	-0.164063	421	16_14_53_1333090
0.064453	-0.249023	0.700195	-0.712448	-0.234358	-0.487465	-0.339844	-0.082031	-0.082031	422	16_14_53_1494380
0.049805	-0.225586	0.700195	-0.731197	-0.234358	-0.478090	-0.304688	-0.070313	-0.093750	423	16_14_53_1655670
0.061523	-0.225586	0.706055	-0.712448	-0.234358	-0.487465	-0.339844	-0.082031	-0.152344	424	16_14_53_1816960
0.058594	-0.228516	0.700195	-0.712448	-0.243732	-0.478090	-0.339844	-0.082031	-0.175781	425	16_14_53_1978250
0.052734	-0.222656	0.694336	-0.712448	-0.234358	-0.478090	-0.351563	-0.093750	-0.128906	426	16_14_53_2139540
0.052734	-0.222656	0.703125	-0.712448	-0.224984	-0.487465	-0.339844	-0.093750	-0.117188	427	16_14_53_2300830
0.070313	-0.222656	0.694336	-0.721823	-0.234358	-0.487465	-0.234375	-0.070313	-0.093750	428	16_14_53_2462120
0.052734	-0.222656	0.700195	-0.721823	-0.224984	-0.478090	-0.339844	-0.128906	-0.164063	429	16_14_53_2623410
0.055664	-0.222656	0.700195	-0.712448	-0.234358	-0.487465	-0.375000	-0.105469	-0.105469	430	16_14_53_2784700
0.058594	-0.225586	0.700195	-0.712448	-0.224984	-0.487465	-0.339844	-0.140625	-0.117188	431	16_14_53_2945990
0.052734	-0.222656	0.700195	-0.712448	-0.224984	-0.478090	-0.339844	-0.105469	-0.105469	432	16_14_53_3107280
0.049805	-0.228516	0.706055	-0.712448	-0.234358	-0.487465	-0.339844	-0.082031	-0.117188	433	16_14_53_3268570
0.046875	-0.234375	0.711914	-0.712448	-0.234358	-0.487465	-0.339844	-0.082031	-0.164063	434	16_14_53_3429860
0.055664	-0.231445	0.700195	-0.721823	-0.234358	-0.478090	-0.351563	-0.082031	-0.070313	435	16_14_53_3591150
0.052734	-0.228516	0.703125	-0.721823	-0.234358	-0.487465	-0.281250	-0.035156	-0.093750	436	16_14_53_3752440
0.052734	-0.228516	0.703125	-0.712448	-0.234358	-0.478090	-0.351563	-0.082031	-0.175781	437	16_14_53_3913730
0.055664	-0.225586	0.703125	-0.721823	-0.234358	-0.478090	-0.339844	-0.093750	-0.152344	438	16_14_53_4075020
0.064453	-0.231445	0.697266	-0.721823	-0.224984	-0.478090	-0.328125	-0.117188	-0.117188	439	16_14_53_4236310
0.061523	-0.222656	0.711914	-0.712448	-0.234358	-0.487465	-0.199219	-0.058594	-0.046875	440	16_14_53_4397600
0.046875	-0.222656	0.706055	-0.712448	-0.234358	-0.487465	-0.339844	-0.082031	-0.152344	441	16_14_53_4558890
0.052734	-0.234375	0.703125	-0.721823	-0.234358	-0.487465	-0.339844	-0.082031	-0.164063	442	16_14_53_4720180
0.052734	-0.222656	0.700195	-0.712448	-0.234358	-0.487465	-0.339844	-0.082031	-0.140625	443	16_14_53_4881470
0.061523	-0.240234	0.703125	-0.712448	-0.234358	-0.478090	-0.339844	0.000000	0.093750	444	16_14_53_5042760
0.058594	-0.243164	0.700195	-0.712448	-0.234358	-0.487465	-0.351563	-0.093750	-0.082031	445	16_14_53_5204050
0.061523	-0.228516	0.706055	-0.712448	-0.234358	-0.487465	-0.339844	-0.070313	-0.093750	446	16_14_53_5365340
0.061523	-0.234375	0.691406	-0.712448	-0.224984	-0.487465	-0.339844	-0.082031	-0.093750	447	16_14_53_5526630
0.049805	-0.237305	0.700195	-0.721823	-0.224984	-0.487465	-0.339844	-0.070313	-0.058594	448	16_14_53_5687920
0.058594	-0.228516	0.700195	-0.712448	-0.224984	-0.487465	-0.339844	-0.082031	-0.093750	449	16_14_53_5849210
0.049805	-0.231445	0.703125	-0.712448	-0.234358	-0.487465	-0.339844	-0.082031	-0.128906	450	16_14_53_6010500
0.052734	-0.228516	0.711914	-0.721823	-0.234358	-0.487465	-0.328125	-0.070313	-0.082031	451	16_14_53_6171790
0.055664	-0.219727	0.697266	-0.721823	-0.234358	-0.487465	-0.328125	-0.093750	-0.105469	452	16_14_53_6333080
0.064453	-0.234375	0.700195	-0.712448	-0.234358	-0.487465	-0.339844	-0.117188	-0.105469	453	16_14_53_6494370
0.049805	-0.237305	0.700195	-0.712448	-0.224984	-0.487465	-0.339844	-0.105469	-0.082031	454	16_14_53_6655660
0.061523	-0.234375	0.700195	-0.721823	-0.234358	-0.487465	-0.339844	-0.070313	-0.082031	455	16_14_53_6816950
0.052734	-0.225586	0.711914	-0.712448	-0.234358	-0.478090	-0.339844	-0.082031	-0.128906	456	16_14_53_6978240
0.058594	-0.219727	0.703125	-0.721823	-0.234358	-0.478090	-0.339844	-0.093750	-0.128906	457	16_14_53_7139530
0.067383	-0.225586	0.706055	-0.712448	-0.224984	-0.478090	-0.339844	-0.105469	-0.128906	458	16_14_53_7300820
0.046875	-0.234375	0.700195	-0.721823	-0.234358	-0.487465	-0.339844	-0.117188	-0.140625	459	16_14_53_7462110
0.058594	-0.234375	0.700195	-0.712448	-0.234358	-0.487465	-0.339844	-0.105469	-0.140625	460	16_14_53_7623400
0.055664	-0.228516	0.706055	-0.703074	-0.224984	-0.487465	-0.339844	-0.093750	-0.117188	461	16_14_53_7784690
0.064453	-0.222656	0.706055	-0.712448	-0.234358	-0.487465	-0.339844	-0.093750	-0.093750	462	16_14_53_7945980
0.061523	-0.231445	0.703125	-0.712448	-0.234358	-0.487465	-0.351563	-0.128906	-0.093750	463	16_14_53_8107270
0.058594	-0.228516	0.697266	-0.712448	-0.234358	-0.487465	-0.339844	-0.082031	-0.082031	464	16_14_53_8268560
0.058594	-0.228516	0.700195	-0.712448	-0.234358	-0.478090	-0.339844	-0.093750	-0.070313	465	16_14_53_8429850
0.067383	-0.216797	0.700195	-0.721823	-0.234358	-0.487465	-0.339844	-0.117188	0.035156	466	16_14_53_8591140
0.061523	-0.222656	0.711914	-0.712448	-0.234358	-0.478090	-0.339844	-0.082031	-0.164063	467	16_14_53_8752430
0.058594	-0.225586	0.700195	-0.712448	-0.234358	-0.487465	-0.339844	-0.082031	-0.117188	468	16_14_53_8913720
0.052734	-0.222656	0.706055	-0.721823	-0.224984	-0.487465	-0.339844	-0.082031	-0.082031	469	16_14_53_9075010
0.061523	-0.225586	0.700195	-0.712448	-0.224984	-0.487465	-0.339844	-0.093750	-0.105469	470	16_14_53_9236300
0.061523	-0.222656	0.700195	-0.712448	-0.234358	-0.487465	-0.351563	-0.105469	-0.164063	471	16_14_53_9397590
0.064453	-0.234375	0.697266	-0.712448	-0.234358	-0.478090	-0.339844	-0.082031	-0.128906	472	16_14_53_9558880
0.061523	-0.228516	0.703125	-0.712448	-0.234358	-0.487465	-0.164063	-0.046875	0.105469	473	16_14_53_9720170
0.064453	-0.231445	0.697266	-0.721823	-0.234358	-0.487465	-0.339844	-0.082031	-0.093750	474	16_14_53_9881460
0.052734	-0.234375	0.700195	-0.721823	-0.234358	-0.487465	-0.339844	-0.082031	-0.105469	475	16_14_54_0042750
0.064453	-0.225586	0.700195	-0.712448	-0.234358	-0.487465	-0.339844	-0.082031	-0.105469	476	16_14_54_0204040
0.052734	-0.228516	0.703125	-0.712448	-0.234358	-0.487465	-0.351563	-0.105469	-0.070313	477	16_14_54_0365330
0.055664	-0.219727	0.703125	-0.712448	-0.234358	-0.487465	-0.339844	-0.128906	-0.046875	478	16_14_54_0526620
0.055664	-0.225586	0.703125	-0.712448	-0.224984	-0.487465	-0.339844	-0.093750	-0.046875	479	16_14_54_0687910
0.061523	-0.225586	0.694336	-0.712448	-0.234358	-0.487465	-0.351563	-0.117188	-0.117188	480	16_14_54_0849200
0.064453	-0.228516	0.697266	-0.721823	-0.234358	-0.478090	-0.375000	-0.082031	-0.140625	481	16_14_54_1010490
0.055664	-0.228516	0.700195	-0.712448	-0.234358	-0.487465	-0.339844	-0.082031	-0.152344	482	16_14_54_1171780
0.061523	-0.222656	0.703125	-0.712448	-0.234358	-0.487465	-0.339844	-0.117188	-0.140625	483	16_14_54_1333070
0.070313	-0.234375	0.708984	-0.712448	-0.234358	-0.487465	-0.339844	-0.117188	-0.164063	484	16_14_54_1494360
0.043945	-0.234375	0.700195	-0.712448	-0.234358	-0.478090	-0.339844	-0.117188	-0.140625	485	16_14_54_1655650
0.046875	-0.225586	0.700195	-0.721823	-0.224984	-0.487465	-0.339844	-0.070313	0.023438	486	16_14_54_1816940
0.046875	-0.216797	0.700195	-0.712448	-0.234358	-0.487465	-0.339844	-0.082031	-0.152344	487	16_14_54_1978230
0.055664	-0.225586	0.700195	-0.712448	-0.224984	-0.487465	-0.339844	-0.082031	-0.058594	488	16_14_54_2139520
0.058594	-0.222656	0.700195	-0.712448	-0.234358	-0.487465	-0.328125	-0.093750	-0.093750	489	16_14_54_2300810
0.058594	-0.228516	0.703125	-0.712448	-0.234358	-0.487465	-0.339844	-0.105469	-0.175781	490	16_14_54_2462100
0.061523	-0.222656	0.694336	-0.712448	-0.224984	-0.487465	-0.339844	-0.093750	-0.152344	491	16_14_54_2623390
0.058594	-0.231445	0.706055	-0.712448	-0.234358	-0.487465	-0.339844	-0.140625	-0.105469	492	16_14_54_2784680
0.058594	-0.219727	0.708984	-0.731197	-0.234358	-0.487465	-0.316406	-0.140625	-0.082031	493	16_14_54_2945970
0.064453	-0.231445	0.700195	-0.721823	-0.234358	-0.487465	-0.339844	-0.117188	-0.082031	494	16_14_54_3107260
0.061523	-0.234375	0.700195	-0.712448	-0.234358	-0.487465	-0.257813	-0.023438	0.058594	495	16_14_54_3268550
0.046875	-0.228516	0.700195	-0.712448	-0.234358	-0.487465	-0.339844	-0.140625	-0.140625	496	16_14_54_3429840
0.052734	-0.225586	0.700195	-0.712448	-0.234358	-0.487465	-0.351563	-0.152344	-0.128906	497	16_14_54_3591130
0.064453	-0.216797	0.706055	-0.721823	-0.234358	-0.487465	-0.281250	-0.082031	-0.023438	498	16_14_54_3752420
0.058594	-0.237305	0.703125	-0.712448	-0.234358	-0.487465	-0.351563	-0.082031	-0.140625	499	16_14_54_3913710
0.064453	-0.222656	0.691406	-0.712448	-0.234358	-0.478090	-0.339844	-0.082031	-0.140625	500	16_14_54_4075000
0.061523	-0.222656	0.706055	-0.721823	-0.243732	-0.487465	-0.339844	-0.082031	-0.105469	501	16_14_54_4236290
0.061523	-0.216797	0.700195	-0.712448	-0.234358	-0.478090	-0.339844	-0.105469	-0.140625	502	16_14_54_4397580
0.058594	-0.219727	0.717773	-0.712448	-0.224984	-0.487465	-0.339844	-0.105469	-0.152344	503	16_14_54_4558870
0.070313	-0.225586	0.703125	-0.712448	-0.234358	-0.487465	-0.339844	-0.082031	-0.128906	504	16_14_54_4720160
0.064453	-0.222656	0.703125	-0.712448	-0.234358	-0.478090	-0.234375	0.035156	0.011719	505	16_14_54_4881450
0.070313	-0.228516	0.700195	-0.712448	-0.234358	-0.487465	-0.375000	-0.082031	-0.128906	506	16_14_54_5042740
0.061523	-0.213867	0.703125	-0.731197	-0.234358	-0.487465	-0.304688	-0.035156	0.035156	507	16_14_54_5204030
0.038086	-0.231445	0.703125	-0.712448	-0.234358	-0.487465	-0.339844	-0.093750	-0.152344	508	16_14_54_5365320
0.046875	-0.240234	0.700195	-0.712448	-0.234358	-0.478090	-0.351563	-0.093750	-0.152344	509	16_14_54_5526610
0.061523	-0.228516	0.691406	-0.731197	-0.234358	-0.487465	-0.257813	-0.070313	-0.058594	510	16_14_54_5687900
0.064453	-0.240234	0.703125	-0.712448	-0.234358	-0.487465	-0.339844	-0.093750	-0.093750	511	16_14_54_5849190
0.049805	-0.225586	0.708984	-0.721823	-0.234358	-0.487465	-0.339844	-0.117188	-0.082031	512	16_14_54_6010480
0.055664	-0.231445	0.697266	-0.712448	-0.234358	-0.487465	-0.339844	-0.117188	-0.082031	513	16_14_54_6171770
0.049805	-0.234375	0.706055	-0.712448	-0.234358	-0.487465	-0.328125	-0.070313	-0.105469	514	16_14_54_6333060
0.052734	-0.222656	0.700195	-0.712448	-0.234358	-0.487465	-0.339844	-0.082031	-0.164063	515	16_14_54_6494350
0.058594	-0.216797	0.700195	-0.712448	-0.234358	-0.487465	-0.339844	-0.093750	-0.164063	516	16_14_54_6655640
0.058594	-0.234375	0.706055	-0.731197	-0.234358	-0.478090	-0.292969	0.000000	-0.011719	517	16_14_54_6816930
0.058594	-0.231445	0.706055	-0.721823	-0.234358	-0.487465	-0.292969	-0.093750	0.070313	518	16_14_54_6978220
0.058594	-0.234375	0.700195	-0.712448	-0.234358	-0.487465	-0.339844	-0.093750	-0.082031	519	16_14_54_7139510
0.061523	-0.222656	0.700195	-0.712448	-0.234358	-0.487465	-0.351563	-0.117188	-0.105469	520	16_14_54_7300800
0.064453	-0.228516	0.700195	-0.712448	-0.224984	-0.478090	-0.339844	-0.082031	-0.140625	521	16_14_54_7462090
0.064453	-0.225586	0.700195	-0.712448	-0.224984	-0.487465	-0.351563	-0.082031	-0.117188	522	16_14_54_7623380
0.067383	-0.222656	0.711914	-0.712448	-0.224984	-0.478090	-0.339844	-0.070313	-0.140625	523	16_14_54_7784670
0.061523	-0.219727	0.703125	-0.712448	-0.234358	-0.487465	-0.339844	-0.093750	-0.093750	524	16_14_54_7945960
0.061523	-0.228516	0.706055	-0.712448	-0.234358	-0.487465	-0.339844	-0.105469	-0.070313	525	16_14_54_8107250
0.064453	-0.222656	0.700195	-0.712448	-0.234358	-0.478090	-0.339844	-0.093750	-0.058594	526	16_14_54_8268540
0.058594	-0.228516	0.691406	-0.712448	-0.234358	-0.487465	-0.339844	-0.105469	-0.070313	527	16_14_54_8429830
0.046875	-0.222656	0.706055	-0.712448	-0.224984	-0.487465	-0.339844	-0.082031	-0.140625	528	16_14_54_8591120
0.055664	-0.228516	0.700195	-0.712448	-0.224984	-0.487465	-0.375000	-0.105469	-0.093750	529	16_14_54_8752410
0.058594	-0.228516	0.703125	-0.712448	-0.234358	-0.487465	-0.339844	-0.140625	-0.128906	530	16_14_54_8913700
0.055664	-0.225586	0.697266	-0.721823	-0.234358	-0.487465	-0.246094	-0.093750	-0.058594	531	16_14_54_9074990
0.052734	-0.228516	0.706055	-0.712448	-0.234358	-0.487465	-0.386719	-0.082031	-0.082031	532	16_14_54_9236280
0.073242	-0.228516	0.691406	-0.721823	-0.234358	-0.487465	-0.328125	-0.082031	-0.105469	533	16_14_54_9397570
0.061523	-0.225586	0.703125	-0.712448	-0.234358	-0.487465	-0.328125	-0.082031	-0.152344	534	16_14_54_9558860
0.061523	-0.222656	0.691406	-0.721823	-0.234358	-0.487465	-0.339844	-0.093750	-0.175781	535	16_14_54_9720150
0.052734	-0.228516	0.703125	-0.712448	-0.234358	-0.487465	-0.351563	-0.093750	-0.117188	536	16_14_54_9881440
0.064453	-0.222656	0.700195	-0.721823	-0.224984	-0.478090	-0.339844	-0.105469	-0.105469	537	16_14_55_0042730
0.055664	-0.222656	0.711914	-0.712448	-0.224984	-0.487465	-0.339844	-0.082031	-0.128906	538	16_14_55_0204020
0.061523	-0.225586	0.703125	-0.712448	-0.224984	-0.478090	-0.339844	-0.117188	-0.128906	539	16_14_55_0365310
0.052734	-0.222656	0.694336	-0.712448	-0.234358	-0.487465	-0.339844	-0.140625	-0.152344	540	16_14_55_0526600
0.058594	-0.228516	0.706055	-0.712448	-0.234358	-0.487465	-0.351563	-0.105469	-0.140625	541	16_14_55_0687890
0.052734	-0.225586	0.703125	-0.721823	-0.234358	-0.487465	-0.339844	-0.082031	-0.152344	542	16_14_55_0849180
0.049805	-0.228516	0.694336	-0.721823	-0.234358	-0.487465	-0.328125	-0.093750	-0.128906	543	16_14_55_1010470
0.052734	-0.225586	0.694336	-0.712448	-0.234358	-0.487465	-0.339844	-0.105469	-0.117188	544	16_14_55_1171760
0.064453	-0.234375	0.706055	-0.721823	-0.234358	-0.487465	-0.339844	-0.070313	-0.117188	545	16_14_55_1333050
0.055664	-0.219727	0.703125	-0.721823	-0.234358	-0.478090	-0.328125	-0.070313	-0.105469	546	16_14_55_1494340
0.061523	-0.228516	0.711914	-0.712448	-0.234358	-0.478090	-0.351563	-0.093750	-0.164063	547	16_14_55_1655630
0.058594	-0.234375	0.703125	-0.721823	-0.234358	-0.478090	-0.304688	-0.082031	-0.128906	548	16_14_55_1816920
0.058594	-0.234375	0.691406	-0.731197	-0.234358	-0.487465	-0.269531	-0.070313	0.093750	549	16_14_55_1978210
0.052734	-0.228516	0.706055	-0.712448	-0.234358	-0.478090	-0.339844	-0.082031	-0.058594	550	16_14_55_2139500
0.061523	-0.231445	0.700195	-0.712448	-0.243732	-0.487465	-0.339844	-0.082031	-0.082031	551	16_14_55_2300790
0.064453	-0.228516	0.703125	-0.712448	-0.234358	-0.487465	-0.375000	-0.082031	-0.117188	552	16_14_55_2462080
0.055664	-0.234375	0.703125	-0.721823	-0.234358	-0.487465	-0.339844	-0.082031	-0.105469	553	16_14_55_2623370
0.058594	-0.225586	0.703125	-0.712448	-0.234358	-0.487465	-0.339844	-0.105469	-0.093750	554	16_14_55_2784660
0.052734	-0.216797	0.703125	-0.712448	-0.234358	-0.487465	-0.351563	-0.128906	-0.082031	555	16_14_55_2945950
0.046875	-0.234375	0.700195	-0.712448	-0.234358	-0.487465	-0.339844	-0.105469	-0.117188	556	16_14_55_3107240
0.064453	-0.222656	0.700195	-0.712448	-0.234358	-0.487465	-0.246094	0.011719	-0.117188	557	16_14_55_3268530
0.052734	-0.228516	0.691406	-0.721823	-0.234358	-0.487465	-0.339844	-0.093750	-0.152344	558	16_14_55_3429820
0.058594	-0.237305	0.706055	-0.721823	-0.234358	-0.478090	-0.339844	-0.070313	0.093750	559	16_14_55_3591110
0.064453	-0.231445	0.700195	-0.721823	-0.234358	-0.487465	-0.339844	-0.082031	-0.175781	560	16_14_55_3752400
0.064453	-0.216797	0.688477	-0.712448	-0.234358	-0.487465	-0.339844	-0.082031	-0.105469	561	16_14_55_3913690
0.046875	-0.228516	0.700195	-0.721823	-0.234358	-0.478090	-0.339844	-0.082031	-0.058594	562	16_14_55_4074980
0.058594	-0.228516	0.703125	-0.703074	-0.234358	-0.487465	-0.339844	-0.082031	-0.140625	563	16_14_55_4236270
0.058594	-0.219727	0.703125	-0.712448	-0.234358	-0.487465	-0.339844	-0.082031	-0.128906	564	16_14_55_4397560
0.052734	-0.237305	0.694336	-0.712448	-0.234358	-0.478090	-0.339844	-0.105469	-0.093750	565	16_14_55_4558850
0.061523	-0.234375	0.697266	-0.712448	-0.234358	-0.487465	-0.339844	-0.093750	-0.140625	566	16_14_55_4720140
0.052734	-0.216797	0.703125	-0.712448	-0.234358	-0.478090	-0.339844	-0.082031	-0.128906	567	16_14_55_4881430
0.055664	-0.228516	0.703125	-0.721823	-0.224984	-0.478090	-0.339844	-0.082031	-0.105469	568	16_14_55_5042720
0.052734	-0.231445	0.703125	-0.721823	-0.243732	-0.487465	-0.304688	-0.070313	-0.082031	569	16_14_55_5204010
0.055664	-0.219727	0.694336	-0.721823	-0.234358	-0.487465	-0.328125	-0.093750	-0.093750	570	16_14_55_5365300
0.055664	-0.231445	0.700195	-0.712448	-0.234358	-0.478090	-0.339844	-0.093750	-0.128906	571	16_14_55_5526590
0.058594	-0.228516	0.697266	-0.712448	-0.234358	-0.487465	-0.339844	-0.082031	-0.164063	572	16_14_55_5687880
0.052734	-0.234375	0.694336	-0.712448	-0.234358	-0.487465	-0.339844	-0.093750	-0.128906	573	16_14_55_5849170
0.061523	-0.234375	0.706055	-0.721823	-0.234358	-0.487465	-0.351563	-0.093750	-0.105469	574	16_14_55_6010460
0.064453	-0.228516	0.700195	-0.712448	-0.234358	-0.478090	-0.363281	-0.105469	-0.117188	575	16_14_55_6171750
0.052734	-0.228516	0.703125	-0.721823	-0.234358	-0.487465	-0.128906	-0.070313	0.035156	576	16_14_55_6333040
0.064453	-0.237305	0.694336	-0.712448	-0.234358	-0.478090	-0.339844	-0.082031	-0.128906	577	16_14_55_6494330
0.052734	-0.222656	0.703125	-0.731197	-0.234358	-0.487465	-0.210938	-0.046875	0.164063	578	16_14_55_6655620
0.058594	-0.222656	0.708984	-0.712448	-0.234358	-0.487465	-0.339844	0.000000	0.023438	579	16_14_55_6816910
0.052734	-0.222656	0.697266	-0.712448	-0.234358	-0.478090	-0.339844	-0.105469	-0.070313	580	16_14_55_6978200
0.046875	-0.216797	0.700195	-0.712448	-0.234358	-0.487465	-0.339844	-0.082031	-0.105469	581	16_14_55_7139490
0.055664	-0.225586	0.703125	-0.712448	-0.224984	-0.487465	-0.339844	-0.082031	-0.128906	582	16_14_55_7300780
0.049805	-0.216797	0.706055	-0.712448	-0.234358	-0.478090	-0.339844	-0.105469	-0.117188	583	16_14_55_7462070
0.052734	-0.231445	0.700195	-0.721823	-0.234358	-0.487465	-0.339844	-0.082031	-0.140625	584	16_14_55_7623360
0.061523	-0.213867	0.700195	-0.721823	-0.234358	-0.487465	-0.339844	-0.082031	-0.152344	585	16_14_55_7784650
0.052734	-0.228516	0.703125	-0.712448	-0.224984	-0.487465	-0.339844	-0.082031	-0.140625	586	16_14_55_7945940
0.046875	-0.228516	0.711914	-0.712448	-0.234358	-0.478090	-0.339844	-0.082031	-0.117188	587	16_14_55_8107230
0.064453	-0.234375	0.694336	-0.721823	-0.234358	-0.487465	-0.339844	-0.082031	-0.117188	588	16_14_55_8268520
0.058594	-0.234375	0.700195	-0.721823	-0.234358	-0.487465	-0.339844	-0.105469	-0.117188	589	16_14_55_8429810
0.052734	-0.228516	0.703125	-0.712448	-0.234358	-0.487465	-0.363281	-0.140625	-0.128906	590	16_14_55_8591100
0.064453	-0.234375	0.700195	-0.712448	-0.234358	-0.487465	-0.339844	-0.093750	-0.152344	591	16_14_55_8752390
0.058594	-0.234375	0.700195	-0.712448	-0.234358	-0.487465	-0.351563	-0.082031	-0.152344	592	16_14_55_8913680
0.052734	-0.225586	0.694336	-0.712448	-0.234358	-0.487465	-0.339844	-0.082031	-0.152344	593	16_14_55_9074970
0.058594	-0.228516	0.703125	-0.721823	-0.234358	-0.487465	-0.339844	-0.082031	-0.140625	594	16_14_55_9236260
0.058594	-0.225586	0.703125	-0.712448	-0.234358	-0.487465	-0.339844	-0.093750	-0.140625	595	16_14_55_9397550
0.058594	-0.216797	0.700195	-0.712448	-0.234358	-0.478090	-0.339844	-0.117188	-0.117188	596	16_14_55_9558840
0.052734	-0.225586	0.694336	-0.731197	-0.234358	-0.487465	-0.093750	0.023438	0.082031	597	16_14_55_9720130
0.073242	-0.231445	0.697266	-0.712448	-0.234358	-0.487465	-0.339844	-0.082031	-0.082031	598	16_14_55_9881420
0.052734	-0.228516	0.711914	-0.721823	-0.234358	-0.487465	-0.328125	-0.082031	-0.082031	599	16_14_56_0042710
0.058594	-0.234375	0.711914	-0.712448	-0.234358	-0.487465	-0.351563	-0.082031	-0.105469	600	16_14_56_0204000
0.058594	-0.225586	0.697266	-0.712448	-0.243732	-0.487465	-0.339844	-0.082031	-0.093750	601	16_14_56_0365290
0.070313	-0.213867	0.703125	-0.712448	-0.243732	-0.487465	-0.339844	-0.093750	-0.128906	602	16_14_56_0526580
0.046875	-0.225586	0.697266	-0.721823	-0.234358	-0.478090	-0.328125	-0.070313	-0.117188	603	16_14_56_0687870
0.064453	-0.228516	0.697266	-0.721823	-0.234358	-0.487465	-0.257813	-0.070313	-0.082031	604	16_14_56_0849160
0.058594	-0.231445	0.691406	-0.712448	-0.234358	-0.487465	-0.386719	-0.105469	-0.164063	605	16_14_56_1010450
0.052734	-0.228516	0.703125	-0.712448	-0.234358	-0.487465	-0.375000	-0.082031	-0.117188	606	16_14_56_1171740
0.052734	-0.237305	0.694336	-0.721823	-0.224984	-0.487465	-0.105469	-0.046875	0.046875	607	16_14_56_1333030
0.052734	-0.234375	0.700195	-0.712448	-0.234358	-0.487465	-0.339844	-0.082031	-0.093750	608	16_14_56_1494320
0.061523	-0.222656	0.700195	-0.712448	-0.234358	-0.487465	-0.281250	0.000000	-0.058594	609	16_14_56_1655610
0.058594	-0.222656	0.703125	-0.721823	-0.234358	-0.487465	-0.339844	-0.117188	-0.152344	610	16_14_56_1816900
0.061523	-0.222656	0.700195	-0.721823	-0.234358	-0.478090	-0.339844	-0.093750	-0.117188	611	16_14_56_1978190
0.055664	-0.228516	0.706055	-0.721823	-0.234358	-0.487465	-0.339844	-0.117188	-0.082031	612	16_14_56_2139480
0.061523	-0.216797	0.700195	-0.721823	-0.234358	-0.478090	-0.339844	-0.082031	-0.093750	613	16_14_56_2300770
0.064453	-0.225586	0.703125	-0.721823	-0.224984	-0.487465	-0.339844	-0.082031	-0.093750	614	16_14_56_2462060
0.061523	-0.225586	0.700195	-0.712448	-0.234358	-0.478090	-0.351563	-0.093750	-0.128906	615	16_14_56_2623350
0.058594	-0.234375	0.700195	-0.712448	-0.234358	-0.487465	-0.339844	-0.105469	-0.175781	616	16_14_56_2784640
0.055664	-0.231445	0.700195	-0.721823	-0.234358	-0.487465	-0.339844	-0.082031	-0.128906	617	16_14_56_2945930
0.061523	-0.216797	0.700195	-0.721823	-0.234358	-0.487465	-0.152344	0.023438	-0.023438	618	16_14_56_3107220
0.064453	-0.219727	0.700195	-0.731197	-0.243732	-0.487465	-0.316406	-0.117188	-0.082031	619	16_14_56_3268510
0.055664	-0.222656	0.700195	-0.712448	-0.234358	-0.487465	-0.339844	-0.152344	-0.140625	620	16_14_56_3429800
0.064453	-0.228516	0.711914	-0.731197	-0.234358	-0.478090	-0.339844	-0.093750	-0.011719	621	16_14_56_3591090
0.055664	-0.222656	0.700195	-0.721823	-0.234358	-0.487465	-0.339844	-0.093750	-0.175781	622	16_14_56_3752380
0.055664	-0.225586	0.703125	-0.712448	-0.234358	-0.487465	-0.351563	-0.093750	-0.117188	623	16_14_56_3913670
0.061523	-0.222656	0.694336	-0.712448	-0.234358	-0.487465	-0.328125	-0.117188	-0.140625	624	16_14_56_4074960
0.064453	-0.231445	0.700195	-0.721823	-0.234358	-0.478090	-0.351563	-0.082031	-0.152344	625	16_14_56_4236250
0.052734	-0.225586	0.700195	-0.721823	-0.234358	-0.487465	-0.351563	-0.082031	-0.093750	626	16_14_56_4397540
0.052734	-0.225586	0.700195	-0.712448	-0.234358	-0.487465	-0.339844	-0.082031	-0.128906	627	16_14_56_4558830
0.064453	-0.222656	0.706055	-0.712448	-0.234358	-0.487465	-0.339844	-0.070313	-0.152344	628	16_14_56_4720120
0.052734	-0.228516	0.697266	-0.712448	-0.234358	-0.459342	-0.339844	-0.070313	-0.105469	629	16_14_56_4881410
0.052734	-0.222656	0.706055	-0.712448	-0.234358	-0.487465	-0.339844	-0.093750	-0.082031	630	16_14_56_5042700
0.064453	-0.228516	0.703125	-0.712448	-0.243732	-0.487465	-0.339844	-0.117188	-0.117188	631	16_14_56_5203990
0.064453	-0.216797	0.694336	-0.721823	-0.243732	-0.487465	-0.351563	-0.082031	0.000000	632	16_14_56_5365280
0.061523	-0.228516	0.703125	-0.721823	-0.234358	-0.487465	-0.339844	-0.093750	-0.082031	633	16_14_56_5526570
0.061523	-0.234375	0.700195	-0.712448	-0.243732	-0.487465	-0.339844	-0.117188	-0.105469	634	16_14_56_5687860
0.064453	-0.234375	0.703125	-0.712448	-0.234358	-0.487465	-0.339844	-0.082031	-0.152344	635	16_14_56_5849150
0.058594	-0.216797	0.694336	-0.721823	-0.243732	-0.478090	-0.328125	-0.105469	-0.140625	636	16_14_56_6010440
0.058594	-0.228516	0.706055	-0.712448	-0.234358	-0.487465	-0.339844	-0.140625	-0.117188	637	16_14_56_6171730
0.064453	-0.216797	0.700195	-0.712448	-0.234358	-0.487465	-0.339844	-0.082031	-0.117188	638	16_14_56_6333020
0.055664	-0.222656	0.706055	-0.721823	-0.243732	-0.478090	-0.339844	-0.105469	-0.117188	639	16_14_56_6494310
0.055664	-0.234375	0.703125	-0.712448	-0.234358	-0.487465	-0.375000	-0.128906	-0.117188	640	16_14_56_6655600
0.052734	-0.231445	0.703125	-0.731197	-0.234358	-0.487465	-0.316406	-0.070313	-0.128906	641	16_14_56_6816890
0.061523	-0.228516	0.691406	-0.712448	-0.243732	-0.487465	-0.339844	-0.082031	-0.105469	642	16_14_56_6978180
0.058594	-0.219727	0.700195	-0.721823	-0.234358	-0.487465	-0.292969	-0.070313	-0.093750	643	16_14_56_7139470
0.052734	-0.237305	0.700195	-0.712448	-0.234358	-0.478090	-0.351563	-0.093750	-0.140625	644	16_14_56_7300760
0.058594	-0.228516	0.691406	-0.721823	-0.234358	-0.487465	-0.339844	-0.117188	-0.105469	645	16_14_56_7462050
0.061523	-0.216797	0.708984	-0.721823	-0.234358	-0.487465	-0.339844	-0.070313	-0.105469	646	16_14_56_7623340
0.058594	-0.222656	0.691406	-0.721823	-0.243732	-0.478090	-0.351563	-0.082031	-0.152344	647	16_14_56_7784630
0.058594	-0.231445	0.700195	-0.731197	-0.234358	-0.487465	-0.152344	-0.046875	-0.058594	648	16_14_56_7945920
0.067383	-0.216797	0.706055	-0.712448	-0.234358	-0.487465	-0.339844	-0.082031	-0.152344	649	16_14_56_8107210
0.064453	-0.231445	0.700195	-0.712448	-0.234358	-0.487465	-0.339844	-0.082031	-0.117188	650	16_14_56_8268500
0.061523	-0.219727	0.700195	-0.712448	-0.234358	-0.478090	-0.351563	-0.117188	-0.117188	651	16_14_56_8429790
0.052734	-0.225586	0.694336	-0.721823	-0.234358	-0.487465	-0.304688	-0.093750	0.199219	652	16_14_56_8591080
0.073242	-0.222656	0.700195	-0.712448	-0.234358	-0.487465	-0.351563	-0.117188	-0.128906	653	16_14_56_8752370
0.064453	-0.228516	0.703125	-0.721823	-0.224984	-0.487465	-0.339844	-0.082031	-0.128906	654	16_14_56_8913660
0.046875	-0.219727	0.703125	-0.712448	-0.234358	-0.478090	-0.351563	-0.082031	-0.105469	655	16_14_56_9074950
0.064453	-0.228516	0.700195	-0.712448	-0.234358	-0.487465	-0.351563	-0.105469	-0.117188	656	16_14_56_9236240
0.055664	-0.225586	0.688477	-0.712448	-0.234358	-0.487465	-0.339844	-0.140625	-0.117188	657	16_14_56_9397530
0.064453	-0.222656	0.700195	-0.712448	-0.234358	-0.487465	-0.339844	-0.082031	-0.117188	658	16_14_56_9558820
0.061523	-0.234375	0.703125	-0.721823	-0.234358	-0.478090	-0.339844	-0.082031	-0.140625	659	16_14_56_9720110
0.049805	-0.234375	0.700195	-0.731197	-0.224984	-0.487465	-0.316406	-0.082031	-0.117188	660	16_14_56_9881400
0.052734	-0.228516	0.697266	-0.712448	-0.234358	-0.487465	-0.246094	-0.082031	0.046875	661	16_14_57_0042690
0.064453	-0.222656	0.703125	-0.712448	-0.234358	-0.487465	-0.339844	-0.082031	-0.152344	662	16_14_57_0203980
0.046875	-0.231445	0.703125	-0.721823	-0.234358	-0.487465	-0.339844	-0.117188	-0.128906	663	16_14_57_0365270
0.055664	-0.228516	0.700195	-0.712448	-0.234358	-0.487465	-0.351563	-0.117188	-0.117188	664	16_14_57_0526560
0.052734	-0.225586	0.697266	-0.721823	-0.234358	-0.487465	-0.375000	-0.082031	-0.128906	665	16_14_57_0687850
0.046875	-0.231445	0.706055	-0.721823	-0.234358	-0.487465	-0.339844	-0.093750	-0.140625	666	16_14_57_0849140
0.046875	-0.225586	0.700195	-0.712448	-0.234358	-0.487465	-0.339844	-0.117188	-0.128906	667	16_14_57_1010430
0.061523	-0.228516	0.711914	-0.712448	-0.243732	-0.478090	-0.351563	-0.093750	-0.105469	668	16_14_57_1171720
0.058594	-0.219727	0.694336	-0.721823	-0.234358	-0.487465	-0.339844	-0.117188	-0.128906	669	16_14_57_1333010
0.061523	-0.225586	0.706055	-0.712448	-0.234358	-0.487465	-0.339844	-0.082031	-0.093750	670	16_14_57_1494300
0.064453	-0.225586	0.697266	-0.721823	-0.234358	-0.487465	-0.363281	-0.093750	-0.093750	671	16_14_57_1655590
0.061523	-0.231445	0.703125	-0.712448	-0.234358	-0.478090	-0.339844	-0.117188	-0.128906	672	16_14_57_1816880
0.058594	-0.222656	0.706055	-0.712448	-0.234358	-0.487465	-0.351563	-0.105469	-0.117188	673	16_14_57_1978170
0.055664	-0.225586	0.711914	-0.712448	-0.234358	-0.487465	-0.339844	-0.082031	-0.128906	674	16_14_57_2139460
0.073242	-0.216797	0.700195	-0.712448	-0.234358	-0.487465	-0.339844	-0.082031	-0.164063	675	16_14_57_2300750
0.061523	-0.228516	0.697266	-0.712448	-0.234358	-0.487465	-0.351563	-0.082031	-0.164063	676	16_14_57_2462040
0.055664	-0.222656	0.703125	-0.712448	-0.234358	-0.487465	-0.339844	-0.082031	-0.140625	677	16_14_57_2623330
0.058594	-0.234375	0.700195	-0.712448	-0.234358	-0.487465	-0.386719	-0.093750	-0.105469	678	16_14_57_2784620
0.061523	-0.225586	0.700195	-0.712448	-0.224984	-0.487465	-0.339844	-0.117188	-0.082031	679	16_14_57_2945910
0.061523	-0.228516	0.697266	-0.721823	-0.234358	-0.487465	-0.375000	-0.117188	-0.105469	680	16_14_57_3107200
0.049805	-0.219727	0.706055	-0.712448	-0.234358	-0.487465	-0.398438	-0.117188	-0.117188	681	16_14_57_3268490
0.046875	-0.228516	0.700195	-0.721823	-0.234358	-0.487465	-0.269531	0.082031	-0.011719	682	16_14_57_3429780
0.061523	-0.219727	0.697266	-0.721823	-0.243732	-0.487465	-0.339844	-0.082031	-0.128906	683	16_14_57_3591070
0.055664	-0.228516	0.703125	-0.721823	-0.243732	-0.487465	-0.339844	-0.082031	-0.152344	684	16_14_57_3752360
0.061523	-0.231445	0.711914	-0.721823	-0.234358	-0.487465	-0.292969	-0.070313	-0.140625	685	16_14_57_3913650
0.064453	-0.228516	0.697266	-0.712448	-0.234358	-0.487465	-0.351563	-0.093750	-0.117188	686	16_14_57_4074940
0.070313	-0.225586	0.700195	-0.721823	-0.234358	-0.487465	-0.339844	-0.093750	-0.093750	687	16_14_57_4236230
0.052734	-0.222656	0.706055	-0.721823	-0.234358	-0.487465	-0.339844	-0.117188	-0.117188	688	16_14_57_4397520
0.055664	-0.225586	0.700195	-0.712448	-0.234358	-0.487465	-0.339844	-0.105469	-0.140625	689	16_14_57_4558810
0.046875	-0.228516	0.700195	-0.721823	-0.234358	-0.478090	-0.328125	-0.070313	-0.152344	690	16_14_57_4720100
0.052734	-0.225586	0.700195	-0.731197	-0.243732	-0.487465	-0.128906	0.011719	-0.023438	691	16_14_57_4881390
0.061523	-0.228516	0.700195	-0.712448	-0.234358	-0.487465	-0.339844	-0.093750	-0.117188	692	16_14_57_5042680
0.061523	-0.234375	0.706055	-0.721823	-0.243732	-0.487465	-0.339844	-0.082031	-0.082031	693	16_14_57_5203970
0.055664	-0.222656	0.703125	-0.712448	-0.234358	-0.487465	-0.339844	-0.082031	-0.082031	694	16_14_57_5365260
0.058594	-0.210938	0.706055	-0.731197	-0.234358	-0.487465	-0.339844	-0.082031	-0.093750	695	16_14_57_5526550
0.058594	-0.222656	0.700195	-0.721823	-0.234358	-0.487465	-0.339844	-0.093750	-0.093750	696	16_14_57_5687840
0.049805	-0.228516	0.700195	-0.721823	-0.234358	-0.478090	-0.210938	-0.046875	-0.046875	697	16_14_57_5849130
0.052734	-0.234375	0.708984	-0.721823	-0.243732	-0.478090	-0.339844	-0.093750	-0.105469	698	16_14_57_6010420
0.055664	-0.219727	0.703125	-0.712448	-0.234358	-0.478090	-0.339844	-0.093750	-0.082031	699	16_14_57_6171710
0.055664	-0.228516	0.706055	-0.712448	-0.234358	-0.478090	-0.339844	-0.093750	-0.128906	700	16_14_57_6333000
0.064453	-0.222656	0.700195	-0.721823	-0.243732	-0.487465	-0.339844	-0.093750	-0.140625	701	16_14_57_6494290
0.064453	-0.210938	0.700195	-0.721823	-0.234358	-0.478090	-0.339844	-0.128906	-0.140625	702	16_14_57_6655580
0.061523	-0.225586	0.700195	-0.712448	-0.234358	-0.487465	-0.351563	-0.117188	-0.082031	703	16_14_57_6816870
0.055664	-0.231445	0.706055	-0.712448	-0.234358	-0.487465	-0.339844	-0.093750	-0.105469	704	16_14_57_6978160
0.061523	-0.228516	0.703125	-0.721823	-0.234358	-0.487465	-0.339844	-0.093750	-0.093750	705	16_14_57_7139450
0.064453	-0.225586	0.703125	-0.712448	-0.234358	-0.487465	-0.339844	-0.082031	-0.082031	706	16_14_57_7300740
0.061523	-0.219727	0.703125	-0.712448	-0.234358	-0.487465	-0.339844	-0.082031	-0.105469	707	16_14_57_7462030
0.052734	-0.228516	0.700195	-0.721823	-0.234358	-0.487465	-0.339844	-0.093750	-0.105469	708	16_14_57_7623320
0.052734	-0.225586	0.706055	-0.712448	-0.224984	-0.487465	-0.339844	-0.117188	-0.105469	709	16_14_57_7784610
0.058594	-0.225586	0.700195	-0.712448	-0.234358	-0.487465	-0.339844	-0.082031	-0.093750	710	16_14_57_7945900
0.064453	-0.231445	0.706055	-0.712448	-0.234358	-0.487465	-0.339844	-0.105469	-0.117188	711	16_14_57_8107190
0.043945	-0.222656	0.703125	-0.712448	-0.234358	-0.487465	-0.351563	-0.082031	-0.140625	712	16_14_57_8268480
0.064453	-0.219727	0.706055	-0.721823	-0.243732	-0.487465	-0.339844	-0.082031	-0.140625	713	16_14_57_8429770
0.058594	-0.216797	0.697266	-0.721823	-0.234358	-0.478090	-0.339844	0.023438	0.023438	714	16_14_57_8591060
0.061523	-0.225586	0.703125	-0.712448	-0.243732	-0.487465	-0.351563	-0.093750	-0.128906	715	16_14_57_8752350
0.046875	-0.228516	0.706055	-0.721823	-0.234358	-0.487465	-0.339844	-0.105469	0.035156	716	16_14_57_8913640
0.052734	-0.219727	0.694336	-0.721823	-0.243732	-0.487465	-0.363281	-0.093750	-0.093750	717	16_14_57_9074930
0.046875	-0.225586	0.703125	-0.721823	-0.234358	-0.478090	-0.339844	-0.117188	-0.175781	718	16_14_57_9236220
0.064453	-0.219727	0.700195	-0.721823	-0.234358	-0.487465	-0.339844	-0.117188	-0.140625	719	16_14_57_9397510
0.058594	-0.222656	0.691406	-0.721823	-0.234358	-0.487465	-0.339844	-0.070313	-0.117188	720	16_14_57_9558800
0.064453	-0.231445	0.700195	-0.712448	-0.234358	-0.487465	-0.339844	-0.070313	-0.140625	721	16_14_57_9720090
0.064453	-0.228516	0.700195	-0.721823	-0.234358	-0.478090	-0.339844	-0.082031	-0.117188	722	16_14_57_9881380
0.061523	-0.225586	0.706055	-0.712448	-0.234358	-0.487465	-0.339844	-0.082031	-0.117188	723	16_14_58_0042670
0.064453	-0.225586	0.708984	-0.712448	-0.234358	-0.478090	-0.339844	-0.082031	-0.105469	724	16_14_58_0203960
0.055664	-0.222656	0.700195	-0.721823	-0.234358	-0.478090	-0.351563	-0.046875	0.058594	725	16_14_58_0365250
0.055664	-0.225586	0.694336	-0.712448	-0.234358	-0.478090	-0.339844	-0.105469	-0.140625	726	16_14_58_0526540
0.052734	-0.222656	0.703125	-0.721823	-0.234358	-0.478090	-0.339844	-0.082031	-0.152344	727	16_14_58_0687830
0.061523	-0.228516	0.711914	-0.712448	-0.243732	-0.478090	-0.351563	-0.070313	-0.105469	728	16_14_58_0849120
0.064453	-0.225586	0.694336	-0.721823	-0.234358	-0.478090	-0.292969	-0.058594	-0.046875	729	16_14_58_1010410
0.058594	-0.222656	0.703125	-0.721823	-0.243732	-0.487465	-0.339844	-0.105469	-0.105469	730	16_14_58_1171700
0.055664	-0.231445	0.700195	-0.721823	-0.234358	-0.478090	-0.351563	-0.070313	-0.105469	731	16_14_58_1332990
0.046875	-0.234375	0.706055	-0.712448	-0.234358	-0.487465	-0.339844	-0.082031	-0.117188	732	16_14_58_1494280
0.052734	-0.228516	0.700195	-0.712448	-0.234358	-0.487465	-0.339844	-0.093750	-0.128906	733	16_14_58_1655570
0.061523	-0.231445	0.700195	-0.712448	-0.234358	-0.478090	-0.339844	-0.117188	-0.117188	734	16_14_58_1816860
0.070313	-0.228516	0.694336	-0.721823	-0.243732	-0.478090	-0.351563	-0.105469	-0.128906	735	16_14_58_1978150
0.064453	-0.216797	0.703125	-0.712448	-0.224984	-0.487465	-0.292969	-0.070313	-0.128906	736	16_14_58_2139440
0.058594	-0.219727	0.700195	-0.712448	-0.234358	-0.487465	-0.351563	-0.093750	-0.093750	737	16_14_58_2300730
0.064453	-0.225586	0.703125	-0.712448	-0.234358	-0.487465	-0.339844	-0.117188	-0.046875	738	16_14_58_2462020
0.052734	-0.222656	0.706055	-0.712448	-0.234358	-0.487465	-0.351563	-0.093750	-0.117188	739	16_14_58_2623310
0.055664	-0.228516	0.703125	-0.721823	-0.234358	-0.487465	-0.328125	-0.093750	-0.117188	740	16_14_58_2784600
0.061523	-0.228516	0.700195	-0.721823	-0.234358	-0.487465	-0.269531	-0.035156	-0.105469	741	16_14_58_2945890
0.064453	-0.234375	0.703125	-0.712448	-0.234358	-0.478090	-0.351563	-0.082031	-0.128906	742	16_14_58_3107180
0.070313	-0.228516	0.706055	-0.712448	-0.243732	-0.487465	-0.351563	-0.082031	-0.128906	743	16_14_58_3268470
0.058594	-0.222656	0.688477	-0.712448	-0.234358	-0.487465	-0.339844	-0.070313	-0.128906	744	16_14_58_3429760
0.064453	-0.231445	0.703125	-0.712448	-0.234358	-0.487465	-0.363281	-0.070313	-0.128906	745	16_14_58_3591050
0.061523	-0.228516	0.700195	-0.721823	-0.234358	-0.478090	-0.339844	-0.082031	0.175781	746	16_14_58_3752340
0.058594	-0.216797	0.700195	-0.712448	-0.234358	-0.487465	-0.339844	-0.105469	-0.093750	747	16_14_58_3913630
0.052734	-0.231445	0.688477	-0.721823	-0.234358	-0.487465	-0.328125	-0.046875	-0.128906	748	16_14_58_4074920
0.055664	-0.228516	0.700195	-0.712448	-0.234358	-0.487465	-0.339844	-0.093750	-0.105469	749	16_14_58_4236210
0.061523	-0.210938	0.706055	-0.721823	-0.234358	-0.478090	-0.351563	-0.105469	-0.093750	750	16_14_58_4397500
0.061523	-0.219727	0.694336	-0.712448	-0.234358	-0.487465	-0.339844	-0.105469	-0.093750	751	16_14_58_4558790
0.055664	-0.222656	0.706055	-0.712448	-0.234358	-0.487465	-0.339844	-0.093750	-0.082031	752	16_14_58_4720080
0.052734	-0.222656	0.706055	-0.721823	-0.243732	-0.487465	-0.339844	-0.117188	-0.140625	753	16_14_58_4881370
0.058594	-0.228516	0.706055	-0.712448	-0.234358	-0.478090	-0.339844	-0.082031	-0.175781	754	16_14_58_5042660
0.061523	-0.216797	0.703125	-0.731197	-0.243732	-0.487465	-0.339844	-0.070313	-0.152344	755	16_14_58_5203950
0.070313	-0.225586	0.703125	-0.731197	-0.243732	-0.487465	-0.281250	-0.023438	0.128906	756	16_14_58_5365240
0.052734	-0.222656	0.708984	-0.712448	-0.243732	-0.487465	-0.339844	-0.082031	-0.128906	757	16_14_58_5526530
0.058594	-0.219727	0.708984	-0.721823	-0.234358	-0.487465	-0.339844	-0.117188	-0.187500	758	16_14_58_5687820
0.052734	-0.222656	0.706055	-0.712448	-0.234358	-0.487465	-0.339844	-0.117188	-0.140625	759	16_14_58_5849110
0.064453	-0.228516	0.700195	-0.712448	-0.234358	-0.487465	-0.339844	-0.082031	-0.093750	760	16_14_58_6010400
0.061523	-0.225586	0.700195	-0.721823	-0.243732	-0.487465	-0.339844	-0.117188	-0.105469	761	16_14_58_6171690
0.067383	-0.222656	0.703125	-0.712448	-0.234358	-0.487465	-0.339844	-0.093750	-0.105469	762	16_14_58_6332980
0.061523	-0.228516	0.700195	-0.712448	-0.234358	-0.487465	-0.339844	-0.082031	-0.105469	763	16_14_58_6494270
0.070313	-0.228516	0.697266	-0.712448	-0.234358	-0.487465	-0.351563	-0.082031	-0.117188	764	16_14_58_6655560
0.064453	-0.222656	0.694336	-0.712448	-0.234358	-0.487465	-0.339844	-0.082031	-0.152344	765	16_14_58_6816850
0.064453	-0.222656	0.694336	-0.712448	-0.234358	-0.487465	-0.339844	-0.082031	-0.152344	766	16_14_58_6978140
0.052734	-0.216797	0.700195	-0.721823	-0.234358	-0.487465	-0.339844	-0.082031	-0.023438	767	16_14_58_7139430
0.064453	-0.225586	0.708984	-0.721823	-0.234358	-0.478090	-0.339844	-0.082031	-0.140625	768	16_14_58_7300720
0.052734	-0.225586	0.700195	-0.712448	-0.234358	-0.487465	-0.339844	-0.093750	-0.093750	769	16_14_58_7462010
0.058594	-0.222656	0.700195	-0.712448	-0.234358	-0.487465	-0.351563	-0.105469	-0.128906	770	16_14_58_7623300
0.064453	-0.231445	0.703125	-0.721823	-0.234358	-0.487465	-0.339844	-0.070313	-0.140625	771	16_14_58_7784590
0.046875	-0.222656	0.700195	-0.712448	-0.234358	-0.487465	-0.351563	-0.093750	-0.140625	772	16_14_58_7945880
0.055664	-0.225586	0.700195	-0.712448	-0.243732	-0.487465	-0.351563	-0.128906	-0.152344	773	16_14_58_8107170
0.052734	-0.225586	0.703125	-0.721823	-0.243732	-0.487465	-0.339844	-0.128906	-0.093750	774	16_14_58_8268460
0.052734	-0.225586	0.700195	-0.712448	-0.243732	-0.487465	-0.351563	-0.117188	-0.046875	775	16_14_58_8429750
0.061523	-0.222656	0.703125	-0.712448	-0.234358	-0.487465	-0.328125	-0.093750	-0.082031	776	16_14_58_8591040
0.064453	-0.216797	0.703125	-0.712448	-0.234358	-0.487465	-0.351563	-0.082031	-0.128906	777	16_14_58_8752330
0.055664	-0.225586	0.706055	-0.721823	-0.234358	-0.478090	-0.339844	-0.093750	-0.105469	778	16_14_58_8913620
0.058594	-0.234375	0.700195	-0.712448	-0.234358	-0.478090	-0.339844	-0.117188	-0.140625	779	16_14_58_9074910
0.064453	-0.234375	0.700195	-0.731197	-0.234358	-0.487465	-0.339844	-0.082031	-0.140625	780	16_14_58_9236200
0.052734	-0.222656	0.700195	-0.721823	-0.234358	-0.487465	-0.339844	-0.082031	-0.105469	781	16_14_58_9397490
0.061523	-0.216797	0.700195	-0.712448	-0.224984	-0.487465	-0.339844	-0.093750	-0.140625	782	16_14_58_9558780
0.049805	-0.222656	0.703125	-0.712448	-0.234358	-0.487465	-0.339844	-0.117188	-0.152344	783	16_14_58_9720070
0.058594	-0.234375	0.708984	-0.721823	-0.234358	-0.487465	-0.316406	-0.093750	-0.082031	784	16_14_58_9881360
0.061523	-0.228516	0.706055	-0.712448	-0.234358	-0.487465	-0.351563	-0.082031	-0.082031	785	16_14_59_0042650
0.058594	-0.222656	0.706055	-0.731197	-0.234358	-0.487465	-0.351563	-0.093750	-0.152344	786	16_14_59_0203940
0.058594	-0.222656	0.703125	-0.721823	-0.234358	-0.487465	-0.351563	-0.105469	-0.152344	787	16_14_59_0365230
0.046875	-0.234375	0.700195	-0.712448	-0.234358	-0.487465	-0.339844	-0.093750	-0.105469	788	16_14_59_0526520
0.061523	-0.219727	0.700195	-0.712448	-0.243732	-0.478090	-0.316406	-0.082031	-0.082031	789	16_14_59_0687810
0.055664	-0.228516	0.700195	-0.721823	-0.234358	-0.487465	-0.339844	-0.093750	-0.070313	790	16_14_59_0849100
0.061523	-0.222656	0.703125	-0.721823	-0.243732	-0.487465	-0.246094	-0.070313	-0.046875	791	16_14_59_1010390
0.055664	-0.228516	0.706055	-0.712448	-0.243732	-0.487465	-0.339844	-0.082031	-0.105469	792	16_14_59_1171680
0.064453	-0.225586	0.700195	-0.721823	-0.243732	-0.478090	-0.199219	0.000000	-0.082031	793	16_14_59_1332970
0.055664	-0.228516	0.691406	-0.721823	-0.234358	-0.487465	-0.339844	-0.128906	-0.164063	794	16_14_59_1494260
0.058594	-0.222656	0.700195	-0.712448	-0.234358	-0.487465	-0.351563	-0.105469	-0.128906	795	16_14_59_1655550
0.064453	-0.231445	0.706055	-0.712448	-0.234358	-0.487465	-0.339844	-0.082031	-0.105469	796	16_14_59_1816840
0.052734	-0.234375	0.700195	-0.721823	-0.234358	-0.478090	-0.339844	-0.082031	-0.082031	797	16_14_59_1978130
0.046875	-0.228516	0.703125	-0.721823	-0.234358	-0.478090	-0.304688	-0.082031	-0.082031	798	16_14_59_2139420
0.058594	-0.216797	0.700195	-0.721823	-0.243732	-0.487465	-0.292969	-0.046875	-0.128906	799	16_14_59_2300710
0.070313	-0.222656	0.703125	-0.721823	-0.243732	-0.487465	-0.351563	-0.082031	-0.152344	800	16_14_59_2462000
0.043945	-0.228516	0.706055	-0.712448	-0.234358	-0.487465	-0.339844	-0.070313	-0.164063	801	16_14_59_2623290
0.058594	-0.228516	0.700195	-0.712448	-0.234358	-0.487465	-0.339844	-0.070313	-0.175781	802	16_14_59_2784580
0.058594	-0.225586	0.708984	-0.721823	-0.234358	-0.487465	-0.210938	-0.023438	-0.117188	803	16_14_59_2945870
0.058594	-0.228516	0.706055	-0.721823	-0.243732	-0.487465	-0.351563	-0.128906	-0.117188	804	16_14_59_3107160
0.049805	-0.216797	0.703125	-0.721823	-0.243732	-0.487465	-0.351563	-0.082031	-0.152344	805	16_14_59_3268450
0.046875	-0.231445	0.708984	-0.712448	-0.243732	-0.487465	-0.339844	-0.093750	-0.128906	806	16_14_59_3429740
0.061523	-0.228516	0.700195	-0.721823	-0.234358	-0.487465	-0.351563	-0.128906	-0.128906	807	16_14_59_3591030
0.052734	-0.228516	0.700195	-0.731197	-0.234358	-0.487465	-0.304688	-0.058594	-0.128906	808	16_14_59_3752320
0.049805	-0.216797	0.694336	-0.712448	-0.234358	-0.487465	-0.292969	-0.070313	-0.058594	809	16_14_59_3913610
0.046875	-0.222656	0.700195	-0.721823	-0.243732	-0.487465	-0.292969	-0.046875	-0.093750	810	16_14_59_4074900
0.073242	-0.219727	0.703125	-0.721823	-0.234358	-0.487465	-0.292969	-0.093750	-0.117188	811	16_14_59_4236190
0.058594	-0.225586	0.700195	-0.712448	-0.243732	-0.496839	-0.339844	-0.082031	-0.175781	812	16_14_59_4397480
0.061523	-0.222656	0.694336	-0.712448	-0.234358	-0.487465	-0.363281	-0.105469	-0.128906	813	16_14_59_4558770
0.073242	-0.222656	0.703125	-0.712448	-0.234358	-0.478090	-0.339844	-0.117188	-0.140625	814	16_14_59_4720060
0.052734	-0.228516	0.694336	-0.712448	-0.234358	-0.487465	-0.363281	-0.070313	-0.082031	815	16_14_59_4881350
0.061523	-0.228516	0.706055	-0.721823	-0.234358	-0.487465	-0.339844	-0.082031	-0.058594	816	16_14_59_5042640
0.058594	-0.231445	0.703125	-0.712448	-0.234358	-0.487465	-0.339844	-0.093750	-0.093750	817	16_14_59_5203930
0.061523	-0.234375	0.706055	-0.712448	-0.243732	-0.487465	-0.339844	-0.117188	-0.117188	818	16_14_59_5365220
0.055664	-0.237305	0.703125	-0.712448	-0.234358	-0.478090	-0.339844	-0.117188	-0.128906	819	16_14_59_5526510
0.058594	-0.228516	0.700195	-0.721823	-0.243732	-0.487465	-0.292969	-0.093750	0.011719	820	16_14_59_5687800
0.049805	-0.228516	0.700195	-0.712448	-0.234358	-0.487465	-0.339844	-0.082031	-0.058594	821	16_14_59_5849090
0.052734	-0.225586	0.703125	-0.721823	-0.243732	-0.487465	-0.339844	-0.093750	-0.082031	822	16_14_59_6010380
0.052734	-0.237305	0.697266	-0.721823	-0.234358	-0.487465	-0.339844	-0.082031	-0.140625	823	16_14_59_6171670
0.043945	-0.234375	0.703125	-0.712448	-0.234358	-0.487465	-0.339844	-0.082031	-0.140625	824	16_14_59_6332960
0.061523	-0.240234	0.700195	-0.721823	-0.234358	-0.487465	-0.316406	-0.070313	-0.093750	825	16_14_59_6494250
0.052734	-0.225586	0.700195	-0.721823	-0.234358	-0.487465	-0.339844	-0.082031	-0.105469	826	16_14_59_6655540
0.052734	-0.216797	0.706055	-0.712448	-0.234358	-0.478090	-0.339844	-0.082031	-0.105469	827	16_14_59_6816830
0.061523	-0.225586	0.703125	-0.712448	-0.234358	-0.487465	-0.339844	-0.082031	-0.105469	828	16_14_59_6978120
0.061523	-0.219727	0.706055	-0.721823	-0.234358	-0.487465	-0.363281	-0.082031	-0.117188	829	16_14_59_7139410
0.070313	-0.228516	0.700195	-0.721823	-0.234358	-0.487465	-0.339844	-0.105469	-0.128906	830	16_14_59_7300700
0.058594	-0.216797	0.706055	-0.712448	-0.234358	-0.487465	-0.351563	-0.105469	-0.128906	831	16_14_59_7461990
0.052734	-0.222656	0.711914	-0.712448	-0.234358	-0.487465	-0.351563	-0.082031	-0.105469	832	16_14_59_7623280
0.061523	-0.228516	0.700195	-0.721823	-0.234358	-0.487465	-0.257813	-0.046875	-0.082031	833	16_14_59_7784570
0.052734	-0.231445	0.700195	-0.712448	-0.224984	-0.487465	-0.339844	-0.105469	-0.164063	834	16_14_59_7945860
0.055664	-0.219727	0.697266	-0.721823	-0.234358	-0.487465	-0.363281	-0.117188	-0.140625	835	16_14_59_8107150
0.055664	-0.231445	0.697266	-0.721823	-0.234358	-0.487465	-0.339844	-0.105469	-0.140625	836	16_14_59_8268440
0.052734	-0.228516	0.700195	-0.721823	-0.234358	-0.487465	-0.351563	-0.105469	-0.164063	837	16_14_59_8429730
0.058594	-0.240234	0.703125	-0.721823	-0.234358	-0.487465	-0.339844	-0.105469	-0.187500	838	16_14_59_8591020
0.052734	-0.225586	0.700195	-0.731197	-0.243732	-0.478090	-0.316406	-0.070313	0.187500	839	16_14_59_8752310
0.055664	-0.219727	0.708984	-0.721823	-0.243732	-0.487465	-0.351563	-0.082031	-0.152344	840	16_14_59_8913600
0.052734	-0.228516	0.711914	-0.712448	-0.243732	-0.487465	-0.339844	-0.082031	-0.152344	841	16_14_59_9074890
0.055664	-0.225586	0.706055	-0.721823	-0.243732	-0.487465	-0.339844	-0.082031	-0.140625	842	16_14_59_9236180
0.052734	-0.225586	0.700195	-0.712448	-0.234358	-0.496839	-0.339844	-0.093750	-0.093750	843	16_14_59_9397470
0.058594	-0.225586	0.700195	-0.721823	-0.234358	-0.487465	-0.339844	-0.117188	-0.082031	844	16_14_59_9558760
0.058594	-0.225586	0.703125	-0.721823	-0.234358	-0.487465	-0.328125	-0.093750	-0.082031	845	16_14_59_9720050
0.058594	-0.216797	0.700195	-0.712448	-0.243732	-0.487465	-0.339844	-0.105469	-0.105469	846	16_14_59_9881340
0.064453	-0.228516	0.706055	-0.712448	-0.234358	-0.487465	-0.339844	-0.082031	-0.152344	847	16_15_00_0042630
0.046875	-0.237305	0.703125	-0.721823	-0.243732	-0.487465	-0.339844	-0.093750	-0.128906	848	16_15_00_0203920
0.064453	-0.228516	0.700195	-0.731197	-0.234358	-0.487465	-0.339844	-0.117188	-0.128906	849	16_15_00_0365210
0.052734	-0.222656	0.706055	-0.721823	-0.234358	-0.487465	-0.339844	-0.117188	-0.093750	850	16_15_00_0526500
0.052734	-0.222656	0.700195	-0.721823	-0.234358	-0.487465	-0.339844	-0.105469	0.023438	851	16_15_00_0687790
0.061523	-0.225586	0.703125	-0.721823	-0.224984	-0.487465	-0.339844	-0.093750	-0.105469	852	16_15_00_0849080
0.055664	-0.228516	0.694336	-0.712448	-0.234358	-0.487465	-0.339844	-0.105469	-0.175781	853	16_15_00_1010370
0.058594	-0.210938	0.700195	-0.721823	-0.234358	-0.487465	-0.339844	-0.082031	-0.128906	854	16_15_00_1171660
0.058594	-0.219727	0.708984	-0.712448	-0.243732	-0.487465	-0.363281	-0.082031	-0.117188	855	16_15_00_1332950
0.070313	-0.228516	0.706055	-0.721823	-0.234358	-0.487465	-0.351563	-0.082031	-0.140625	856	16_15_00_1494240
0.052734	-0.228516	0.694336	-0.721823	-0.234358	-0.487465	-0.339844	-0.082031	-0.117188	857	16_15_00_1655530
0.058594	-0.231445	0.706055	-0.712448	-0.234358	-0.487465	-0.339844	-0.093750	-0.082031	858	16_15_00_1816820
0.061523	-0.225586	0.697266	-0.721823	-0.234358	-0.487465	-0.328125	-0.070313	0.140625	859	16_15_00_1978110
0.052734	-0.222656	0.700195	-0.721823	-0.234358	-0.487465	-0.363281	-0.082031	-0.175781	860	16_15_00_2139400
0.058594	-0.219727	0.700195	-0.712448	-0.234358	-0.487465	-0.339844	-0.082031	-0.152344	861	16_15_00_2300690
0.052734	-0.225586	0.706055	-0.712448	-0.243732	-0.487465	-0.339844	-0.082031	-0.140625	862	16_15_00_2461980
0.058594	-0.228516	0.697266	-0.712448	-0.234358	-0.487465	-0.339844	-0.093750	-0.093750	863	16_15_00_2623270
0.049805	-0.219727	0.703125	-0.712448	-0.234358	-0.487465	-0.339844	-0.117188	-0.058594	864	16_15_00_2784560
0.052734	-0.231445	0.700195	-0.721823	-0.234358	-0.487465	-0.339844	-0.082031	-0.117188	865	16_15_00_2945850
0.046875	-0.225586	0.691406	-0.721823	-0.234358	-0.487465	-0.351563	-0.082031	-0.128906	866	16_15_00_3107140
0.052734	-0.231445	0.694336	-0.712448	-0.243732	-0.487465	-0.386719	-0.082031	-0.152344	867	16_15_00_3268430
0.061523	-0.216797	0.700195	-0.721823	-0.243732	-0.487465	-0.339844	-0.082031	-0.140625	868	16_15_00_3429720
0.052734	-0.225586	0.711914	-0.712448	-0.234358	-0.487465	-0.339844	-0.082031	-0.117188	869	16_15_00_3591010
0.058594	-0.222656	0.703125	-0.721823	-0.243732	-0.487465	-0.339844	-0.082031	-0.140625	870	16_15_00_3752300
0.064453	-0.222656	0.711914	-0.712448	-0.234358	-0.487465	-0.339844	-0.082031	-0.152344	871	16_15_00_3913590
0.064453	-0.213867	0.703125	-0.712448	-0.234358	-0.487465	-0.339844	-0.082031	-0.152344	872	16_15_00_4074880
0.058594	-0.222656	0.706055	-0.721823	-0.224984	-0.487465	-0.351563	-0.082031	-0.128906	873	16_15_00_4236170
0.058594	-0.231445	0.694336	-0.721823	-0.234358	-0.487465	-0.339844	-0.082031	-0.128906	874	16_15_00_4397460
0.055664	-0.234375	0.694336	-0.712448	-0.234358	-0.487465	-0.339844	-0.082031	-0.128906	875	16_15_00_4558750
0.058594	-0.237305	0.694336	-0.721823	-0.234358	-0.487465	-0.339844	-0.082031	-0.070313	876	16_15_00_4720040
0.058594	-0.219727	0.700195	-0.721823	-0.243732	-0.478090	-0.339844	-0.093750	-0.058594	877	16_15_00_4881330
0.055664	-0.228516	0.697266	-0.721823	-0.243732	-0.478090	-0.339844	-0.117188	-0.082031	878	16_15_00_5042620
0.052734	-0.219727	0.706055	-0.712448	-0.243732	-0.487465	-0.339844	-0.128906	-0.128906	879	16_15_00_5203910
0.058594	-0.222656	0.706055	-0.712448	-0.243732	-0.487465	-0.339844	-0.117188	-0.140625	880	16_15_00_5365200
0.058594	-0.228516	0.697266	-0.721823	-0.234358	-0.487465	-0.339844	-0.117188	-0.140625	881	16_15_00_5526490
0.055664	-0.219727	0.700195	-0.721823	-0.234358	-0.496839	-0.339844	-0.082031	-0.117188	882	16_15_00_5687780
0.046875	-0.228516	0.706055	-0.721823	-0.243732	-0.487465	-0.339844	-0.082031	-0.128906	883	16_15_00_5849070
0.064453	-0.222656	0.706055	-0.712448	-0.243732	-0.487465	-0.339844	-0.070313	-0.152344	884	16_15_00_6010360
0.052734	-0.219727	0.700195	-0.712448	-0.234358	-0.487465	-0.351563	-0.082031	-0.082031	885	16_15_00_6171650
0.052734	-0.222656	0.697266	-0.712448	-0.234358	-0.487465	-0.339844	-0.082031	-0.117188	886	16_15_00_6332940
0.052734	-0.225586	0.706055	-0.712448	-0.234358	-0.487465	-0.339844	-0.082031	-0.152344	887	16_15_00_6494230
0.061523	-0.225586	0.706055	-0.721823	-0.234358	-0.487465	-0.328125	-0.093750	-0.093750	888	16_15_00_6655520
0.058594	-0.222656	0.706055	-0.731197	-0.243732	-0.487465	-0.152344	-0.082031	0.164063	889	16_15_00_6816810
0.046875	-0.231445	0.700195	-0.712448	-0.243732	-0.478090	-0.339844	-0.105469	-0.070313	890	16_15_00_6978100
0.052734	-0.225586	0.691406	-0.721823	-0.243732	-0.487465	-0.363281	-0.093750	-0.117188	891	16_15_00_7139390
0.064453	-0.225586	0.706055	-0.721823	-0.243732	-0.487465	-0.351563	-0.105469	-0.164063	892	16_15_00_7300680
0.061523	-0.213867	0.706055	-0.712448	-0.234358	-0.487465	-0.351563	-0.082031	-0.140625	893	16_15_00_7461970
0.055664	-0.222656	0.694336	-0.712448	-0.234358	-0.487465	-0.339844	-0.082031	-0.093750	894	16_15_00_7623260
0.064453	-0.222656	0.700195	-0.721823	-0.234358	-0.487465	-0.281250	-0.046875	-0.070313	895	16_15_00_7784550
0.052734	-0.237305	0.700195	-0.721823	-0.243732	-0.487465	-0.351563	-0.117188	-0.164063	896	16_15_00_7945840
0.055664	-0.210938	0.694336	-0.721823	-0.243732	-0.487465	-0.187500	-0.023438	-0.082031	897	16_15_00_8107130
0.064453	-0.219727	0.708984	-0.721823	-0.243732	-0.487465	-0.339844	-0.093750	-0.128906	898	16_15_00_8268420
0.058594	-0.228516	0.691406	-0.712448	-0.243732	-0.487465	-0.339844	-0.117188	-0.105469	899	16_15_00_8429710
0.061523	-0.231445	0.697266	-0.712448	-0.243732	-0.487465	-0.351563	-0.082031	-0.093750	900	16_15_00_8591000
0.061523	-0.225586	0.700195	-0.731197	-0.234358	-0.478090	-0.316406	0.000000	0.140625	901	16_15_00_8752290
0.064453	-0.222656	0.700195	-0.712448	-0.234358	-0.487465	-0.339844	-0.093750	0.070313	902	16_15_00_8913580
0.052734	-0.219727	0.691406	-0.721823	-0.234358	-0.478090	-0.339844	-0.093750	-0.105469	903	16_15_00_9074870
0.064453	-0.219727	0.694336	-0.721823	-0.243732	-0.487465	-0.292969	-0.082031	-0.046875	904	16_15_00_9236160
0.052734	-0.228516	0.703125	-0.712448	-0.234358	-0.487465	-0.339844	-0.093750	-0.035156	905	16_15_00_9397450
0.064453	-0.222656	0.706055	-0.721823	-0.234358	-0.487465	-0.339844	-0.105469	-0.070313	906	16_15_00_9558740
0.055664	-0.222656	0.703125	-0.721823	-0.234358	-0.487465	-0.363281	-0.082031	-0.117188	907	16_15_00_9720030
0.058594	-0.228516	0.700195	-0.712448	-0.234358	-0.487465	-0.363281	-0.093750	-0.117188	908	16_15_00_9881320
0.058594	-0.225586	0.700195	-0.712448	-0.234358	-0.487465	-0.339844	-0.082031	-0.128906	909	16_15_01_0042610
0.052734	-0.222656	0.700195	-0.721823	-0.224984	-0.487465	-0.339844	-0.082031	-0.105469	910	16_15_01_0203900
0.055664	-0.231445	0.700195	-0.712448	-0.243732	-0.487465	-0.339844	-0.082031	-0.152344	911	16_15_01_0365190
0.052734	-0.228516	0.697266	-0.721823	-0.234358	-0.487465	-0.339844	-0.082031	-0.175781	912	16_15_01_0526480
0.041016	-0.219727	0.706055	-0.721823	-0.234358	-0.487465	-0.339844	-0.105469	-0.152344	913	16_15_01_0687770
0.055664	-0.228516	0.700195	-0.712448	-0.243732	-0.487465	-0.363281	-0.117188	-0.128906	914	16_15_01_0849060
0.058594	-0.225586	0.711914	-0.712448	-0.234358	-0.487465	-0.339844	-0.105469	-0.140625	915	16_15_01_1010350
0.058594	-0.222656	0.706055	-0.712448	-0.234358	-0.478090	-0.363281	-0.105469	-0.187500	916	16_15_01_1171640
0.058594	-0.219727	0.694336	-0.721823	-0.234358	-0.487465	-0.339844	-0.082031	-0.152344	917	16_15_01_1332930
0.064453	-0.216797	0.703125	-0.721823	-0.234358	-0.487465	-0.339844	-0.082031	-0.140625	918	16_15_01_1494220
0.064453	-0.219727	0.703125	-0.721823	-0.234358	-0.487465	-0.339844	-0.082031	-0.140625	919	16_15_01_1655510
0.061523	-0.228516	0.700195	-0.721823	-0.234358	-0.487465	-0.199219	0.058594	-0.011719	920	16_15_01_1816800
0.067383	-0.213867	0.700195	-0.712448	-0.234358	-0.487465	-0.375000	-0.093750	-0.105469	921	16_15_01_1978090
0.064453	-0.222656	0.700195	-0.721823	-0.234358	-0.487465	-0.351563	-0.082031	-0.128906	922	16_15_01_2139380
0.058594	-0.228516	0.706055	-0.721823	-0.243732	-0.478090	-0.304688	-0.046875	-0.046875	923	16_15_01_2300670
0.061523	-0.228516	0.700195	-0.712448	-0.234358	-0.487465	-0.339844	-0.082031	-0.117188	924	16_15_01_2461960
0.067383	-0.231445	0.697266	-0.721823	-0.234358	-0.487465	-0.339844	-0.093750	-0.105469	925	16_15_01_2623250
0.055664	-0.222656	0.711914	-0.731197	-0.234358	-0.487465	-0.339844	-0.117188	-0.128906	926	16_15_01_2784540
0.049805	-0.231445	0.700195	-0.712448	-0.234358	-0.478090	-0.339844	-0.117188	-0.117188	927	16_15_01_2945830
0.052734	-0.225586	0.714844	-0.721823	-0.243732	-0.487465	-0.339844	-0.082031	-0.093750	928	16_15_01_3107120
0.061523	-0.225586	0.700195	-0.712448	-0.234358	-0.487465	-0.351563	-0.082031	-0.105469	929	16_15_01_3268410
0.070313	-0.228516	0.694336	-0.712448	-0.234358	-0.487465	-0.339844	-0.082031	-0.082031	930	16_15_01_3429700
0.061523	-0.216797	0.706055	-0.721823	-0.243732	-0.487465	-0.351563	-0.105469	-0.093750	931	16_15_01_3590990
0.055664	-0.225586	0.706055	-0.721823	-0.234358	-0.487465	-0.339844	-0.093750	-0.117188	932	16_15_01_3752280
0.055664	-0.213867	0.700195	-0.721823	-0.234358	-0.487465	-0.339844	-0.082031	-0.058594	933	16_15_01_3913570
0.061523	-0.225586	0.700195	-0.731197	-0.243732	-0.487465	-0.257813	-0.070313	0.058594	934	16_15_01_4074860
0.058594	-0.222656	0.700195	-0.712448	-0.243732	-0.487465	-0.351563	-0.093750	-0.070313	935	16_15_01_4236150
0.052734	-0.219727	0.706055	-0.721823	-0.243732	-0.487465	-0.339844	-0.082031	-0.070313	936	16_15_01_4397440
0.058594	-0.225586	0.697266	-0.721823	-0.234358	-0.487465	-0.246094	-0.011719	-0.070313	937	16_15_01_4558730
0.052734	-0.234375	0.697266	-0.712448	-0.234358	-0.478090	-0.269531	-0.082031	-0.070313	938	16_15_01_4720020
0.055664	-0.231445	0.700195	-0.721823	-0.243732	-0.487465	-0.339844	-0.117188	-0.117188	939	16_15_01_4881310
0.064453	-0.208008	0.697266	-0.712448	-0.234358	-0.478090	-0.339844	-0.093750	-0.128906	940	16_15_01_5042600
0.070313	-0.225586	0.711914	-0.721823	-0.234358	-0.478090	-0.316406	-0.093750	-0.140625	941	16_15_01_5203890
0.061523	-0.231445	0.703125	-0.721823	-0.243732	-0.487465	-0.339844	-0.082031	-0.105469	942	16_15_01_5365180
0.052734	-0.219727	0.700195	-0.712448	-0.234358	-0.487465	-0.351563	-0.093750	-0.070313	943	16_15_01_5526470
0.058594	-0.216797	0.706055	-0.731197	-0.234358	-0.487465	-0.292969	-0.070313	-0.070313	944	16_15_01_5687760
0.055664	-0.231445	0.708984	-0.712448	-0.224984	-0.487465	-0.386719	-0.093750	-0.105469	945	16_15_01_5849050
0.052734	-0.216797	0.700195	-0.721823	-0.234358	-0.487465	-0.339844	-0.105469	-0.093750	946	16_15_01_6010340
0.061523	-0.219727	0.694336	-0.712448	-0.243732	-0.487465	-0.339844	-0.082031	-0.023438	947	16_15_01_6171630
0.061523	-0.231445	0.697266	-0.721823	-0.234358	-0.478090	-0.339844	-0.093750	-0.093750	948	16_15_01_6332920
0.052734	-0.225586	0.700195	-0.721823	-0.243732	-0.487465	-0.339844	-0.105469	-0.128906	949	16_15_01_6494210
0.052734	-0.228516	0.703125	-0.721823	-0.243732	-0.487465	-0.140625	-0.023438	0.000000	950	16_15_01_6655500
0.046875	-0.228516	0.691406	-0.721823	-0.234358	-0.487465	-0.339844	-0.117188	-0.117188	951	16_15_01_6816790
0.055664	-0.222656	0.694336	-0.712448	-0.243732	-0.487465	-0.339844	-0.140625	-0.164063	952	16_15_01_6978080
0.052734	-0.219727	0.711914	-0.721823	-0.243732	-0.487465	-0.339844	-0.140625	-0.199219	953	16_15_01_7139370
0.052734	-0.216797	0.703125	-0.712448	-0.234358	-0.487465	-0.339844	-0.082031	-0.175781	954	16_15_01_7300660
0.055664	-0.219727	0.700195	-0.712448	-0.234358	-0.487465	-0.363281	-0.082031	-0.164063	955	16_15_01_7461950
0.046875	-0.219727	0.694336	-0.712448	-0.234358	-0.487465	-0.339844	-0.093750	-0.164063	956	16_15_01_7623240
0.064453	-0.225586	0.703125	-0.712448	-0.234358	-0.487465	-0.339844	-0.093750	-0.140625	957	16_15_01_7784530
0.061523	-0.219727	0.700195	-0.721823	-0.234358	-0.487465	-0.339844	-0.117188	-0.164063	958	16_15_01_7945820
0.058594	-0.234375	0.694336	-0.712448	-0.243732	-0.487465	-0.199219	-0.035156	-0.070313	959	16_15_01_8107110
0.067383	-0.216797	0.688477	-0.712448	-0.234358	-0.478090	-0.339844	-0.117188	-0.058594	960	16_15_01_8268400
0.058594	-0.216797	0.700195	-0.721823	-0.234358	-0.487465	-0.339844	-0.082031	-0.058594	961	16_15_01_8429690
0.052734	-0.219727	0.700195	-0.721823	-0.234358	-0.487465	-0.363281	-0.093750	-0.093750	962	16_15_01_8590980
0.064453	-0.228516	0.700195	-0.721823	-0.243732	-0.487465	-0.363281	-0.128906	-0.117188	963	16_15_01_8752270
0.058594	-0.219727	0.700195	-0.712448	-0.243732	-0.487465	-0.339844	-0.117188	-0.164063	964	16_15_01_8913560
0.058594	-0.225586	0.703125	-0.721823	-0.243732	-0.487465	-0.351563	-0.093750	-0.023438	965	16_15_01_9074850
0.052734	-0.231445	0.694336	-0.721823	-0.234358	-0.478090	-0.339844	-0.082031	-0.140625	966	16_15_01_9236140
0.052734	-0.219727	0.703125	-0.712448	-0.243732	-0.487465	-0.351563	-0.093750	-0.152344	967	16_15_01_9397430
0.064453	-0.237305	0.700195	-0.721823	-0.234358	-0.496839	-0.199219	-0.070313	-0.023438	968	16_15_01_9558720
0.055664	-0.222656	0.697266	-0.721823	-0.243732	-0.487465	-0.339844	-0.105469	-0.070313	969	16_15_01_9720010
0.058594	-0.225586	0.711914	-0.721823	-0.234358	-0.496839	-0.339844	-0.082031	-0.093750	970	16_15_01_9881300
0.064453	-0.216797	0.711914	-0.731197	-0.234358	-0.487465	-0.105469	-0.023438	0.035156	971	16_15_02_0042590
0.064453	-0.219727	0.708984	-0.721823	-0.243732	-0.487465	-0.339844	-0.093750	-0.093750	972	16_15_02_0203880
0.064453	-0.234375	0.700195	-0.712448	-0.243732	-0.487465	-0.339844	-0.128906	-0.093750	973	16_15_02_0365170
0.052734	-0.222656	0.708984	-0.721823	-0.243732	-0.487465	-0.339844	-0.128906	-0.117188	974	16_15_02_0526460
0.064453	-0.213867	0.700195	-0.721823	-0.234358	-0.487465	-0.339844	-0.093750	0.035156	975	16_15_02_0687750
0.058594	-0.216797	0.703125	-0.712448	-0.234358	-0.487465	-0.351563	-0.082031	-0.128906	976	16_15_02_0849040
0.052734	-0.225586	0.694336	-0.721823	-0.234358	-0.487465	-0.269531	-0.046875	-0.082031	977	16_15_02_1010330
0.061523	-0.228516	0.700195	-0.712448	-0.234358	-0.487465	-0.339844	-0.082031	-0.105469	978	16_15_02_1171620
0.061523	-0.231445	0.706055	-0.731197	-0.243732	-0.487465	-0.234375	-0.046875	-0.023438	979	16_15_02_1332910
0.049805	-0.231445	0.708984	-0.712448	-0.234358	-0.487465	-0.351563	-0.082031	-0.117188	980	16_15_02_1494200
0.061523	-0.213867	0.711914	-0.721823	-0.234358	-0.487465	-0.339844	-0.082031	-0.152344	981	16_15_02_1655490
0.061523	-0.231445	0.706055	-0.712448	-0.243732	-0.487465	-0.339844	-0.082031	-0.152344	982	16_15_02_1816780
0.046875	-0.228516	0.711914	-0.721823	-0.243732	-0.487465	-0.328125	-0.082031	-0.105469	983	16_15_02_1978070
0.055664	-0.219727	0.700195	-0.721823	-0.243732	-0.487465	-0.339844	-0.105469	-0.105469	984	16_15_02_2139360
0.067383	-0.228516	0.700195	-0.712448	-0.234358	-0.487465	-0.339844	-0.117188	-0.105469	985	16_15_02_2300650
0.061523	-0.228516	0.708984	-0.721823	-0.243732	-0.487465	-0.339844	-0.082031	-0.128906	986	16_15_02_2461940
0.076172	-0.222656	0.703125	-0.712448	-0.234358	-0.478090	-0.339844	-0.082031	-0.152344	987	16_15_02_2623230
0.052734	-0.228516	0.703125	-0.731197	-0.234358	-0.487465	-0.339844	-0.082031	-0.152344	988	16_15_02_2784520
0.052734	-0.222656	0.706055	-0.721823	-0.243732	-0.487465	-0.339844	-0.082031	-0.175781	989	16_15_02_2945810
0.061523	-0.225586	0.703125	-0.712448	-0.234358	-0.487465	-0.339844	-0.093750	-0.140625	990	16_15_02_3107100
0.061523	-0.225586	0.703125	-0.721823	-0.243732	-0.487465	-0.328125	-0.082031	-0.093750	991	16_15_02_3268390
0.055664	-0.222656	0.703125	-0.721823	-0.234358	-0.487465	-0.339844	-0.093750	-0.082031	992	16_15_02_3429680
0.058594	-0.228516	0.700195	-0.721823	-0.243732	-0.487465	-0.351563	-0.093750	-0.093750	993	16_15_02_3590970
0.064453	-0.216797	0.703125	-0.721823	-0.234358	-0.478090	-0.339844	-0.105469	-0.152344	994	16_15_02_3752260
0.052734	-0.205078	0.708984	-0.721823	-0.234358	-0.487465	-0.351563	-0.105469	-0.164063	995	16_15_02_3913550
0.049805	-0.234375	0.706055	-0.721823	-0.243732	-0.487465	-0.339844	-0.128906	-0.187500	996	16_15_02_4074840
0.058594	-0.234375	0.706055	-0.712448	-0.234358	-0.487465	-0.339844	-0.105469	-0.164063	997	16_15_02_4236130
0.046875	-0.219727	0.706055	-0.712448	-0.234358	-0.487465	-0.339844	-0.117188	-0.128906	998	16_15_02_4397420
0.070313	-0.231445	0.703125	-0.721823	-0.243732	-0.478090	-0.351563	-0.093750	-0.105469	999	16_15_02_4558710
0.055664	-0.228516	0.703125	-0.721823	-0.243732	-0.487465	-0.222656	-0.046875	-0.105469	1000	16_15_02_4720000
0.052734	-0.216797	0.697266	-0.721823	-0.234358	-0.487465	-0.187500	0.023438	-0.128906	1001	16_15_02_4881290
0.064453	-0.225586	0.700195	-0.721823	-0.234358	-0.487465	-0.339844	-0.093750	-0.128906	1002	16_15_02_5042580
0.064453	-0.240234	0.706055	-0.721823	-0.243732	-0.487465	-0.339844	-0.082031	-0.093750	1003	16_15_02_5203870
0.058594	-0.222656	0.697266	-0.731197	-0.243732	-0.487465	-0.316406	-0.070313	-0.082031	1004	16_15_02_5365160
0.058594	-0.222656	0.700195	-0.731197	-0.243732	-0.487465	-0.304688	-0.070313	-0.070313	1005	16_15_02_5526450
0.058594	-0.240234	0.700195	-0.721823	-0.243732	-0.487465	-0.339844	-0.082031	0.128906	1006	16_15_02_5687740
0.067383	-0.225586	0.700195	-0.721823	-0.243732	-0.496839	-0.386719	-0.093750	-0.128906	1007	16_15_02_5849030
0.058594	-0.228516	0.711914	-0.721823	-0.234358	-0.487465	-0.339844	-0.082031	-0.117188	1008	16_15_02_6010320
0.055664	-0.216797	0.706055	-0.712448	-0.234358	-0.487465	-0.339844	-0.082031	-0.082031	1009	16_15_02_6171610
0.061523	-0.231445	0.691406	-0.721823	-0.243732	-0.487465	-0.386719	-0.082031	-0.140625	1010	16_15_02_6332900
0.052734	-0.228516	0.697266	-0.712448	-0.234358	-0.487465	-0.339844	-0.093750	-0.140625	1011	16_15_02_6494190
0.061523	-0.237305	0.700195	-0.721823	-0.243732	-0.487465	-0.339844	-0.105469	-0.093750	1012	16_15_02_6655480
0.058594	-0.234375	0.700195	-0.712448	-0.243732	-0.487465	-0.339844	-0.093750	-0.117188	1013	16_15_02_6816770
0.058594	-0.222656	0.700195	-0.721823	-0.243732	-0.487465	-0.339844	-0.105469	-0.128906	1014	16_15_02_6978060
0.041016	-0.222656	0.700195	-0.712448	-0.243732	-0.487465	-0.339844	-0.082031	-0.093750	1015	16_15_02_7139350
0.058594	-0.219727	0.706055	-0.712448	-0.243732	-0.487465	-0.351563	-0.093750	-0.070313	1016	16_15_02_7300640
0.046875	-0.222656	0.708984	-0.712448	-0.234358	-0.478090	-0.339844	-0.117188	-0.082031	1017	16_15_02_7461930
0.058594	-0.222656	0.697266	-0.712448	-0.243732	-0.478090	-0.339844	-0.082031	-0.140625	1018	16_15_02_7623220
0.064453	-0.225586	0.697266	-0.731197	-0.243732	-0.487465	-0.257813	-0.070313	-0.093750	1019	16_15_02_7784510
0.049805	-0.222656	0.694336	-0.712448	-0.234358	-0.487465	-0.339844	-0.093750	-0.093750	1020	16_15_02_7945800
0.052734	-0.237305	0.700195	-0.721823	-0.234358	-0.487465	-0.351563	-0.082031	-0.105469	1021	16_15_02_8107090
0.052734	-0.228516	0.703125	-0.712448	-0.243732	-0.487465	-0.351563	-0.093750	-0.128906	1022	16_15_02_8268380
0.049805	-0.222656	0.700195	-0.721823	-0.243732	-0.487465	-0.351563	-0.117188	-0.046875	1023	16_15_02_8429670
0.052734	-0.225586	0.700195	-0.721823	-0.243732	-0.487465	-0.339844	-0.117188	-0.093750	1024	16_15_02_8590960
0.064453	-0.234375	0.697266	-0.721823	-0.234358	-0.487465	-0.351563	-0.117188	-0.140625	1025	16_15_02_8752250
0.058594	-0.225586	0.697266	-0.712448	-0.234358	-0.487465	-0.339844	-0.093750	-0.093750	1026	16_15_02_8913540
0.064453	-0.231445	0.697266	-0.721823	-0.243732	-0.487465	-0.328125	-0.105469	-0.105469	1027	16_15_02_9074830
0.058594	-0.219727	0.700195	-0.721823	-0.243732	-0.487465	-0.339844	-0.093750	-0.128906	1028	16_15_02_9236120
0.064453	-0.228516	0.691406	-0.721823	-0.234358	-0.487465	-0.339844	-0.082031	-0.140625	1029	16_15_02_9397410
0.061523	-0.228516	0.703125	-0.712448	-0.243732	-0.487465	-0.339844	-0.105469	-0.128906	1030	16_15_02_9558700
0.055664	-0.225586	0.706055	-0.721823	-0.234358	-0.496839	-0.339844	-0.105469	-0.175781	1031	16_15_02_9719990
0.061523	-0.228516	0.700195	-0.721823	-0.234358	-0.487465	-0.339844	-0.082031	-0.164063	1032	16_15_02_9881280
0.058594	-0.225586	0.714844	-0.721823	-0.234358	-0.487465	-0.128906	-0.035156	-0.011719	1033	16_15_03_0042570
0.052734	-0.225586	0.700195	-0.721823	-0.243732	-0.487465	-0.339844	-0.140625	-0.117188	1034	16_15_03_0203860
0.052734	-0.228516	0.700195	-0.721823	-0.243732	-0.487465	-0.339844	-0.128906	-0.164063	1035	16_15_03_0365150
0.058594	-0.219727	0.697266	-0.712448	-0.243732	-0.487465	-0.339844	-0.082031	-0.199219	1036	16_15_03_0526440
0.055664	-0.240234	0.703125	-0.721823	-0.243732	-0.487465	-0.339844	-0.093750	-0.152344	1037	16_15_03_0687730
0.049805	-0.228516	0.711914	-0.721823	-0.234358	-0.487465	-0.339844	-0.093750	-0.152344	1038	16_15_03_0849020
0.055664	-0.225586	0.697266	-0.721823	-0.243732	-0.487465	-0.281250	-0.070313	-0.105469	1039	16_15_03_1010310
0.061523	-0.222656	0.697266	-0.721823	-0.234358	-0.487465	-0.339844	-0.093750	-0.140625	1040	16_15_03_1171600
0.052734	-0.225586	0.691406	-0.721823	-0.243732	-0.478090	-0.339844	-0.128906	-0.117188	1041	16_15_03_1332890
0.041016	-0.234375	0.700195	-0.731197	-0.243732	-0.487465	-0.210938	-0.046875	-0.046875	1042	16_15_03_1494180
0.052734	-0.228516	0.697266	-0.721823	-0.243732	-0.487465	-0.351563	-0.082031	-0.175781	1043	16_15_03_1655470
0.061523	-0.213867	0.697266	-0.721823	-0.243732	-0.487465	-0.339844	-0.082031	-0.164063	1044	16_15_03_1816760
0.064453	-0.225586	0.711914	-0.721823	-0.243732	-0.487465	-0.339844	-0.093750	-0.152344	1045	16_15_03_1978050
0.061523	-0.228516	0.703125	-0.721823	-0.243732	-0.487465	-0.351563	-0.093750	-0.187500	1046	16_15_03_2139340
0.052734	-0.219727	0.700195	-0.731197	-0.234358	-0.487465	-0.328125	-0.070313	-0.152344	1047	16_15_03_2300630
0.064453	-0.237305	0.708984	-0.712448	-0.243732	-0.487465	-0.375000	-0.082031	-0.105469	1048	16_15_03_2461920
0.055664	-0.225586	0.703125	-0.721823	-0.243732	-0.487465	-0.339844	-0.093750	-0.117188	1049	16_15_03_2623210
0.061523	-0.222656	0.700195	-0.721823	-0.243732	-0.487465	-0.339844	-0.117188	-0.128906	1050	16_15_03_2784500
0.064453	-0.231445	0.694336	-0.712448	-0.243732	-0.478090	-0.339844	-0.117188	-0.105469	1051	16_15_03_2945790
0.052734	-0.225586	0.700195	-0.721823	-0.243732	-0.487465	-0.351563	-0.105469	-0.105469	1052	16_15_03_3107080
0.058594	-0.231445	0.700195	-0.721823	-0.243732	-0.487465	-0.339844	-0.117188	-0.105469	1053	16_15_03_3268370
0.058594	-0.222656	0.706055	-0.721823	-0.243732	-0.487465	-0.351563	-0.082031	-0.128906	1054	16_15_03_3429660
0.061523	-0.222656	0.700195	-0.712448	-0.243732	-0.487465	-0.339844	-0.082031	-0.152344	1055	16_15_03_3590950
0.067383	-0.222656	0.711914	-0.712448	-0.234358	-0.487465	-0.339844	-0.082031	-0.117188	1056	16_15_03_3752240
0.064453	-0.237305	0.706055	-0.721823	-0.243732	-0.487465	-0.339844	-0.093750	-0.093750	1057	16_15_03_3913530
0.061523	-0.222656	0.706055	-0.721823	-0.243732	-0.487465	-0.386719	-0.128906	-0.093750	1058	16_15_03_4074820
0.058594	-0.222656	0.700195	-0.721823	-0.243732	-0.487465	-0.339844	-0.128906	-0.117188	1059	16_15_03_4236110
0.061523	-0.225586	0.700195	-0.712448	-0.243732	-0.487465	-0.339844	-0.117188	-0.093750	1060	16_15_03_4397400
0.058594	-0.231445	0.700195	-0.721823	-0.234358	-0.487465	-0.363281	-0.117188	-0.070313	1061	16_15_03_4558690
0.052734	-0.228516	0.694336	-0.712448	-0.243732	-0.487465	-0.339844	-0.128906	-0.093750	1062	16_15_03_4719980
0.058594	-0.216797	0.694336	-0.721823	-0.243732	-0.487465	-0.351563	-0.128906	-0.093750	1063	16_15_03_4881270
0.049805	-0.222656	0.697266	-0.712448	-0.243732	-0.487465	-0.351563	-0.105469	-0.105469	1064	16_15_03_5042560
0.058594	-0.234375	0.700195	-0.721823	-0.243732	-0.478090	-0.152344	-0.058594	0.035156	1065	16_15_03_5203850
0.064453	-0.216797	0.711914	-0.721823	-0.243732	-0.487465	-0.351563	-0.082031	-0.152344	1066	16_15_03_5365140
0.061523	-0.222656	0.700195	-0.731197	-0.234358	-0.487465	-0.339844	-0.035156	-0.046875	1067	16_15_03_5526430
0.064453	-0.228516	0.700195	-0.712448	-0.243732	-0.487465	-0.339844	-0.093750	-0.093750	1068	16_15_03_5687720
0.061523	-0.231445	0.700195	-0.721823	-0.243732	-0.487465	-0.339844	-0.082031	-0.011719	1069	16_15_03_5849010
0.058594	-0.225586	0.703125	-0.721823	-0.243732	-0.487465	-0.339844	-0.093750	-0.152344	1070	16_15_03_6010300
0.055664	-0.222656	0.694336	-0.721823	-0.243732	-0.487465	-0.269531	-0.035156	-0.117188	1071	16_15_03_6171590
0.049805	-0.228516	0.694336	-0.721823	-0.243732	-0.487465	-0.339844	-0.093750	-0.152344	1072	16_15_03_6332880
0.055664	-0.219727	0.700195	-0.721823	-0.243732	-0.487465	-0.339844	-0.105469	-0.175781	1073	16_15_03_6494170
0.055664	-0.228516	0.694336	-0.721823	-0.243732	-0.487465	-0.339844	-0.082031	-0.152344	1074	16_15_03_6655460
0.041016	-0.228516	0.694336	-0.731197	-0.243732	-0.487465	-0.328125	-0.070313	-0.105469	1075	16_15_03_6816750
0.049805	-0.222656	0.706055	-0.721823	-0.243732	-0.487465	-0.339844	-0.082031	-0.128906	1076	16_15_03_6978040
0.061523	-0.222656	0.694336	-0.712448	-0.243732	-0.487465	-0.339844	-0.082031	-0.140625	1077	16_15_03_7139330
0.058594	-0.222656	0.706055	-0.731197	-0.243732	-0.487465	-0.351563	-0.117188	-0.128906	1078	16_15_03_7300620
0.055664	-0.228516	0.703125	-0.721823	-0.243732	-0.487465	-0.339844	-0.117188	-0.128906	1079	16_15_03_7461910
0.061523	-0.225586	0.700195	-0.712448	-0.243732	-0.487465	-0.351563	-0.082031	-0.152344	1080	16_15_03_7623200
0.061523	-0.222656	0.700195	-0.721823	-0.243732	-0.487465	-0.316406	-0.070313	-0.093750	1081	16_15_03_7784490
0.067383	-0.228516	0.697266	-0.721823	-0.243732	-0.487465	-0.386719	-0.082031	-0.082031	1082	16_15_03_7945780
0.064453	-0.228516	0.697266	-0.712448	-0.243732	-0.487465	-0.339844	-0.082031	-0.117188	1083	16_15_03_8107070
0.052734	-0.228516	0.700195	-0.721823	-0.243732	-0.487465	-0.339844	-0.105469	-0.105469	1084	16_15_03_8268360
0.052734	-0.228516	0.697266	-0.712448	-0.234358	-0.487465	-0.339844	-0.140625	-0.140625	1085	16_15_03_8429650
0.058594	-0.231445	0.711914	-0.712448	-0.234358	-0.487465	-0.339844	-0.082031	-0.164063	1086	16_15_03_8590940
0.058594	-0.240234	0.703125	-0.721823	-0.243732	-0.487465	-0.328125	-0.082031	-0.175781	1087	16_15_03_8752230
0.055664	-0.228516	0.703125	-0.721823	-0.243732	-0.487465	-0.351563	-0.082031	-0.152344	1088	16_15_03_8913520
0.064453	-0.225586	0.703125	-0.712448	-0.243732	-0.487465	-0.351563	-0.082031	-0.164063	1089	16_15_03_9074810
0.058594	-0.234375	0.703125	-0.721823	-0.243732	-0.487465	-0.339844	-0.093750	-0.117188	1090	16_15_03_9236100
0.058594	-0.225586	0.703125	-0.712448	-0.243732	-0.487465	-0.351563	-0.082031	-0.105469	1091	16_15_03_9397390
0.061523	-0.222656	0.706055	-0.712448	-0.234358	-0.487465	-0.339844	-0.117188	-0.140625	1092	16_15_03_9558680
0.052734	-0.222656	0.691406	-0.712448	-0.234358	-0.487465	-0.339844	-0.082031	-0.128906	1093	16_15_03_9719970
0.064453	-0.234375	0.706055	-0.721823	-0.243732	-0.487465	-0.281250	-0.058594	-0.128906	1094	16_15_03_9881260
0.052734	-0.228516	0.700195	-0.721823	-0.243732	-0.487465	-0.351563	-0.093750	-0.164063	1095	16_15_04_0042550
0.058594	-0.222656	0.700195	-0.712448	-0.234358	-0.487465	-0.339844	-0.082031	-0.140625	1096	16_15_04_0203840
0.070313	-0.240234	0.706055	-0.712448	-0.234358	-0.487465	-0.339844	-0.082031	-0.128906	1097	16_15_04_0365130
0.064453	-0.228516	0.694336	-0.721823	-0.243732	-0.487465	-0.375000	-0.082031	-0.140625	1098	16_15_04_0526420
0.067383	-0.216797	0.706055	-0.721823	-0.243732	-0.487465	-0.351563	-0.093750	-0.187500	1099	16_15_04_0687710
