sensor_ID	2794
Accel_X	Accel_Y	Accel_Z	Roll	Pitch	Yaw	Mag_X	Mag_Y	Mag_Z	Count	SysTime
0.496048	-0.208075	0.817774	-0.005334	0.007844	-0.005334	-0.767212	-0.157959	-0.938110	0	16_15_03_0430000
0.496048	-0.208075	0.817774	-0.012551	0.008158	0.004393	-0.767090	-0.157959	-0.938232	1	16_15_03_0510000
0.496048	-0.208289	0.817774	-0.009099	0.000000	0.011296	-0.767090	-0.157837	-0.938232	2	16_15_03_0590000
0.496048	-0.208289	0.817774	-0.012237	0.019140	-0.004393	-0.767090	-0.157715	-0.938354	3	16_15_03_0670000
0.495834	-0.208502	0.817774	-0.013492	0.009413	0.008472	-0.766968	-0.157593	-0.938354	4	16_15_03_0750000
0.495834	-0.208502	0.817774	0.018513	-0.000314	0.010668	-0.766968	-0.157593	-0.938477	5	16_15_03_0830000
0.495834	-0.208289	0.817774	0.027926	-0.004079	0.001883	-0.766968	-0.157715	-0.938354	6	16_15_03_0910000
0.495834	-0.208075	0.817774	0.010982	0.000314	-0.001569	-0.766968	-0.157837	-0.938354	7	16_15_03_0990000
0.495834	-0.208075	0.817774	-0.002824	0.001569	0.003138	-0.766968	-0.157837	-0.938354	8	16_15_03_1070000
0.495834	-0.208075	0.817774	0.013492	0.006589	0.000628	-0.766968	-0.157959	-0.938354	9	16_15_03_1150000
0.495834	-0.208075	0.817774	0.014747	0.006589	0.003138	-0.766846	-0.157959	-0.938354	10	16_15_03_1230000
0.495834	-0.208075	0.817774	-0.016630	-0.010041	0.002196	-0.766968	-0.157959	-0.938354	11	16_15_03_1310000
0.495834	-0.208075	0.817774	0.000941	0.003765	-0.004079	-0.766968	-0.157959	-0.938354	12	16_15_03_1390000
0.495834	-0.208075	0.817774	0.001883	0.008472	-0.004079	-0.766846	-0.157959	-0.938354	13	16_15_03_1470000
0.495834	-0.208075	0.817774	-0.008786	0.004393	-0.001569	-0.766846	-0.157959	-0.938354	14	16_15_03_1550000
0.495834	-0.208075	0.817988	0.009727	0.005334	0.000628	-0.766846	-0.157959	-0.938477	15	16_15_03_1630000
0.495834	-0.207862	0.817988	0.010668	0.005648	-0.002824	-0.766724	-0.158081	-0.938477	16	16_15_03_1710000
0.495621	-0.207862	0.817988	-0.006275	0.003765	0.001255	-0.766724	-0.158081	-0.938477	17	16_15_03_1790000
0.495621	-0.208075	0.817988	-0.018199	0.008158	0.015375	-0.766724	-0.157959	-0.938477	18	16_15_03_1870000
0.495621	-0.208075	0.817988	-0.012551	0.008786	0.012865	-0.766724	-0.157837	-0.938599	19	16_15_03_1950000
0.495621	-0.208289	0.817988	0.000000	0.006903	0.001883	-0.766602	-0.157715	-0.938599	20	16_15_03_2030000
0.495621	-0.208289	0.817988	0.000314	-0.002510	-0.002510	-0.766602	-0.157715	-0.938599	21	16_15_03_2110000
0.495621	-0.208289	0.817988	0.010041	0.003765	0.000000	-0.766602	-0.157715	-0.938599	22	16_15_03_2190000
0.495621	-0.208075	0.817988	0.020082	-0.001569	0.009099	-0.766602	-0.157837	-0.938599	23	16_15_03_2270000
0.495621	-0.208075	0.817988	0.016316	-0.001883	0.015061	-0.766602	-0.157959	-0.938599	24	16_15_03_2350000
0.495621	-0.208075	0.817988	-0.010355	-0.009099	0.011610	-0.766724	-0.157837	-0.938477	25	16_15_03_2430000
0.495621	-0.208075	0.817988	-0.012237	0.003765	0.010982	-0.766724	-0.157715	-0.938477	26	16_15_03_2510000
0.495621	-0.208289	0.817988	-0.000628	-0.001255	0.003452	-0.766724	-0.157593	-0.938477	27	16_15_03_2590000
0.495621	-0.208289	0.817988	0.005962	0.009413	-0.001255	-0.766724	-0.157593	-0.938599	28	16_15_03_2670000
0.495407	-0.208289	0.817988	-0.006275	0.004393	0.006903	-0.766724	-0.157593	-0.938599	29	16_15_03_2750000
0.495407	-0.208289	0.817988	-0.003452	0.002196	0.010041	-0.766724	-0.157593	-0.938599	30	16_15_03_2830000
0.495407	-0.208289	0.817988	0.019454	-0.003452	0.009727	-0.766724	-0.157593	-0.938599	31	16_15_03_2910000
0.495407	-0.208075	0.817988	0.029181	-0.005648	0.000314	-0.766724	-0.157715	-0.938477	32	16_15_03_2990000
0.495621	-0.208075	0.817988	-0.016003	-0.012237	-0.004707	-0.766846	-0.157837	-0.938477	33	16_15_03_3070000
0.495621	-0.208289	0.817988	-0.013806	0.003765	0.005334	-0.766846	-0.157715	-0.938477	34	16_15_03_3150000
0.495621	-0.208289	0.817988	-0.011923	0.000628	-0.004707	-0.766846	-0.157593	-0.938477	35	16_15_03_3230000
0.495621	-0.208289	0.817988	0.001883	0.012551	-0.007531	-0.766724	-0.157593	-0.938477	36	16_15_03_3310000
0.495407	-0.208289	0.817988	-0.000941	0.002510	-0.002510	-0.766724	-0.157593	-0.938599	37	16_15_03_3390000
0.495407	-0.208289	0.817988	0.009727	0.003765	-0.007217	-0.766724	-0.157715	-0.938599	38	16_15_03_3470000
0.495407	-0.208075	0.817988	0.014434	0.010982	-0.015375	-0.766602	-0.157837	-0.938599	39	16_15_03_3550000
0.495407	-0.208075	0.818201	-0.017258	-0.000628	-0.004393	-0.766602	-0.157959	-0.938599	40	16_15_03_3630000
0.495407	-0.208075	0.817988	0.001569	0.001569	-0.001883	-0.766602	-0.157837	-0.938599	41	16_15_03_3710000
0.495407	-0.208075	0.818201	0.004079	0.003765	0.003452	-0.766602	-0.157959	-0.938599	42	16_15_03_3790000
0.495407	-0.208075	0.818201	0.008472	-0.009099	0.012865	-0.766602	-0.157959	-0.938599	43	16_15_03_3870000
0.495407	-0.207862	0.818201	0.021337	0.000628	-0.004393	-0.766602	-0.157959	-0.938599	44	16_15_03_3950000
0.495407	-0.207862	0.818201	0.001883	0.008158	0.001569	-0.766602	-0.158081	-0.938599	45	16_15_03_4030000
0.495407	-0.207862	0.818201	0.008786	0.009099	0.010982	-0.766602	-0.158081	-0.938599	46	16_15_03_4110000
0.495407	-0.207862	0.818201	-0.009413	0.012237	0.010041	-0.766479	-0.158081	-0.938721	47	16_15_03_4190000
0.495193	-0.207862	0.818201	-0.010982	0.006903	-0.001883	-0.766479	-0.157959	-0.938721	48	16_15_03_4270000
0.495193	-0.208075	0.818201	-0.011923	0.006903	0.000314	-0.766357	-0.157837	-0.938721	49	16_15_03_4350000
0.495193	-0.208075	0.818201	0.001883	-0.002510	-0.007531	-0.766357	-0.157837	-0.938843	50	16_15_03_4430000
0.495407	-0.208075	0.818201	-0.002196	-0.006903	-0.013806	-0.766357	-0.157959	-0.938721	51	16_15_03_4510000
0.495407	-0.207862	0.818201	0.004393	-0.001255	0.003452	-0.766479	-0.157959	-0.938721	52	16_15_03_4590000
0.495407	-0.208075	0.818201	-0.009099	-0.005334	0.000941	-0.766479	-0.157959	-0.938721	53	16_15_03_4670000
0.495407	-0.208075	0.818201	-0.011923	-0.007217	-0.004079	-0.766479	-0.157837	-0.938721	54	16_15_03_4750000
0.495407	-0.208075	0.817988	-0.009727	-0.014747	-0.001569	-0.766602	-0.157837	-0.938599	55	16_15_03_4830000
0.495621	-0.208075	0.817988	0.015689	-0.007844	0.009099	-0.766724	-0.157837	-0.938599	56	16_15_03_4910000
0.495621	-0.208075	0.817988	-0.019454	0.003765	0.002824	-0.766724	-0.157837	-0.938477	57	16_15_03_4990000
0.495621	-0.208289	0.817988	-0.016316	-0.004079	0.009413	-0.766724	-0.157593	-0.938599	58	16_15_03_5070000
0.495621	-0.208289	0.817988	-0.001569	0.005648	0.010982	-0.766724	-0.157471	-0.938599	59	16_15_03_5150000
0.495621	-0.208289	0.817988	0.016316	-0.004393	0.000314	-0.766724	-0.157593	-0.938599	60	16_15_03_5230000
0.495621	-0.208289	0.817988	0.018826	0.004079	-0.009413	-0.766724	-0.157715	-0.938477	61	16_15_03_5310000
0.495621	-0.208075	0.817988	0.014747	-0.002196	-0.002824	-0.766724	-0.157837	-0.938477	62	16_15_03_5390000
0.495621	-0.207862	0.817988	0.012865	-0.001569	0.003765	-0.766724	-0.157959	-0.938477	63	16_15_03_5470000
0.495621	-0.207862	0.817988	-0.004079	-0.006275	0.002196	-0.766846	-0.157959	-0.938477	64	16_15_03_5550000
0.495621	-0.207862	0.817988	0.010668	-0.004079	0.002824	-0.766846	-0.157959	-0.938354	65	16_15_03_5630000
0.495621	-0.207862	0.817988	0.003765	0.000941	0.008472	-0.766846	-0.158081	-0.938354	66	16_15_03_5710000
0.495621	-0.207862	0.817988	-0.012237	0.000941	-0.001569	-0.766846	-0.157959	-0.938354	67	16_15_03_5790000
0.495621	-0.207862	0.817988	0.000314	-0.004707	0.005962	-0.766846	-0.157959	-0.938354	68	16_15_03_5870000
0.495621	-0.208075	0.817988	0.002196	0.006903	0.004393	-0.766846	-0.157959	-0.938354	69	16_15_03_5950000
0.495621	-0.208075	0.817988	-0.014120	0.005962	0.007531	-0.766846	-0.157837	-0.938477	70	16_15_03_6030000
0.495621	-0.208075	0.817988	0.030436	0.012237	0.004393	-0.766846	-0.157837	-0.938477	71	16_15_03_6110000
0.495621	-0.207862	0.818201	0.028240	0.000000	0.005962	-0.766724	-0.158081	-0.938477	72	16_15_03_6190000
0.495621	-0.207648	0.818201	0.009413	-0.004707	0.002510	-0.766846	-0.158203	-0.938477	73	16_15_03_6270000
0.495621	-0.207862	0.818201	-0.016944	0.009727	-0.000941	-0.766724	-0.158203	-0.938477	74	16_15_03_6350000
0.495407	-0.207862	0.818201	-0.023847	0.007217	0.014120	-0.766724	-0.157959	-0.938477	75	16_15_03_6430000
0.495407	-0.208075	0.818201	-0.032005	0.015375	0.007844	-0.766724	-0.157715	-0.938599	76	16_15_03_6510000
0.495407	-0.208289	0.818201	-0.004393	0.003765	-0.005020	-0.766602	-0.157593	-0.938721	77	16_15_03_6590000
0.495407	-0.208289	0.818201	0.000314	0.006589	-0.006589	-0.766602	-0.157593	-0.938721	78	16_15_03_6670000
0.495193	-0.208289	0.818201	-0.001569	-0.001569	0.000000	-0.766602	-0.157593	-0.938721	79	16_15_03_6750000
0.495407	-0.208289	0.818201	-0.003452	-0.001883	-0.003452	-0.766602	-0.157593	-0.938721	80	16_15_03_6830000
0.495407	-0.208289	0.818201	-0.003138	0.000000	-0.004079	-0.766602	-0.157593	-0.938721	81	16_15_03_6910000
0.495407	-0.208289	0.818201	-0.007531	-0.010982	-0.010041	-0.766602	-0.157593	-0.938721	82	16_15_03_6990000
0.495407	-0.208289	0.818201	-0.003765	-0.004079	-0.010041	-0.766602	-0.157715	-0.938599	83	16_15_03_7070000
0.495407	-0.208289	0.817988	-0.002196	0.005334	-0.010668	-0.766602	-0.157715	-0.938599	84	16_15_03_7150000
0.495407	-0.208289	0.817988	-0.030750	-0.002510	-0.012865	-0.766602	-0.157715	-0.938599	85	16_15_03_7230000
0.495407	-0.208289	0.817988	-0.023533	0.009413	-0.016316	-0.766602	-0.157593	-0.938721	86	16_15_03_7310000
0.495407	-0.208289	0.817988	-0.007531	0.000314	-0.019454	-0.766479	-0.157593	-0.938721	87	16_15_03_7390000
0.495621	-0.208289	0.817988	-0.005648	0.000000	-0.001883	-0.766479	-0.157593	-0.938721	88	16_15_03_7470000
0.495621	-0.208502	0.817988	-0.020395	0.005648	0.000628	-0.766479	-0.157471	-0.938721	89	16_15_03_7550000
0.495407	-0.208502	0.817988	0.005962	-0.001255	0.006589	-0.766479	-0.157471	-0.938843	90	16_15_03_7630000
0.495407	-0.208502	0.817988	0.016944	0.010041	0.005648	-0.766479	-0.157471	-0.938843	91	16_15_03_7710000
0.495407	-0.208289	0.817988	0.016630	0.002824	0.011923	-0.766479	-0.157593	-0.938843	92	16_15_03_7790000
0.495407	-0.208289	0.817988	0.011923	-0.000941	0.006903	-0.766479	-0.157593	-0.938843	93	16_15_03_7870000
0.495407	-0.208289	0.818201	0.010355	0.003765	0.012237	-0.766479	-0.157593	-0.938843	94	16_15_03_7950000
0.495407	-0.208289	0.818201	0.017885	0.000000	0.011923	-0.766479	-0.157715	-0.938843	95	16_15_03_8030000
0.495407	-0.208075	0.818201	-0.001883	0.010355	0.010041	-0.766479	-0.157715	-0.938843	96	16_15_03_8110000
0.495193	-0.208289	0.818201	0.017571	-0.004393	0.021650	-0.766479	-0.157593	-0.938843	97	16_15_03_8190000
0.495193	-0.208075	0.818201	0.015375	0.002196	0.014434	-0.766479	-0.157593	-0.938721	98	16_15_03_8270000
0.495193	-0.208075	0.818201	0.010982	0.008472	0.015375	-0.766479	-0.157715	-0.938843	99	16_15_03_8350000
0.495193	-0.208075	0.818201	0.023847	0.003765	0.009727	-0.766479	-0.157715	-0.938843	100	16_15_03_8430000
0.495193	-0.207862	0.818415	0.014120	0.005962	0.009413	-0.766357	-0.157837	-0.938843	101	16_15_03_8510000
0.494980	-0.207862	0.818415	0.013806	0.005648	0.014434	-0.766357	-0.157837	-0.938843	102	16_15_03_8590000
0.494980	-0.207862	0.818415	0.001255	0.014747	-0.001569	-0.766357	-0.157837	-0.938843	103	16_15_03_8670000
0.494980	-0.207862	0.818415	-0.011610	0.008786	-0.019768	-0.766235	-0.157959	-0.938965	104	16_15_03_8750000
0.494980	-0.207862	0.818415	0.008158	0.005648	-0.004079	-0.766113	-0.157959	-0.938965	105	16_15_03_8830000
0.494980	-0.207862	0.818415	-0.015689	-0.004707	-0.001569	-0.766113	-0.157959	-0.938965	106	16_15_03_8910000
0.494980	-0.207862	0.818415	-0.006589	0.000628	0.004079	-0.766235	-0.157837	-0.938965	107	16_15_03_8990000
0.494980	-0.207862	0.818415	0.010041	0.003765	-0.006903	-0.766113	-0.157959	-0.938965	108	16_15_03_9070000
0.494980	-0.207862	0.818415	-0.024474	0.009727	0.000628	-0.766113	-0.157837	-0.938965	109	16_15_03_9150000
0.494766	-0.208075	0.818415	-0.005334	0.015061	-0.003452	-0.765991	-0.157837	-0.939087	110	16_15_03_9230000
0.494766	-0.208075	0.818415	-0.006903	-0.000941	0.000628	-0.765991	-0.157715	-0.939209	111	16_15_03_9310000
0.494766	-0.208075	0.818415	0.000941	0.008472	-0.001569	-0.765991	-0.157715	-0.939209	112	16_15_03_9390000
0.494766	-0.208075	0.818628	0.007844	-0.000941	-0.006589	-0.765991	-0.157837	-0.939209	113	16_15_03_9470000
0.494766	-0.207862	0.818628	0.015375	0.000000	0.000314	-0.765991	-0.157959	-0.939209	114	16_15_03_9550000
0.494766	-0.207862	0.818628	0.010355	0.010982	0.002196	-0.765869	-0.157959	-0.939209	115	16_15_03_9630000
0.494766	-0.207862	0.818628	0.014434	0.009727	0.002510	-0.765869	-0.158081	-0.939209	116	16_15_03_9710000
0.494766	-0.207648	0.818628	0.014120	-0.002196	0.004079	-0.765869	-0.158203	-0.939209	117	16_15_03_9790000
0.494766	-0.207648	0.818628	-0.005962	-0.000628	0.001883	-0.765869	-0.158203	-0.939209	118	16_15_03_9870000
0.494766	-0.207648	0.818628	0.007844	-0.003765	0.003138	-0.765869	-0.158203	-0.939209	119	16_15_03_9950000
0.494766	-0.207648	0.818628	0.006275	-0.002824	0.003765	-0.765869	-0.158203	-0.939209	120	16_15_04_0030000
0.494766	-0.207648	0.818628	0.000941	0.001255	0.000000	-0.765869	-0.158203	-0.939087	121	16_15_04_0110000
0.494766	-0.207648	0.818628	0.014120	0.001255	0.002824	-0.765869	-0.158325	-0.939087	122	16_15_04_0190000
0.494766	-0.207648	0.818628	-0.013179	-0.009099	0.000941	-0.765991	-0.158325	-0.939087	123	16_15_04_0270000
0.494766	-0.207648	0.818628	-0.008472	-0.020082	0.005020	-0.766113	-0.158203	-0.939087	124	16_15_04_0350000
0.494980	-0.207648	0.818628	0.012237	-0.014120	0.009099	-0.766235	-0.158203	-0.938965	125	16_15_04_0430000
0.494980	-0.207648	0.818415	0.000000	-0.003765	0.022278	-0.766235	-0.158081	-0.938843	126	16_15_04_0510000
0.494980	-0.207648	0.818415	-0.009413	0.003765	0.008786	-0.766357	-0.157959	-0.938843	127	16_15_04_0590000
0.494980	-0.207862	0.818415	0.007844	-0.001255	0.006903	-0.766357	-0.157959	-0.938843	128	16_15_04_0670000
0.494980	-0.207648	0.818415	0.000941	0.003765	-0.004707	-0.766357	-0.157959	-0.938843	129	16_15_04_0750000
0.494980	-0.207648	0.818415	0.005020	0.000941	-0.004707	-0.766235	-0.158081	-0.938843	130	16_15_04_0830000
0.494980	-0.207648	0.818628	0.015689	0.002510	0.000628	-0.766235	-0.158081	-0.938843	131	16_15_04_0910000
0.494980	-0.207434	0.818628	0.020082	-0.003138	0.002824	-0.766235	-0.158325	-0.938843	132	16_15_04_0990000
0.494980	-0.207434	0.818628	0.010355	0.010041	0.000628	-0.766235	-0.158325	-0.938843	133	16_15_04_1070000
0.494980	-0.207434	0.818628	-0.026357	0.007217	0.003765	-0.766235	-0.158325	-0.938843	134	16_15_04_1150000
0.494980	-0.207648	0.818628	-0.036084	-0.005962	0.002510	-0.766235	-0.158081	-0.938965	135	16_15_04_1230000
0.494980	-0.207862	0.818415	-0.036084	0.007531	0.006275	-0.766235	-0.157837	-0.938965	136	16_15_04_1310000
0.494766	-0.208075	0.818415	-0.011610	0.003765	0.008472	-0.766235	-0.157593	-0.938965	137	16_15_04_1390000
0.494980	-0.208075	0.818415	0.003452	-0.010355	0.000628	-0.766235	-0.157471	-0.938965	138	16_15_04_1470000
0.494980	-0.208075	0.818415	-0.007531	0.003765	-0.003138	-0.766235	-0.157471	-0.938965	139	16_15_04_1550000
0.494980	-0.208075	0.818415	0.023533	0.003765	-0.000941	-0.766235	-0.157593	-0.938965	140	16_15_04_1630000
0.494980	-0.207862	0.818628	0.038594	0.002824	0.000000	-0.766235	-0.157837	-0.938965	141	16_15_04_1710000
0.494980	-0.207648	0.818628	0.038281	0.006275	0.007217	-0.766235	-0.158081	-0.938965	142	16_15_04_1790000
0.494766	-0.207434	0.818628	0.015061	0.013806	0.007217	-0.766113	-0.158203	-0.938965	143	16_15_04_1870000
0.494766	-0.207434	0.818628	0.005962	0.002824	0.008786	-0.766113	-0.158325	-0.938965	144	16_15_04_1950000
0.494766	-0.207434	0.818628	0.002196	-0.004707	0.000314	-0.766113	-0.158325	-0.938965	145	16_15_04_2030000
0.494766	-0.207434	0.818628	-0.015375	-0.016630	0.003765	-0.766235	-0.158203	-0.938965	146	16_15_04_2110000
0.494980	-0.207648	0.818628	-0.021337	-0.012237	0.000314	-0.766357	-0.158081	-0.938843	147	16_15_04_2190000
0.494980	-0.207862	0.818415	-0.026671	-0.014120	-0.003765	-0.766357	-0.157959	-0.938843	148	16_15_04_2270000
0.494980	-0.207862	0.818415	-0.002196	-0.003765	0.002824	-0.766479	-0.157837	-0.938721	149	16_15_04_2350000
0.495193	-0.207862	0.818415	0.005648	-0.002510	-0.004079	-0.766479	-0.157837	-0.938721	150	16_15_04_2430000
0.495193	-0.207862	0.818415	0.008786	-0.009727	-0.000628	-0.766479	-0.157959	-0.938721	151	16_15_04_2510000
0.495193	-0.207648	0.818415	0.025416	0.005020	0.008472	-0.766602	-0.158081	-0.938599	152	16_15_04_2590000
0.495193	-0.207434	0.818415	0.022906	0.007217	0.003765	-0.766479	-0.158203	-0.938599	153	16_15_04_2670000
0.494980	-0.207434	0.818628	0.015375	0.002196	0.008786	-0.766479	-0.158325	-0.938599	154	16_15_04_2750000
0.494980	-0.207434	0.818628	-0.010041	0.003765	-0.012551	-0.766479	-0.158325	-0.938599	155	16_15_04_2830000
0.494980	-0.207434	0.818628	-0.009099	0.005020	-0.012237	-0.766479	-0.158325	-0.938721	156	16_15_04_2910000
0.494980	-0.207434	0.818628	-0.031377	0.003765	-0.000628	-0.766357	-0.158203	-0.938721	157	16_15_04_2990000
0.494980	-0.207648	0.818415	-0.017885	0.016630	0.001883	-0.766357	-0.158081	-0.938843	158	16_15_04_3070000
0.494980	-0.207862	0.818415	-0.035770	-0.000314	-0.009727	-0.766235	-0.157959	-0.938965	159	16_15_04_3150000
0.494980	-0.207862	0.818415	-0.012237	0.002196	0.002196	-0.766235	-0.157715	-0.938965	160	16_15_04_3230000
0.494980	-0.208075	0.818415	-0.006903	0.001569	-0.001569	-0.766235	-0.157715	-0.938965	161	16_15_04_3310000
0.494980	-0.208075	0.818415	-0.008472	0.002196	-0.002510	-0.766235	-0.157593	-0.938965	162	16_15_04_3390000
0.494980	-0.208075	0.818415	0.009413	0.007217	0.009413	-0.766235	-0.157593	-0.938965	163	16_15_04_3470000
0.494980	-0.208075	0.818415	0.019454	0.004079	0.008158	-0.766235	-0.157715	-0.938965	164	16_15_04_3550000
0.494980	-0.207862	0.818628	0.022278	-0.000314	0.007844	-0.766235	-0.157837	-0.938965	165	16_15_04_3630000
0.494980	-0.207648	0.818628	0.025102	0.006275	-0.001883	-0.766235	-0.157959	-0.938965	166	16_15_04_3710000
0.494766	-0.207648	0.818628	0.006589	0.004079	0.000314	-0.766113	-0.158081	-0.938965	167	16_15_04_3790000
0.494766	-0.207648	0.818628	0.014434	-0.002196	-0.001883	-0.766113	-0.158203	-0.938965	168	16_15_04_3870000
0.494766	-0.207434	0.818628	-0.000941	0.005334	0.003765	-0.766113	-0.158203	-0.938965	169	16_15_04_3950000
0.494766	-0.207434	0.818628	-0.006275	0.006589	0.000314	-0.766113	-0.158203	-0.938965	170	16_15_04_4030000
0.494766	-0.207648	0.818628	0.003452	-0.005334	0.007217	-0.766113	-0.158203	-0.938965	171	16_15_04_4110000
0.494766	-0.207434	0.818628	0.023533	-0.021023	0.005648	-0.766235	-0.158203	-0.938965	172	16_15_04_4190000
0.494980	-0.207434	0.818628	0.000314	0.001255	0.013806	-0.766357	-0.158325	-0.938843	173	16_15_04_4270000
0.494766	-0.207434	0.818628	0.008786	0.008158	0.003452	-0.766235	-0.158203	-0.938843	174	16_15_04_4350000
0.494980	-0.207434	0.818628	0.005334	-0.008158	0.002196	-0.766357	-0.158325	-0.938843	175	16_15_04_4430000
0.494980	-0.207434	0.818628	-0.002196	-0.001255	0.010041	-0.766357	-0.158325	-0.938843	176	16_15_04_4510000
0.494980	-0.207434	0.818628	0.008472	0.001569	0.001569	-0.766357	-0.158325	-0.938843	177	16_15_04_4590000
0.494980	-0.207434	0.818628	0.003452	0.007844	-0.005648	-0.766357	-0.158325	-0.938843	178	16_15_04_4670000
0.494980	-0.207434	0.818628	0.009413	-0.007531	-0.003765	-0.766357	-0.158447	-0.938843	179	16_15_04_4750000
0.494980	-0.207221	0.818628	-0.002510	-0.001255	-0.008786	-0.766357	-0.158447	-0.938721	180	16_15_04_4830000
0.494980	-0.207221	0.818628	-0.006275	0.005334	-0.014747	-0.766357	-0.158569	-0.938843	181	16_15_04_4910000
0.494980	-0.207221	0.818628	0.008472	0.012865	-0.010041	-0.766235	-0.158569	-0.938843	182	16_15_04_4990000
0.494980	-0.207221	0.818628	-0.005020	0.005962	-0.007217	-0.766235	-0.158691	-0.938843	183	16_15_04_5070000
0.494766	-0.207221	0.818842	0.000000	0.012865	-0.002196	-0.766113	-0.158691	-0.938965	184	16_15_04_5150000
0.494766	-0.207007	0.818842	0.016003	0.016316	-0.016944	-0.765991	-0.158813	-0.938965	185	16_15_04_5230000
0.494766	-0.207007	0.818842	-0.002196	-0.000628	-0.012237	-0.765869	-0.158936	-0.939087	186	16_15_04_5310000
0.494766	-0.206793	0.818842	0.010668	0.007531	-0.006589	-0.765869	-0.159058	-0.939087	187	16_15_04_5390000
0.494766	-0.206793	0.818842	0.012237	0.004079	-0.016944	-0.765869	-0.159180	-0.939087	188	16_15_04_5470000
0.494766	-0.206580	0.819056	0.028240	0.003452	-0.018199	-0.765747	-0.159424	-0.939087	189	16_15_04_5550000
0.494766	-0.206366	0.819056	0.011610	0.010668	0.010355	-0.765747	-0.159668	-0.939087	190	16_15_04_5630000
0.494766	-0.206366	0.819056	0.013806	-0.001255	-0.007217	-0.765747	-0.159668	-0.939087	191	16_15_04_5710000
0.494766	-0.206153	0.819056	0.005334	0.005020	-0.005334	-0.765747	-0.159790	-0.939087	192	16_15_04_5790000
0.494766	-0.206153	0.819056	0.021964	0.000628	0.005334	-0.765747	-0.159912	-0.939087	193	16_15_04_5870000
0.494766	-0.206153	0.819056	-0.008158	-0.002824	-0.003138	-0.765747	-0.160034	-0.939087	194	16_15_04_5950000
0.494766	-0.206153	0.819056	-0.012237	-0.002196	0.004079	-0.765747	-0.159912	-0.939087	195	16_15_04_6030000
0.494766	-0.206366	0.819056	-0.011923	-0.007531	0.008472	-0.765747	-0.159790	-0.939087	196	16_15_04_6110000
0.494766	-0.206366	0.819056	-0.024474	-0.002510	0.018826	-0.765869	-0.159546	-0.938965	197	16_15_04_6190000
0.494766	-0.206580	0.818842	0.007531	-0.009099	0.008472	-0.765869	-0.159424	-0.938965	198	16_15_04_6270000
0.494766	-0.206580	0.818842	0.002196	-0.004707	-0.005962	-0.765991	-0.159424	-0.938965	199	16_15_04_6350000
0.494766	-0.206580	0.818842	-0.006275	0.010041	0.008786	-0.765991	-0.159424	-0.938965	200	16_15_04_6430000
0.494766	-0.206580	0.818842	-0.021964	0.001569	-0.002824	-0.765869	-0.159302	-0.938965	201	16_15_04_6510000
0.494766	-0.206793	0.818842	-0.010982	0.008472	-0.012551	-0.765869	-0.159302	-0.939087	202	16_15_04_6590000
0.494766	-0.206580	0.818842	0.018513	-0.010041	-0.003765	-0.765869	-0.159302	-0.939087	203	16_15_04_6670000
0.494766	-0.206580	0.818842	0.015689	-0.000314	-0.000314	-0.765869	-0.159546	-0.938965	204	16_15_04_6750000
0.494766	-0.206366	0.818842	0.005962	-0.002510	-0.007217	-0.765869	-0.159546	-0.938965	205	16_15_04_6830000
0.494980	-0.206366	0.819056	0.020709	0.003765	0.001883	-0.765869	-0.159668	-0.938965	206	16_15_04_6910000
0.494766	-0.206366	0.819056	-0.013179	0.010355	-0.007531	-0.765869	-0.159790	-0.938965	207	16_15_04_6990000
0.494766	-0.206366	0.819056	-0.008786	0.007531	-0.006275	-0.765747	-0.159668	-0.939087	208	16_15_04_7070000
0.494766	-0.206366	0.819056	-0.008472	0.003765	-0.005962	-0.765747	-0.159668	-0.939087	209	16_15_04_7150000
0.494766	-0.206366	0.819056	-0.010982	-0.006903	-0.008158	-0.765747	-0.159668	-0.939087	210	16_15_04_7230000
0.494766	-0.206366	0.819056	-0.018826	-0.001255	-0.007531	-0.765747	-0.159668	-0.939087	211	16_15_04_7310000
0.494766	-0.206580	0.818842	-0.026043	-0.002824	-0.000314	-0.765869	-0.159546	-0.939087	212	16_15_04_7390000
0.494980	-0.206793	0.818842	-0.027926	0.005020	0.000000	-0.765747	-0.159302	-0.939087	213	16_15_04_7470000
0.494766	-0.206793	0.818842	0.017885	0.000000	-0.005020	-0.765747	-0.159302	-0.939087	214	16_15_04_7550000
0.494766	-0.206580	0.818842	0.009413	0.014120	-0.004393	-0.765747	-0.159424	-0.939087	215	16_15_04_7630000
0.494766	-0.206580	0.819056	0.016003	0.004393	0.001569	-0.765625	-0.159546	-0.939209	216	16_15_04_7710000
0.494766	-0.206580	0.819056	-0.004707	-0.000628	-0.003765	-0.765625	-0.159546	-0.939209	217	16_15_04_7790000
0.494766	-0.206580	0.818842	-0.024788	-0.011610	-0.002196	-0.765747	-0.159546	-0.939209	218	16_15_04_7870000
0.494980	-0.206793	0.818842	-0.030436	-0.005334	0.005334	-0.765747	-0.159302	-0.939087	219	16_15_04_7950000
0.494980	-0.207007	0.818842	-0.005020	-0.003138	0.006903	-0.765869	-0.159180	-0.939087	220	16_15_04_8030000
0.494980	-0.207007	0.818842	0.008158	0.003765	0.002196	-0.765869	-0.159058	-0.939087	221	16_15_04_8110000
0.494980	-0.206793	0.818842	0.010982	0.003765	0.004393	-0.765869	-0.159180	-0.939087	222	16_15_04_8190000
0.494980	-0.206793	0.818842	0.000000	-0.004079	0.004707	-0.765869	-0.159180	-0.939087	223	16_15_04_8270000
0.494980	-0.206793	0.818842	0.009727	-0.006275	0.006589	-0.765869	-0.159180	-0.939087	224	16_15_04_8350000
0.494980	-0.206793	0.818842	-0.009413	-0.020709	0.015061	-0.765991	-0.159180	-0.938965	225	16_15_04_8430000
0.495193	-0.207007	0.818628	0.002196	-0.010041	-0.006903	-0.766113	-0.159058	-0.938843	226	16_15_04_8510000
0.495193	-0.206793	0.818628	0.016944	-0.004393	-0.005648	-0.766113	-0.159180	-0.938843	227	16_15_04_8590000
0.495193	-0.206793	0.818628	-0.007531	0.003765	-0.001883	-0.766113	-0.159302	-0.938843	228	16_15_04_8670000
0.495193	-0.206793	0.818628	-0.025102	0.003765	-0.004079	-0.766113	-0.159180	-0.938843	229	16_15_04_8750000
0.495193	-0.207007	0.818628	-0.013179	0.008472	-0.008786	-0.766113	-0.159058	-0.938965	230	16_15_04_8830000
0.495193	-0.207007	0.818628	-0.009413	-0.004079	-0.008158	-0.766113	-0.159058	-0.938965	231	16_15_04_8910000
0.495193	-0.207007	0.818628	0.004079	0.001255	-0.011610	-0.766113	-0.159058	-0.938965	232	16_15_04_8990000
0.495193	-0.207007	0.818628	-0.011296	0.007531	-0.010668	-0.765991	-0.159180	-0.938965	233	16_15_04_9070000
0.495193	-0.207007	0.818628	0.016316	-0.004393	0.004393	-0.765991	-0.159180	-0.938965	234	16_15_04_9150000
0.495193	-0.206793	0.818628	0.007217	0.009727	0.005648	-0.765991	-0.159180	-0.938965	235	16_15_04_9230000
0.495193	-0.206793	0.818628	0.000314	0.000314	0.003452	-0.765991	-0.159302	-0.938965	236	16_15_04_9310000
0.495193	-0.206793	0.818628	0.000000	-0.009413	0.003452	-0.765991	-0.159180	-0.938965	237	16_15_04_9390000
0.495193	-0.207007	0.818628	-0.016003	-0.012237	0.014120	-0.766113	-0.159180	-0.938843	238	16_15_04_9470000
0.495407	-0.207007	0.818628	0.003452	-0.018199	0.017885	-0.766235	-0.158936	-0.938843	239	16_15_04_9550000
0.495407	-0.207007	0.818415	-0.009413	-0.009727	0.005648	-0.766357	-0.158936	-0.938721	240	16_15_04_9630000
0.495407	-0.207221	0.818415	0.000000	-0.004393	0.004079	-0.766479	-0.158813	-0.938721	241	16_15_04_9710000
0.495407	-0.207221	0.818415	0.000000	-0.005962	-0.000628	-0.766479	-0.158813	-0.938599	242	16_15_04_9790000
0.495407	-0.207221	0.818415	-0.004707	-0.006275	0.003138	-0.766479	-0.158813	-0.938599	243	16_15_04_9870000
0.495621	-0.207221	0.818415	-0.020082	-0.012237	-0.010355	-0.766602	-0.158691	-0.938599	244	16_15_04_9950000
0.495621	-0.207434	0.818201	-0.012551	-0.004393	-0.001883	-0.766602	-0.158691	-0.938477	245	16_15_05_0030000
0.495621	-0.207434	0.818201	-0.012551	-0.000628	-0.005962	-0.766724	-0.158569	-0.938477	246	16_15_05_0110000
0.495621	-0.207434	0.818201	0.017258	0.000628	-0.004707	-0.766724	-0.158691	-0.938477	247	16_15_05_0190000
0.495621	-0.207221	0.818201	0.004393	0.002196	-0.006589	-0.766602	-0.158813	-0.938477	248	16_15_05_0270000
0.495621	-0.207221	0.818201	-0.000628	0.002510	-0.004707	-0.766602	-0.158813	-0.938477	249	16_15_05_0350000
0.495621	-0.207221	0.818201	-0.009727	0.001883	-0.009099	-0.766602	-0.158813	-0.938477	250	16_15_05_0430000
0.495834	-0.207221	0.818201	0.005020	-0.010355	-0.010982	-0.766602	-0.158936	-0.938477	251	16_15_05_0510000
0.495834	-0.207221	0.818201	-0.004707	-0.006903	0.000941	-0.766724	-0.158936	-0.938477	252	16_15_05_0590000
0.495834	-0.207221	0.818201	0.010982	0.003765	-0.000628	-0.766724	-0.158936	-0.938477	253	16_15_05_0670000
0.495834	-0.207007	0.818201	0.009727	0.001255	-0.005020	-0.766724	-0.159058	-0.938477	254	16_15_05_0750000
0.495834	-0.207007	0.818201	0.014120	0.003765	-0.008158	-0.766724	-0.159180	-0.938477	255	16_15_05_0830000
0.495834	-0.206793	0.818415	0.013492	-0.004079	-0.007844	-0.766724	-0.159302	-0.938477	256	16_15_05_0910000
0.495834	-0.206793	0.818415	0.019768	0.001883	-0.004079	-0.766724	-0.159546	-0.938354	257	16_15_05_0990000
0.495834	-0.206580	0.818415	-0.005962	-0.004707	-0.004707	-0.766724	-0.159546	-0.938354	258	16_15_05_1070000
0.495834	-0.206580	0.818415	0.006589	0.001883	-0.003138	-0.766724	-0.159546	-0.938354	259	16_15_05_1150000
0.495834	-0.206580	0.818415	0.026357	0.003452	-0.006903	-0.766724	-0.159790	-0.938354	260	16_15_05_1230000
0.495834	-0.206366	0.818415	-0.014120	0.007844	-0.012551	-0.766602	-0.159912	-0.938354	261	16_15_05_1310000
0.495834	-0.206580	0.818415	-0.027926	0.013492	-0.007844	-0.766479	-0.159790	-0.938477	262	16_15_05_1390000
0.495834	-0.206580	0.818415	-0.003765	0.010668	-0.010982	-0.766479	-0.159668	-0.938477	263	16_15_05_1470000
0.495834	-0.206580	0.818415	-0.016003	-0.001569	0.009413	-0.766357	-0.159668	-0.938599	264	16_15_05_1550000
0.495834	-0.206580	0.818415	0.007844	-0.004079	-0.002196	-0.766479	-0.159668	-0.938599	265	16_15_05_1630000
0.495834	-0.206793	0.818415	-0.023847	-0.003138	0.009727	-0.766479	-0.159546	-0.938477	266	16_15_05_1710000
0.495834	-0.206793	0.818415	-0.008472	-0.008158	0.011610	-0.766479	-0.159302	-0.938477	267	16_15_05_1790000
0.495834	-0.206793	0.818201	0.007844	-0.003138	0.002196	-0.766602	-0.159302	-0.938477	268	16_15_05_1870000
0.495834	-0.206793	0.818201	0.007217	0.000000	0.012551	-0.766602	-0.159302	-0.938477	269	16_15_05_1950000
0.495834	-0.206793	0.818201	0.001883	0.005334	0.004393	-0.766602	-0.159302	-0.938477	270	16_15_05_2030000
0.495834	-0.207007	0.818415	-0.006589	-0.001569	0.010355	-0.766602	-0.159302	-0.938477	271	16_15_05_2110000
0.495834	-0.207007	0.818201	0.001569	-0.000628	0.013492	-0.766602	-0.159180	-0.938477	272	16_15_05_2190000
0.495834	-0.207007	0.818201	-0.004393	0.005962	0.002196	-0.766602	-0.159180	-0.938477	273	16_15_05_2270000
0.495834	-0.207007	0.818415	0.000941	0.005334	0.001569	-0.766602	-0.159058	-0.938477	274	16_15_05_2350000
0.495621	-0.207007	0.818415	0.013179	0.015061	0.000628	-0.766479	-0.159180	-0.938599	275	16_15_05_2430000
0.495621	-0.206793	0.818415	0.015689	0.002824	-0.004079	-0.766479	-0.159302	-0.938599	276	16_15_05_2510000
0.495621	-0.206793	0.818415	0.005020	0.012551	-0.003765	-0.766357	-0.159424	-0.938599	277	16_15_05_2590000
0.495621	-0.206793	0.818415	0.017885	0.000628	-0.001255	-0.766357	-0.159546	-0.938599	278	16_15_05_2670000
0.495621	-0.206580	0.818628	0.008158	0.010668	-0.001883	-0.766357	-0.159546	-0.938599	279	16_15_05_2750000
0.495407	-0.206580	0.818628	-0.009413	0.009099	0.001569	-0.766235	-0.159546	-0.938721	280	16_15_05_2830000
0.495407	-0.206580	0.818628	0.018826	0.000628	0.004707	-0.766235	-0.159668	-0.938721	281	16_15_05_2910000
0.495407	-0.206580	0.818628	0.011610	-0.006903	-0.001883	-0.766235	-0.159790	-0.938721	282	16_15_05_2990000
0.495621	-0.206366	0.818628	0.029809	-0.010355	0.002510	-0.766357	-0.159912	-0.938599	283	16_15_05_3070000
0.495621	-0.206153	0.818628	0.037025	-0.002824	0.001255	-0.766357	-0.160156	-0.938477	284	16_15_05_3150000
0.495621	-0.205939	0.818628	0.031377	0.005020	-0.002824	-0.766357	-0.160400	-0.938477	285	16_15_05_3230000
0.495621	-0.205725	0.818628	-0.001255	-0.002196	0.001255	-0.766357	-0.160522	-0.938477	286	16_15_05_3310000
0.495621	-0.205725	0.818628	0.010355	0.003765	0.003452	-0.766357	-0.160522	-0.938477	287	16_15_05_3390000
0.495621	-0.205725	0.818628	0.010041	-0.012865	-0.000314	-0.766357	-0.160645	-0.938354	288	16_15_05_3470000
0.495621	-0.205725	0.818842	0.022592	0.006275	-0.003765	-0.766357	-0.160767	-0.938354	289	16_15_05_3550000
0.495621	-0.205512	0.818842	0.010982	0.016630	-0.016630	-0.766357	-0.160889	-0.938354	290	16_15_05_3630000
0.495621	-0.205512	0.818842	-0.009727	0.001569	-0.008158	-0.766235	-0.161011	-0.938477	291	16_15_05_3710000
0.495621	-0.205512	0.818842	-0.025730	0.001569	-0.003452	-0.766235	-0.160889	-0.938477	292	16_15_05_3790000
0.495621	-0.205725	0.818842	-0.014120	0.013492	-0.000314	-0.766113	-0.160767	-0.938599	293	16_15_05_3870000
0.495407	-0.205725	0.818842	-0.001569	0.005962	0.006589	-0.766113	-0.160767	-0.938599	294	16_15_05_3950000
0.495407	-0.205725	0.818842	0.000000	0.011610	0.006903	-0.766113	-0.160645	-0.938721	295	16_15_05_4030000
0.495407	-0.205725	0.818842	-0.005648	0.001569	0.014434	-0.765991	-0.160645	-0.938721	296	16_15_05_4110000
0.495407	-0.205725	0.818842	0.002196	-0.002196	0.004707	-0.765991	-0.160522	-0.938721	297	16_15_05_4190000
0.495407	-0.205725	0.818842	0.022592	-0.002824	0.002510	-0.766113	-0.160645	-0.938721	298	16_15_05_4270000
0.495407	-0.205725	0.818842	-0.009099	0.006903	-0.000941	-0.766113	-0.160645	-0.938721	299	16_15_05_4350000
0.495407	-0.205725	0.818842	-0.023847	0.009099	-0.001883	-0.765991	-0.160522	-0.938721	300	16_15_05_4430000
0.495407	-0.205939	0.818842	-0.018513	-0.010668	-0.010041	-0.765991	-0.160400	-0.938721	301	16_15_05_4510000
0.495407	-0.205939	0.818842	-0.007217	0.019140	-0.012865	-0.765991	-0.160400	-0.938843	302	16_15_05_4590000
0.495193	-0.205939	0.818842	-0.016003	0.008472	0.001569	-0.765869	-0.160400	-0.938843	303	16_15_05_4670000
0.495193	-0.205939	0.818842	-0.003765	-0.002824	-0.015375	-0.765869	-0.160278	-0.938843	304	16_15_05_4750000
0.495407	-0.205939	0.818842	-0.006589	0.001255	0.001255	-0.765869	-0.160400	-0.938843	305	16_15_05_4830000
0.495407	-0.205939	0.818842	-0.015689	-0.006589	-0.007217	-0.765869	-0.160278	-0.938843	306	16_15_05_4910000
0.495407	-0.206153	0.818842	0.005962	-0.015061	0.012237	-0.765991	-0.160278	-0.938843	307	16_15_05_4990000
0.495621	-0.206153	0.818628	-0.011296	-0.023219	0.003452	-0.766113	-0.160156	-0.938721	308	16_15_05_5070000
0.495621	-0.206153	0.818628	-0.010982	-0.015375	0.005334	-0.766235	-0.160034	-0.938599	309	16_15_05_5150000
0.495621	-0.206153	0.818628	-0.005020	-0.005334	-0.001883	-0.766357	-0.160034	-0.938599	310	16_15_05_5230000
0.495834	-0.206366	0.818628	-0.006903	-0.006589	0.003452	-0.766357	-0.159912	-0.938477	311	16_15_05_5310000
0.495834	-0.206366	0.818628	0.000314	-0.002196	-0.002510	-0.766479	-0.159912	-0.938477	312	16_15_05_5390000
0.495834	-0.206366	0.818415	0.010041	-0.015689	0.003765	-0.766479	-0.160034	-0.938477	313	16_15_05_5470000
0.495834	-0.206366	0.818415	-0.011610	-0.013179	0.006589	-0.766602	-0.159912	-0.938354	314	16_15_05_5550000
0.496048	-0.206366	0.818415	-0.002196	-0.015375	0.010668	-0.766724	-0.159912	-0.938232	315	16_15_05_5630000
0.496048	-0.206366	0.818415	0.004079	-0.009099	0.004393	-0.766846	-0.159790	-0.938232	316	16_15_05_5710000
0.496048	-0.206366	0.818201	-0.005648	-0.006275	0.008786	-0.766846	-0.159790	-0.938110	317	16_15_05_5790000
0.496048	-0.206580	0.818201	-0.013492	0.000628	-0.002196	-0.766968	-0.159668	-0.938110	318	16_15_05_5870000
0.496261	-0.206580	0.818201	-0.015689	-0.000941	-0.008158	-0.766968	-0.159668	-0.938110	319	16_15_05_5950000
0.496261	-0.206580	0.818201	-0.003765	0.002824	-0.000314	-0.766968	-0.159546	-0.938110	320	16_15_05_6030000
0.496048	-0.206580	0.818201	-0.007844	0.009099	0.010982	-0.766846	-0.159546	-0.938232	321	16_15_05_6110000
0.496048	-0.206793	0.818201	0.001255	-0.008472	0.010668	-0.766846	-0.159424	-0.938232	322	16_15_05_6190000
0.496048	-0.206793	0.818201	-0.016316	0.003765	0.008158	-0.766968	-0.159302	-0.938232	323	16_15_05_6270000
0.496048	-0.207007	0.818201	-0.019768	-0.001883	0.003765	-0.766968	-0.159180	-0.938232	324	16_15_05_6350000
0.496048	-0.207007	0.818201	-0.028553	0.004079	0.004393	-0.766968	-0.158936	-0.938232	325	16_15_05_6430000
0.496048	-0.207221	0.818201	-0.002824	-0.004707	-0.007217	-0.766968	-0.158813	-0.938232	326	16_15_05_6510000
0.496261	-0.207221	0.818201	-0.006275	-0.000628	-0.016003	-0.766968	-0.158936	-0.938232	327	16_15_05_6590000
0.496261	-0.207221	0.817988	-0.004079	-0.000941	-0.008786	-0.766968	-0.158936	-0.938232	328	16_15_05_6670000
0.496261	-0.207221	0.817988	-0.013492	0.002824	-0.007217	-0.766968	-0.158936	-0.938232	329	16_15_05_6750000
0.496261	-0.207221	0.817988	0.005648	0.006903	0.011923	-0.766846	-0.158936	-0.938232	330	16_15_05_6830000
0.496048	-0.207221	0.818201	0.008158	0.003765	-0.011296	-0.766846	-0.158936	-0.938354	331	16_15_05_6910000
0.496048	-0.207007	0.818201	0.007531	0.009099	-0.013179	-0.766846	-0.159058	-0.938354	332	16_15_05_6990000
0.496048	-0.207007	0.818201	-0.005962	0.012865	-0.009099	-0.766724	-0.159180	-0.938354	333	16_15_05_7070000
0.496048	-0.207007	0.818201	0.000000	0.015689	0.004393	-0.766602	-0.159180	-0.938477	334	16_15_05_7150000
0.495834	-0.207007	0.818201	0.007844	0.007844	0.005648	-0.766479	-0.159180	-0.938599	335	16_15_05_7230000
0.495834	-0.207007	0.818201	0.013492	-0.003452	0.000628	-0.766479	-0.159180	-0.938599	336	16_15_05_7310000
0.496048	-0.206793	0.818201	0.021964	-0.008472	0.002196	-0.766602	-0.159424	-0.938477	337	16_15_05_7390000
0.496048	-0.206793	0.818201	0.000941	0.002196	0.019140	-0.766602	-0.159424	-0.938477	338	16_15_05_7470000
0.496048	-0.206793	0.818201	0.008158	-0.005020	0.012237	-0.766602	-0.159302	-0.938477	339	16_15_05_7550000
0.496048	-0.206793	0.818201	0.026043	-0.005648	0.014120	-0.766724	-0.159424	-0.938354	340	16_15_05_7630000
0.496048	-0.206580	0.818201	0.010041	-0.004707	0.005020	-0.766724	-0.159424	-0.938354	341	16_15_05_7710000
0.496048	-0.206580	0.818415	0.000628	0.004079	0.002196	-0.766724	-0.159546	-0.938232	342	16_15_05_7790000
0.496048	-0.206580	0.818415	-0.003138	0.001255	0.005334	-0.766724	-0.159424	-0.938354	343	16_15_05_7870000
0.496048	-0.206580	0.818415	0.006903	0.004393	-0.004079	-0.766724	-0.159424	-0.938354	344	16_15_05_7950000
0.496048	-0.206580	0.818415	0.004079	-0.000941	0.004393	-0.766724	-0.159546	-0.938354	345	16_15_05_8030000
0.496048	-0.206580	0.818415	0.022592	0.001569	-0.001569	-0.766724	-0.159668	-0.938354	346	16_15_05_8110000
0.496048	-0.206366	0.818415	0.000000	-0.004079	0.000628	-0.766724	-0.159668	-0.938232	347	16_15_05_8190000
0.496048	-0.206366	0.818415	0.007531	-0.000314	-0.001569	-0.766724	-0.159790	-0.938232	348	16_15_05_8270000
0.496048	-0.206366	0.818415	0.010982	0.000000	0.010982	-0.766724	-0.159790	-0.938232	349	16_15_05_8350000
0.496048	-0.206366	0.818415	0.005334	0.002824	0.011923	-0.766724	-0.159790	-0.938232	350	16_15_05_8430000
0.496048	-0.206366	0.818415	0.016944	0.001883	0.007844	-0.766724	-0.159790	-0.938232	351	16_15_05_8510000
0.496048	-0.206366	0.818415	0.008472	-0.007531	0.005648	-0.766846	-0.159912	-0.938232	352	16_15_05_8590000
0.496048	-0.206366	0.818415	0.007217	0.009099	0.007844	-0.766846	-0.159912	-0.938110	353	16_15_05_8670000
0.495834	-0.206153	0.818415	0.030436	-0.003452	0.014434	-0.766846	-0.159912	-0.938110	354	16_15_05_8750000
0.495834	-0.205939	0.818628	0.036398	0.003452	0.010041	-0.766846	-0.160156	-0.938110	355	16_15_05_8830000
0.495834	-0.205939	0.818628	0.032319	0.007844	0.013179	-0.766724	-0.160278	-0.938110	356	16_15_05_8910000
0.495834	-0.205725	0.818628	0.019454	0.000314	0.011610	-0.766724	-0.160400	-0.938110	357	16_15_05_8990000
0.495834	-0.205725	0.818628	0.002196	0.000314	0.005962	-0.766724	-0.160400	-0.938110	358	16_15_05_9070000
0.495834	-0.205725	0.818628	0.010982	-0.006275	0.013806	-0.766846	-0.160400	-0.937988	359	16_15_05_9150000
0.495834	-0.205725	0.818628	-0.008472	0.007217	0.009413	-0.766846	-0.160400	-0.937988	360	16_15_05_9230000
0.495834	-0.205725	0.818628	-0.000941	0.005962	0.012551	-0.766846	-0.160278	-0.938110	361	16_15_05_9310000
0.495834	-0.205939	0.818628	-0.020082	-0.008158	0.008158	-0.766846	-0.160156	-0.938110	362	16_15_05_9390000
0.495834	-0.205939	0.818628	-0.004079	0.004393	0.003765	-0.766846	-0.160034	-0.938110	363	16_15_05_9470000
0.495621	-0.205939	0.818628	0.005962	0.007844	0.006275	-0.766846	-0.160034	-0.938110	364	16_15_05_9550000
0.495621	-0.205939	0.818628	0.006589	0.001569	0.006589	-0.766846	-0.160034	-0.938110	365	16_15_05_9630000
0.495621	-0.205939	0.818628	0.010668	-0.002196	0.014120	-0.766846	-0.160034	-0.938110	366	16_15_05_9710000
0.495621	-0.205939	0.818628	0.000941	0.001569	0.010982	-0.766846	-0.160034	-0.938110	367	16_15_05_9790000
0.495621	-0.205939	0.818628	0.004707	-0.001255	0.016003	-0.766846	-0.159912	-0.938110	368	16_15_05_9870000
0.495621	-0.205939	0.818842	0.023847	0.016316	0.013179	-0.766846	-0.160034	-0.938110	369	16_15_05_9950000
0.495407	-0.205939	0.818842	0.007217	0.007844	0.005962	-0.766724	-0.160034	-0.938110	370	16_15_06_0030000
0.495407	-0.205725	0.818842	0.019768	0.006589	0.007844	-0.766724	-0.160156	-0.938232	371	16_15_06_0110000
0.495407	-0.205725	0.818842	-0.000941	0.012237	0.002510	-0.766602	-0.160156	-0.938232	372	16_15_06_0190000
0.495407	-0.205725	0.818842	-0.011610	-0.004393	0.000000	-0.766602	-0.160156	-0.938232	373	16_15_06_0270000
0.495407	-0.205939	0.818842	-0.008158	-0.006589	0.007217	-0.766602	-0.160034	-0.938232	374	16_15_06_0350000
0.495407	-0.205939	0.818842	0.008472	0.000000	0.008786	-0.766724	-0.160034	-0.938232	375	16_15_06_0430000
0.495407	-0.205939	0.818842	0.014747	0.000314	0.007844	-0.766724	-0.160034	-0.938232	376	16_15_06_0510000
0.495407	-0.205725	0.818842	0.016944	-0.005020	0.009413	-0.766724	-0.160034	-0.938110	377	16_15_06_0590000
0.495407	-0.205725	0.818842	-0.003138	-0.000628	0.006903	-0.766724	-0.160156	-0.938110	378	16_15_06_0670000
0.495407	-0.205725	0.818842	0.018199	0.003765	0.004707	-0.766724	-0.160156	-0.938110	379	16_15_06_0750000
0.495407	-0.205725	0.818842	-0.012237	0.002196	0.026357	-0.766724	-0.160034	-0.938110	380	16_15_06_0830000
0.495407	-0.205939	0.818842	-0.019140	0.008786	0.018199	-0.766724	-0.159790	-0.938110	381	16_15_06_0910000
0.495193	-0.205939	0.818842	0.006589	-0.001255	0.013806	-0.766724	-0.159668	-0.938232	382	16_15_06_0990000
0.495193	-0.205939	0.818842	0.014747	-0.000314	0.017258	-0.766846	-0.159668	-0.938110	383	16_15_06_1070000
0.495193	-0.206153	0.818842	-0.008786	-0.009099	0.010355	-0.766846	-0.159668	-0.938110	384	16_15_06_1150000
0.495193	-0.206153	0.818842	-0.017258	-0.002510	0.028553	-0.766968	-0.159424	-0.938110	385	16_15_06_1230000
0.495193	-0.206366	0.818842	0.001569	0.000941	0.010668	-0.766968	-0.159180	-0.938110	386	16_15_06_1310000
0.495193	-0.206366	0.818842	-0.011296	0.000000	0.009727	-0.766968	-0.159180	-0.938110	387	16_15_06_1390000
0.495193	-0.206366	0.818842	0.013492	0.000941	0.003138	-0.766968	-0.159180	-0.938110	388	16_15_06_1470000
0.495193	-0.206366	0.818842	0.000628	0.000314	0.000628	-0.766968	-0.159180	-0.938110	389	16_15_06_1550000
0.495193	-0.206366	0.818842	-0.016630	0.005334	-0.008158	-0.766968	-0.159180	-0.938110	390	16_15_06_1630000
0.495193	-0.206580	0.818842	-0.010982	0.007844	0.003765	-0.766846	-0.159058	-0.938232	391	16_15_06_1710000
0.495193	-0.206580	0.818842	-0.028240	-0.001255	0.016316	-0.766846	-0.158813	-0.938232	392	16_15_06_1790000
0.495193	-0.206793	0.818842	0.010982	-0.015689	0.013179	-0.766968	-0.158691	-0.938232	393	16_15_06_1870000
0.495193	-0.206793	0.818628	-0.024474	-0.004079	0.002824	-0.767090	-0.158569	-0.938110	394	16_15_06_1950000
0.495193	-0.207007	0.818628	-0.022592	0.000628	-0.001569	-0.767090	-0.158447	-0.938110	395	16_15_06_2030000
0.495193	-0.207007	0.818628	-0.004079	0.006275	-0.011923	-0.767090	-0.158447	-0.938232	396	16_15_06_2110000
0.495407	-0.207007	0.818628	-0.007531	-0.006903	-0.010982	-0.767090	-0.158447	-0.938232	397	16_15_06_2190000
0.495407	-0.207007	0.818628	0.003765	-0.003138	0.000628	-0.767090	-0.158447	-0.938110	398	16_15_06_2270000
0.495407	-0.207007	0.818628	-0.003138	0.004079	-0.000628	-0.767090	-0.158447	-0.938110	399	16_15_06_2350000
0.495407	-0.207007	0.818628	-0.026985	-0.002196	-0.004079	-0.767090	-0.158325	-0.938232	400	16_15_06_2430000
0.495407	-0.207221	0.818628	-0.019140	-0.000628	0.001569	-0.767090	-0.158203	-0.938232	401	16_15_06_2510000
0.495407	-0.207434	0.818628	-0.021650	0.012865	0.002510	-0.767090	-0.158081	-0.938232	402	16_15_06_2590000
0.495407	-0.207434	0.818415	-0.025416	-0.000314	-0.000314	-0.766968	-0.157837	-0.938354	403	16_15_06_2670000
0.495193	-0.207648	0.818415	-0.006275	0.003765	0.002824	-0.766968	-0.157715	-0.938354	404	16_15_06_2750000
0.495193	-0.207648	0.818415	0.001255	0.003138	-0.017258	-0.766968	-0.157837	-0.938354	405	16_15_06_2830000
0.495407	-0.207648	0.818415	-0.015061	-0.003765	-0.002510	-0.766968	-0.157837	-0.938354	406	16_15_06_2910000
0.495407	-0.207434	0.818415	0.010982	-0.020709	-0.008472	-0.767090	-0.157837	-0.938232	407	16_15_06_2990000
0.495621	-0.207434	0.818415	0.022592	-0.010041	0.000628	-0.767212	-0.157959	-0.938232	408	16_15_06_3070000
0.495621	-0.207221	0.818415	0.023847	-0.010041	0.006589	-0.767212	-0.158081	-0.938110	409	16_15_06_3150000
0.495621	-0.207221	0.818415	0.030122	0.005020	0.013179	-0.767334	-0.158325	-0.937988	410	16_15_06_3230000
0.495621	-0.207221	0.818415	-0.006275	-0.005962	0.019454	-0.767334	-0.158325	-0.937988	411	16_15_06_3310000
0.495621	-0.207221	0.818415	0.010041	-0.000314	-0.000314	-0.767334	-0.158203	-0.937988	412	16_15_06_3390000
0.495621	-0.207007	0.818415	0.018513	0.008158	0.002510	-0.767334	-0.158325	-0.937988	413	16_15_06_3470000
0.495407	-0.207007	0.818415	-0.000314	0.007217	0.010668	-0.767334	-0.158325	-0.937988	414	16_15_06_3550000
0.495407	-0.207007	0.818628	0.012551	0.016316	0.001255	-0.767212	-0.158325	-0.938110	415	16_15_06_3630000
0.495407	-0.207007	0.818628	0.002196	0.020082	0.005334	-0.767090	-0.158447	-0.938232	416	16_15_06_3710000
0.495193	-0.207007	0.818628	-0.020082	0.017571	0.001255	-0.766968	-0.158325	-0.938232	417	16_15_06_3790000
0.494980	-0.207221	0.818628	-0.009099	0.016944	0.008472	-0.766846	-0.158203	-0.938354	418	16_15_06_3870000
0.494980	-0.207221	0.818842	0.010982	0.006275	-0.005020	-0.766724	-0.158203	-0.938477	419	16_15_06_3950000
0.494980	-0.207221	0.818842	-0.009727	0.015061	-0.004707	-0.766724	-0.158203	-0.938599	420	16_15_06_4030000
0.494980	-0.207221	0.818842	-0.000941	-0.004079	-0.003138	-0.766602	-0.158203	-0.938599	421	16_15_06_4110000
0.494980	-0.207221	0.818842	0.010982	-0.005020	0.000314	-0.766724	-0.158325	-0.938477	422	16_15_06_4190000
0.494980	-0.207007	0.818842	0.012865	-0.005962	0.001255	-0.766724	-0.158447	-0.938477	423	16_15_06_4270000
0.494980	-0.207007	0.818842	0.003765	0.009099	0.006275	-0.766724	-0.158447	-0.938477	424	16_15_06_4350000
0.494980	-0.207007	0.818842	0.019768	-0.001569	0.004393	-0.766724	-0.158447	-0.938477	425	16_15_06_4430000
0.494980	-0.206793	0.818842	0.000000	0.010041	-0.000314	-0.766724	-0.158569	-0.938477	426	16_15_06_4510000
0.494980	-0.206793	0.818842	-0.002824	0.015375	0.003138	-0.766602	-0.158569	-0.938599	427	16_15_06_4590000
0.494766	-0.207007	0.818842	-0.018199	-0.000628	0.004393	-0.766479	-0.158447	-0.938599	428	16_15_06_4670000
0.494766	-0.207007	0.818842	0.007531	0.003765	0.003138	-0.766479	-0.158447	-0.938599	429	16_15_06_4750000
0.494766	-0.207007	0.819056	0.016003	0.007844	0.001883	-0.766479	-0.158447	-0.938599	430	16_15_06_4830000
0.494766	-0.207007	0.819056	-0.006275	0.008158	0.002196	-0.766479	-0.158447	-0.938721	431	16_15_06_4910000
0.494766	-0.207007	0.819056	0.016316	0.001883	0.002824	-0.766357	-0.158569	-0.938721	432	16_15_06_4990000
0.494766	-0.206793	0.819056	0.005962	-0.001569	0.001883	-0.766479	-0.158569	-0.938721	433	16_15_06_5070000
0.494766	-0.207007	0.819056	-0.017571	-0.001883	-0.007217	-0.766479	-0.158569	-0.938721	434	16_15_06_5150000
0.494766	-0.207007	0.819056	-0.021650	-0.005648	0.000314	-0.766479	-0.158447	-0.938721	435	16_15_06_5230000
0.494766	-0.207221	0.819056	-0.016630	0.022906	0.013179	-0.766357	-0.158325	-0.938721	436	16_15_06_5310000
0.494552	-0.207221	0.819056	-0.016316	-0.004707	-0.001255	-0.766357	-0.158081	-0.938843	437	16_15_06_5390000
0.494766	-0.207434	0.818842	-0.014120	-0.002196	-0.011610	-0.766357	-0.158081	-0.938843	438	16_15_06_5470000
0.494766	-0.207434	0.818842	-0.010668	0.001569	0.002510	-0.766357	-0.157959	-0.938843	439	16_15_06_5550000
0.494766	-0.207434	0.818842	-0.023847	0.004707	-0.003765	-0.766357	-0.157837	-0.938843	440	16_15_06_5630000
0.494766	-0.207648	0.818842	0.001569	0.003765	-0.001883	-0.766357	-0.157837	-0.938843	441	16_15_06_5710000
0.494766	-0.207434	0.818842	0.016316	-0.001569	0.000000	-0.766357	-0.157959	-0.938843	442	16_15_06_5790000
0.494766	-0.207434	0.818842	-0.011296	-0.005648	-0.010355	-0.766357	-0.157959	-0.938843	443	16_15_06_5870000
0.494766	-0.207434	0.818842	-0.000314	0.007844	-0.015061	-0.766357	-0.157959	-0.938843	444	16_15_06_5950000
0.494766	-0.207434	0.818842	0.014747	-0.000314	-0.005648	-0.766235	-0.158081	-0.938843	445	16_15_06_6030000
0.494766	-0.207221	0.819056	0.013179	0.010041	0.001255	-0.766235	-0.158203	-0.938843	446	16_15_06_6110000
0.494766	-0.207221	0.819056	-0.010668	0.003138	0.001569	-0.766235	-0.158203	-0.938965	447	16_15_06_6190000
0.494766	-0.207221	0.819056	-0.015061	-0.000628	-0.006275	-0.766235	-0.158203	-0.938965	448	16_15_06_6270000
0.494766	-0.207221	0.818842	0.007531	-0.003138	0.001255	-0.766235	-0.158203	-0.938965	449	16_15_06_6350000
0.494766	-0.207434	0.818842	-0.006589	-0.000314	0.016003	-0.766235	-0.158081	-0.938965	450	16_15_06_6430000
0.494766	-0.207434	0.818842	0.001255	-0.005334	0.003138	-0.766235	-0.158081	-0.938843	451	16_15_06_6510000
0.494766	-0.207434	0.818842	0.019454	-0.004393	0.021964	-0.766357	-0.158081	-0.938843	452	16_15_06_6590000
0.494766	-0.207434	0.818842	-0.001255	0.000941	0.009727	-0.766357	-0.158081	-0.938843	453	16_15_06_6670000
0.494766	-0.207434	0.818842	-0.003138	-0.013492	0.007844	-0.766479	-0.157959	-0.938843	454	16_15_06_6750000
0.494766	-0.207434	0.818842	0.012865	-0.003138	0.007217	-0.766479	-0.157959	-0.938721	455	16_15_06_6830000
0.494766	-0.207434	0.818842	0.016944	0.008158	0.012551	-0.766479	-0.158081	-0.938721	456	16_15_06_6910000
0.494766	-0.207434	0.818842	-0.006275	0.004079	0.010355	-0.766479	-0.157959	-0.938721	457	16_15_06_6990000
0.494766	-0.207434	0.818842	-0.011296	-0.000628	0.010668	-0.766479	-0.157837	-0.938721	458	16_15_06_7070000
0.494766	-0.207648	0.818842	-0.005334	-0.004079	-0.004707	-0.766479	-0.157837	-0.938721	459	16_15_06_7150000
0.494766	-0.207648	0.818842	-0.002824	0.004079	-0.004079	-0.766479	-0.157837	-0.938721	460	16_15_06_7230000
0.494766	-0.207648	0.818842	-0.004079	-0.007217	-0.013492	-0.766479	-0.157837	-0.938721	461	16_15_06_7310000
0.494766	-0.207434	0.818842	0.005962	-0.008158	-0.013179	-0.766602	-0.157959	-0.938721	462	16_15_06_7390000
0.494980	-0.207434	0.818842	-0.014120	-0.002196	-0.009099	-0.766602	-0.157959	-0.938721	463	16_15_06_7470000
0.494980	-0.207434	0.818842	-0.009099	-0.007531	-0.013806	-0.766602	-0.157959	-0.938599	464	16_15_06_7550000
0.494980	-0.207648	0.818628	-0.017258	0.004393	-0.014747	-0.766602	-0.157959	-0.938599	465	16_15_06_7630000
0.494980	-0.207648	0.818628	-0.033260	-0.002196	-0.011296	-0.766602	-0.157837	-0.938721	466	16_15_06_7710000
0.494980	-0.207862	0.818628	-0.019768	0.007217	-0.014434	-0.766602	-0.157715	-0.938721	467	16_15_06_7790000
0.494980	-0.207862	0.818628	-0.021023	0.009099	-0.021650	-0.766479	-0.157715	-0.938843	468	16_15_06_7870000
0.494980	-0.207862	0.818628	-0.015061	-0.004079	-0.016003	-0.766479	-0.157715	-0.938843	469	16_15_06_7950000
0.494980	-0.207862	0.818628	-0.013179	0.012237	-0.017571	-0.766357	-0.157715	-0.938843	470	16_15_06_8030000
0.494980	-0.207862	0.818628	0.000941	0.021964	-0.011296	-0.766235	-0.157715	-0.938965	471	16_15_06_8110000
0.494980	-0.207862	0.818628	0.005962	0.000000	-0.016944	-0.766113	-0.157837	-0.938965	472	16_15_06_8190000
0.494980	-0.207648	0.818628	0.017258	0.000000	-0.005334	-0.766113	-0.158081	-0.938965	473	16_15_06_8270000
0.494980	-0.207648	0.818628	-0.000314	-0.004079	0.002824	-0.766235	-0.158081	-0.938965	474	16_15_06_8350000
0.494980	-0.207648	0.818628	-0.017258	-0.008786	-0.000314	-0.766235	-0.158081	-0.938965	475	16_15_06_8430000
0.494980	-0.207648	0.818628	-0.002510	0.003765	0.011923	-0.766235	-0.157959	-0.938965	476	16_15_06_8510000
0.494980	-0.207862	0.818628	-0.018513	0.009099	0.005648	-0.766235	-0.157837	-0.938965	477	16_15_06_8590000
0.494980	-0.207862	0.818628	-0.002196	-0.005334	0.002196	-0.766235	-0.157715	-0.938965	478	16_15_06_8670000
0.494980	-0.207862	0.818628	-0.005334	0.004079	-0.008786	-0.766235	-0.157715	-0.938965	479	16_15_06_8750000
0.494980	-0.207862	0.818628	-0.006903	0.007531	0.003765	-0.766235	-0.157715	-0.939087	480	16_15_06_8830000
0.494766	-0.207862	0.818628	0.019454	0.005962	0.010982	-0.766113	-0.157715	-0.939087	481	16_15_06_8910000
0.494766	-0.207862	0.818628	0.026357	0.004079	0.012551	-0.766113	-0.157837	-0.939087	482	16_15_06_8990000
0.494766	-0.207648	0.818842	0.013806	0.003765	0.011610	-0.766113	-0.157959	-0.939087	483	16_15_06_9070000
0.494766	-0.207648	0.818842	-0.006275	0.000000	0.005020	-0.766113	-0.157837	-0.939087	484	16_15_06_9150000
0.494766	-0.207862	0.818842	0.000628	0.008158	0.008158	-0.766113	-0.157837	-0.939087	485	16_15_06_9230000
0.494766	-0.207862	0.818842	0.009099	0.011296	0.004393	-0.766113	-0.157837	-0.939087	486	16_15_06_9310000
0.494552	-0.207862	0.818842	-0.001569	0.010668	0.004393	-0.765991	-0.157837	-0.939209	487	16_15_06_9390000
0.494552	-0.207648	0.818842	0.009727	0.012237	-0.001883	-0.765869	-0.157837	-0.939209	488	16_15_06_9470000
0.494552	-0.207862	0.818842	-0.023847	0.002196	-0.004707	-0.765869	-0.157837	-0.939331	489	16_15_06_9550000
0.494552	-0.207862	0.818842	0.002510	0.010668	0.000000	-0.765869	-0.157837	-0.939331	490	16_15_06_9630000
0.494339	-0.207862	0.818842	-0.000941	0.000314	0.000000	-0.765747	-0.157837	-0.939331	491	16_15_06_9710000
0.494339	-0.207862	0.818842	-0.005648	0.002196	0.000314	-0.765747	-0.157837	-0.939331	492	16_15_06_9790000
0.494339	-0.207862	0.818842	-0.019454	-0.001255	0.010668	-0.765747	-0.157715	-0.939453	493	16_15_06_9870000
0.494552	-0.208075	0.818842	-0.030436	-0.009099	0.000000	-0.765869	-0.157471	-0.939453	494	16_15_06_9950000
0.494552	-0.208289	0.818842	-0.010668	0.004707	-0.004707	-0.765869	-0.157349	-0.939453	495	16_15_07_0030000
0.494552	-0.208289	0.818842	-0.021650	0.015061	-0.009099	-0.765747	-0.157227	-0.939453	496	16_15_07_0110000
0.494339	-0.208289	0.818842	-0.009413	-0.001883	-0.005962	-0.765747	-0.157227	-0.939575	497	16_15_07_0190000
0.494552	-0.208502	0.818842	-0.019768	-0.007844	-0.003452	-0.765747	-0.157104	-0.939453	498	16_15_07_0270000
0.494552	-0.208502	0.818842	-0.001883	-0.001255	0.000941	-0.765747	-0.157104	-0.939453	499	16_15_07_0350000
0.494552	-0.208502	0.818842	0.010041	0.003765	-0.003452	-0.765747	-0.157104	-0.939453	500	16_15_07_0430000
0.494552	-0.208502	0.818842	0.000314	0.000314	-0.003765	-0.765747	-0.157104	-0.939453	501	16_15_07_0510000
0.494552	-0.208289	0.818842	0.007844	0.014747	0.002824	-0.765747	-0.157227	-0.939575	502	16_15_07_0590000
0.494339	-0.208289	0.818842	0.013492	0.004079	0.006275	-0.765625	-0.157227	-0.939575	503	16_15_07_0670000
0.494339	-0.208075	0.818842	0.036398	0.006589	0.002824	-0.765625	-0.157471	-0.939575	504	16_15_07_0750000
0.494339	-0.208075	0.818842	-0.011296	-0.008786	0.007844	-0.765625	-0.157471	-0.939575	505	16_15_07_0830000
0.494339	-0.208075	0.818842	0.017571	0.004393	0.001883	-0.765625	-0.157471	-0.939453	506	16_15_07_0910000
0.494339	-0.208075	0.819056	0.032005	0.001569	0.008786	-0.765625	-0.157593	-0.939453	507	16_15_07_0990000
0.494339	-0.207862	0.819056	0.016944	-0.001883	0.012237	-0.765747	-0.157715	-0.939453	508	16_15_07_1070000
0.494339	-0.207862	0.819056	-0.001883	0.010668	-0.002196	-0.765625	-0.157837	-0.939453	509	16_15_07_1150000
0.494339	-0.207862	0.819056	0.004079	0.001255	0.010355	-0.765625	-0.157837	-0.939453	510	16_15_07_1230000
0.494339	-0.207862	0.819056	-0.013179	-0.000941	0.009727	-0.765625	-0.157715	-0.939453	511	16_15_07_1310000
0.494339	-0.208075	0.819056	-0.015061	-0.000628	0.012237	-0.765625	-0.157593	-0.939453	512	16_15_07_1390000
0.494339	-0.208075	0.819056	0.002196	0.007844	-0.006275	-0.765625	-0.157471	-0.939575	513	16_15_07_1470000
0.494125	-0.208075	0.819056	-0.004079	0.011296	0.002196	-0.765625	-0.157471	-0.939575	514	16_15_07_1550000
0.494125	-0.208075	0.819056	0.012237	0.012551	0.003765	-0.765503	-0.157471	-0.939697	515	16_15_07_1630000
0.494125	-0.208075	0.819056	-0.008158	0.008786	-0.007531	-0.765381	-0.157593	-0.939697	516	16_15_07_1710000
0.494125	-0.208075	0.819056	-0.016003	0.000000	-0.001255	-0.765381	-0.157471	-0.939697	517	16_15_07_1790000
0.494125	-0.208075	0.819056	-0.008158	-0.014120	-0.008158	-0.765503	-0.157471	-0.939697	518	16_15_07_1870000
0.494125	-0.208289	0.819056	-0.026043	-0.002196	-0.002510	-0.765503	-0.157349	-0.939697	519	16_15_07_1950000
0.494125	-0.208502	0.819056	-0.039849	0.000628	-0.002510	-0.765503	-0.157104	-0.939697	520	16_15_07_2030000
0.494125	-0.208716	0.818842	-0.029181	0.004393	-0.003138	-0.765503	-0.156860	-0.939819	521	16_15_07_2110000
0.494125	-0.208716	0.818842	-0.024474	-0.001255	-0.007531	-0.765503	-0.156738	-0.939819	522	16_15_07_2190000
0.494125	-0.208930	0.818842	-0.030750	0.006589	-0.006903	-0.765503	-0.156616	-0.939819	523	16_15_07_2270000
0.494125	-0.208930	0.818842	-0.013806	0.000941	0.004079	-0.765503	-0.156494	-0.939941	524	16_15_07_2350000
0.494125	-0.209143	0.818842	0.012237	0.000941	0.012551	-0.765503	-0.156372	-0.939941	525	16_15_07_2430000
0.494125	-0.208930	0.818842	0.029181	0.009727	0.014434	-0.765381	-0.156494	-0.939941	526	16_15_07_2510000
0.494125	-0.208930	0.818842	0.005962	0.009727	0.014747	-0.765381	-0.156494	-0.939941	527	16_15_07_2590000
0.493912	-0.208930	0.819056	0.000941	0.005020	-0.000941	-0.765381	-0.156494	-0.939941	528	16_15_07_2670000
0.493912	-0.208930	0.819056	0.012237	0.008158	0.001883	-0.765259	-0.156616	-0.939941	529	16_15_07_2750000
0.493912	-0.208930	0.819056	-0.021337	0.006275	-0.010982	-0.765259	-0.156616	-0.940063	530	16_15_07_2830000
0.493912	-0.208930	0.819056	-0.010668	-0.007531	-0.006589	-0.765259	-0.156494	-0.940063	531	16_15_07_2910000
0.493912	-0.208930	0.819056	0.012865	-0.001883	0.003765	-0.765259	-0.156494	-0.940063	532	16_15_07_2990000
0.494125	-0.208930	0.818842	0.002196	-0.008472	-0.009099	-0.765381	-0.156616	-0.939941	533	16_15_07_3070000
0.494125	-0.208930	0.818842	-0.006275	0.003765	-0.006275	-0.765381	-0.156616	-0.939941	534	16_15_07_3150000
0.494125	-0.208716	0.818842	0.018513	0.001569	-0.002824	-0.765381	-0.156738	-0.939941	535	16_15_07_3230000
0.494125	-0.208716	0.819056	0.012237	-0.001883	0.002824	-0.765381	-0.156860	-0.939941	536	16_15_07_3310000
0.494125	-0.208716	0.819056	0.009413	0.008158	0.003452	-0.765381	-0.156860	-0.939941	537	16_15_07_3390000
0.494125	-0.208716	0.819056	-0.005648	-0.000314	-0.003138	-0.765259	-0.156860	-0.939941	538	16_15_07_3470000
0.494125	-0.208502	0.819056	0.004079	-0.004079	-0.005020	-0.765259	-0.156982	-0.939941	539	16_15_07_3550000
0.494125	-0.208502	0.819056	0.010355	-0.008786	-0.007531	-0.765381	-0.156982	-0.939819	540	16_15_07_3630000
0.494125	-0.208502	0.818842	-0.023847	-0.005334	-0.001255	-0.765381	-0.156982	-0.939819	541	16_15_07_3710000
0.494339	-0.208716	0.818842	-0.032319	-0.012551	-0.006903	-0.765503	-0.156860	-0.939819	542	16_15_07_3790000
0.494339	-0.208930	0.818842	-0.021964	0.006903	0.003452	-0.765503	-0.156616	-0.939819	543	16_15_07_3870000
0.494339	-0.208930	0.818842	0.000000	0.006903	-0.002824	-0.765503	-0.156616	-0.939819	544	16_15_07_3950000
0.494339	-0.208930	0.818842	-0.009099	0.003765	-0.018513	-0.765381	-0.156616	-0.939941	545	16_15_07_4030000
0.494339	-0.208930	0.818842	0.014120	-0.000628	-0.015061	-0.765381	-0.156738	-0.939941	546	16_15_07_4110000
0.494339	-0.208716	0.818842	-0.003452	-0.016630	-0.012865	-0.765381	-0.156860	-0.939819	547	16_15_07_4190000
0.494552	-0.208716	0.818842	-0.014120	-0.003138	-0.015061	-0.765503	-0.156860	-0.939819	548	16_15_07_4270000
0.494552	-0.208716	0.818628	-0.011923	0.008472	-0.014747	-0.765503	-0.156860	-0.939819	549	16_15_07_4350000
0.494552	-0.208716	0.818628	0.010668	0.002196	0.000314	-0.765381	-0.156982	-0.939819	550	16_15_07_4430000
0.494339	-0.208502	0.818842	0.020395	0.005020	-0.006589	-0.765381	-0.157104	-0.939819	551	16_15_07_4510000
0.494552	-0.208502	0.818842	-0.015375	-0.004079	-0.002510	-0.765381	-0.157104	-0.939819	552	16_15_07_4590000
0.494552	-0.208502	0.818628	0.010982	-0.017571	0.004079	-0.765503	-0.157104	-0.939819	553	16_15_07_4670000
0.494552	-0.208502	0.818628	-0.000628	-0.013179	0.007844	-0.765625	-0.157104	-0.939697	554	16_15_07_4750000
0.494552	-0.208502	0.818628	0.001255	0.007217	-0.002510	-0.765625	-0.157104	-0.939697	555	16_15_07_4830000
0.494552	-0.208502	0.818628	0.005648	0.005334	0.005020	-0.765625	-0.157227	-0.939697	556	16_15_07_4910000
0.494552	-0.208502	0.818628	-0.019768	-0.000314	0.002824	-0.765625	-0.157104	-0.939697	557	16_15_07_4990000
0.494552	-0.208716	0.818628	-0.009727	0.004707	-0.004393	-0.765503	-0.156982	-0.939697	558	16_15_07_5070000
0.494552	-0.208716	0.818628	-0.004079	0.002510	0.003765	-0.765503	-0.156982	-0.939697	559	16_15_07_5150000
0.494552	-0.208716	0.818628	0.015375	0.006275	0.001883	-0.765503	-0.156982	-0.939819	560	16_15_07_5230000
0.494552	-0.208716	0.818628	0.000314	-0.017571	0.007844	-0.765625	-0.156982	-0.939697	561	16_15_07_5310000
0.494766	-0.208716	0.818628	0.009413	-0.011296	-0.001255	-0.765625	-0.157104	-0.939575	562	16_15_07_5390000
0.494766	-0.208502	0.818628	0.000314	-0.012551	-0.003138	-0.765747	-0.157104	-0.939575	563	16_15_07_5470000
0.494766	-0.208502	0.818628	0.013806	0.000941	-0.002196	-0.765869	-0.157227	-0.939453	564	16_15_07_5550000
0.494766	-0.208502	0.818628	-0.016003	0.004707	0.011610	-0.765869	-0.157104	-0.939453	565	16_15_07_5630000
0.494766	-0.208716	0.818628	-0.020082	0.005020	0.010355	-0.765747	-0.156982	-0.939575	566	16_15_07_5710000
0.494766	-0.208716	0.818628	0.006275	0.002510	0.010041	-0.765747	-0.156860	-0.939575	567	16_15_07_5790000
0.494552	-0.208716	0.818628	0.016003	0.008786	0.009413	-0.765747	-0.156860	-0.939575	568	16_15_07_5870000
0.494552	-0.208716	0.818628	-0.005334	0.001569	0.007531	-0.765747	-0.156860	-0.939575	569	16_15_07_5950000
0.494552	-0.208716	0.818628	0.000314	0.003765	0.000000	-0.765747	-0.156860	-0.939575	570	16_15_07_6030000
0.494552	-0.208930	0.818628	-0.020709	-0.002196	0.011296	-0.765747	-0.156738	-0.939575	571	16_15_07_6110000
0.494552	-0.208930	0.818628	-0.025730	-0.009727	0.016630	-0.765747	-0.156494	-0.939575	572	16_15_07_6190000
0.494552	-0.209143	0.818415	0.010982	0.000314	0.006275	-0.765869	-0.156372	-0.939575	573	16_15_07_6270000
0.494552	-0.209143	0.818628	-0.003452	0.008158	-0.001255	-0.765869	-0.156372	-0.939575	574	16_15_07_6350000
0.494552	-0.208930	0.818628	0.033574	-0.005962	0.006275	-0.765869	-0.156494	-0.939575	575	16_15_07_6430000
0.494552	-0.208930	0.818628	0.029181	-0.004393	0.005962	-0.765869	-0.156738	-0.939575	576	16_15_07_6510000
0.494552	-0.208716	0.818628	-0.006589	-0.000628	0.018826	-0.765869	-0.156738	-0.939453	577	16_15_07_6590000
0.494552	-0.208930	0.818628	-0.012551	-0.006275	0.004079	-0.765991	-0.156616	-0.939453	578	16_15_07_6670000
0.494766	-0.208930	0.818415	-0.020082	-0.000941	0.013492	-0.765991	-0.156372	-0.939453	579	16_15_07_6750000
0.494552	-0.209143	0.818415	-0.005648	-0.001255	0.016630	-0.765991	-0.156250	-0.939453	580	16_15_07_6830000
0.494552	-0.209143	0.818415	0.003452	0.002510	0.001569	-0.765991	-0.156128	-0.939453	581	16_15_07_6910000
0.494552	-0.209143	0.818415	0.007531	-0.004079	0.003138	-0.765991	-0.156250	-0.939453	582	16_15_07_6990000
0.494552	-0.209143	0.818415	-0.013179	0.008472	0.006275	-0.765991	-0.156128	-0.939453	583	16_15_07_7070000
0.494552	-0.209143	0.818415	0.010982	0.003765	-0.010982	-0.765991	-0.156250	-0.939453	584	16_15_07_7150000
0.494552	-0.209143	0.818415	0.012551	-0.001883	0.001255	-0.765991	-0.156372	-0.939453	585	16_15_07_7230000
0.494552	-0.209143	0.818628	0.013179	0.000941	0.009099	-0.765991	-0.156372	-0.939453	586	16_15_07_7310000
0.494552	-0.208930	0.818628	0.015689	0.004707	0.003765	-0.765991	-0.156494	-0.939453	587	16_15_07_7390000
0.494552	-0.208930	0.818628	-0.012865	0.002510	0.004707	-0.765991	-0.156494	-0.939453	588	16_15_07_7470000
0.494552	-0.209143	0.818628	-0.003765	0.004707	0.000000	-0.765991	-0.156372	-0.939453	589	16_15_07_7550000
0.494552	-0.208930	0.818628	0.016630	0.005648	-0.000941	-0.765869	-0.156494	-0.939575	590	16_15_07_7630000
0.494552	-0.208930	0.818628	-0.002196	0.005962	0.002824	-0.765869	-0.156494	-0.939575	591	16_15_07_7710000
0.494552	-0.208930	0.818628	0.001255	0.002824	-0.002824	-0.765869	-0.156494	-0.939575	592	16_15_07_7790000
0.494552	-0.208930	0.818628	-0.004707	0.003765	0.000000	-0.765869	-0.156494	-0.939575	593	16_15_07_7870000
0.494339	-0.208930	0.818628	-0.018199	0.006903	-0.009727	-0.765747	-0.156494	-0.939575	594	16_15_07_7950000
0.494552	-0.208930	0.818628	-0.000314	-0.003452	-0.003138	-0.765747	-0.156372	-0.939697	595	16_15_07_8030000
0.494552	-0.208930	0.818628	0.001255	-0.006903	-0.005020	-0.765869	-0.156494	-0.939575	596	16_15_07_8110000
0.494552	-0.208930	0.818628	0.007531	-0.002824	0.002824	-0.765869	-0.156494	-0.939575	597	16_15_07_8190000
0.494552	-0.208930	0.818628	-0.004707	0.001569	0.013806	-0.765869	-0.156494	-0.939575	598	16_15_07_8270000
0.494552	-0.209143	0.818628	-0.025102	0.005962	0.012865	-0.765869	-0.156250	-0.939575	599	16_15_07_8350000
0.494339	-0.209357	0.818628	-0.018826	0.004393	0.012237	-0.765869	-0.156006	-0.939697	600	16_15_07_8430000
0.494339	-0.209357	0.818628	-0.011610	0.004079	0.007217	-0.765869	-0.155884	-0.939697	601	16_15_07_8510000
0.494339	-0.209571	0.818628	-0.019768	0.001569	0.007217	-0.765869	-0.155762	-0.939697	602	16_15_07_8590000
0.494339	-0.209571	0.818628	0.016944	0.005020	0.006275	-0.765869	-0.155762	-0.939697	603	16_15_07_8670000
0.494339	-0.209571	0.818628	0.001569	0.003765	0.003452	-0.765747	-0.155762	-0.939697	604	16_15_07_8750000
0.494339	-0.209571	0.818628	-0.010355	0.006589	0.004707	-0.765747	-0.155762	-0.939819	605	16_15_07_8830000
0.494339	-0.209571	0.818628	-0.010355	0.005020	-0.003765	-0.765747	-0.155640	-0.939819	606	16_15_07_8910000
0.494125	-0.209571	0.818628	0.011296	0.007217	-0.001569	-0.765747	-0.155640	-0.939819	607	16_15_07_8990000
0.494125	-0.209571	0.818628	0.007531	0.018826	0.009727	-0.765625	-0.155762	-0.939941	608	16_15_07_9070000
0.494125	-0.209571	0.818628	-0.016944	0.008158	0.000941	-0.765503	-0.155640	-0.939941	609	16_15_07_9150000
0.493912	-0.209784	0.818628	-0.015689	0.009727	-0.005334	-0.765503	-0.155518	-0.940063	610	16_15_07_9230000
0.493912	-0.209784	0.818628	-0.029809	-0.000628	-0.012237	-0.765381	-0.155518	-0.940063	611	16_15_07_9310000
0.493912	-0.209998	0.818628	-0.018199	0.002824	0.005648	-0.765381	-0.155273	-0.940186	612	16_15_07_9390000
0.493912	-0.209998	0.818628	-0.000628	0.008472	0.008158	-0.765381	-0.155151	-0.940186	613	16_15_07_9470000
0.493912	-0.209998	0.818628	0.022906	0.008472	-0.000941	-0.765381	-0.155273	-0.940186	614	16_15_07_9550000
0.493912	-0.209784	0.818842	0.029495	0.001569	0.001255	-0.765259	-0.155518	-0.940186	615	16_15_07_9630000
0.493912	-0.209784	0.818842	-0.008786	-0.002196	0.011296	-0.765259	-0.155518	-0.940186	616	16_15_07_9710000
0.493912	-0.209784	0.818842	0.002196	-0.010355	0.011296	-0.765381	-0.155396	-0.940186	617	16_15_07_9790000
0.493912	-0.209784	0.818842	-0.008158	-0.004707	0.001255	-0.765503	-0.155396	-0.940063	618	16_15_07_9870000
0.494125	-0.209998	0.818628	-0.018826	-0.009099	-0.005648	-0.765503	-0.155273	-0.940063	619	16_15_07_9950000
0.494125	-0.210212	0.818628	-0.038594	-0.014120	-0.007531	-0.765625	-0.155151	-0.940063	620	16_15_08_0030000
0.494125	-0.210212	0.818415	-0.024788	-0.002510	-0.006275	-0.765625	-0.154907	-0.940063	621	16_15_08_0110000
0.494125	-0.210425	0.818415	-0.032319	-0.001569	-0.000314	-0.765625	-0.154785	-0.940063	622	16_15_08_0190000
0.494125	-0.210639	0.818415	-0.011610	-0.002196	-0.003765	-0.765625	-0.154663	-0.940063	623	16_15_08_0270000
0.494339	-0.210639	0.818415	-0.008472	-0.001569	-0.007217	-0.765625	-0.154663	-0.940063	624	16_15_08_0350000
0.494339	-0.210639	0.818415	-0.005648	-0.001255	-0.016630	-0.765625	-0.154663	-0.940063	625	16_15_08_0430000
0.494339	-0.210639	0.818415	-0.030122	-0.001883	-0.006589	-0.765625	-0.154541	-0.940063	626	16_15_08_0510000
0.494339	-0.210639	0.818201	0.005648	0.005020	-0.002510	-0.765625	-0.154541	-0.940063	627	16_15_08_0590000
0.494339	-0.210639	0.818415	-0.000628	-0.000628	-0.014747	-0.765625	-0.154663	-0.940063	628	16_15_08_0670000
0.494339	-0.210639	0.818201	-0.008158	-0.014120	-0.007531	-0.765747	-0.154663	-0.940063	629	16_15_08_0750000
0.494552	-0.210639	0.818201	-0.003138	-0.004707	-0.006903	-0.765747	-0.154663	-0.939941	630	16_15_08_0830000
0.494552	-0.210639	0.818201	-0.016003	-0.000314	-0.007531	-0.765747	-0.154663	-0.939941	631	16_15_08_0910000
0.494552	-0.210852	0.818201	-0.015061	0.004707	-0.008786	-0.765747	-0.154541	-0.940063	632	16_15_08_0990000
0.494552	-0.210852	0.818201	-0.026357	-0.009099	-0.016316	-0.765747	-0.154541	-0.940063	633	16_15_08_1070000
0.494552	-0.210852	0.817988	-0.019454	-0.010355	-0.019140	-0.765869	-0.154419	-0.939941	634	16_15_08_1150000
0.494766	-0.210852	0.817988	-0.011923	-0.014747	-0.014120	-0.765869	-0.154419	-0.939941	635	16_15_08_1230000
0.494980	-0.210852	0.817988	0.015375	-0.019768	-0.012865	-0.765991	-0.154541	-0.939819	636	16_15_08_1310000
0.494980	-0.210852	0.817774	-0.007531	-0.009413	-0.006589	-0.766113	-0.154663	-0.939697	637	16_15_08_1390000
0.494980	-0.210852	0.817774	-0.007531	-0.002824	-0.002824	-0.766113	-0.154663	-0.939697	638	16_15_08_1470000
0.494980	-0.210852	0.817774	-0.031377	0.003765	-0.008472	-0.766113	-0.154541	-0.939697	639	16_15_08_1550000
0.494980	-0.211066	0.817774	-0.006275	0.008786	0.000314	-0.766113	-0.154419	-0.939819	640	16_15_08_1630000
0.494980	-0.211066	0.817774	-0.019768	0.014747	0.000941	-0.765991	-0.154419	-0.939819	641	16_15_08_1710000
0.494980	-0.211066	0.817774	0.005648	-0.002510	-0.011923	-0.765991	-0.154297	-0.939941	642	16_15_08_1790000
0.494980	-0.211066	0.817774	0.007217	-0.013492	-0.004393	-0.765991	-0.154419	-0.939819	643	16_15_08_1870000
0.495193	-0.211066	0.817774	0.001883	-0.003138	-0.002824	-0.766113	-0.154541	-0.939819	644	16_15_08_1950000
0.495193	-0.211066	0.817774	-0.008158	-0.001883	0.005962	-0.766113	-0.154541	-0.939697	645	16_15_08_2030000
0.495193	-0.211066	0.817774	0.016003	-0.001255	-0.011923	-0.766113	-0.154541	-0.939697	646	16_15_08_2110000
0.495193	-0.210852	0.817774	0.001569	-0.003765	-0.019454	-0.766113	-0.154663	-0.939697	647	16_15_08_2190000
0.495193	-0.210852	0.817774	-0.004707	-0.001569	-0.010041	-0.766113	-0.154785	-0.939697	648	16_15_08_2270000
0.495193	-0.210852	0.817774	-0.006275	0.004393	-0.016944	-0.766113	-0.154907	-0.939697	649	16_15_08_2350000
0.495407	-0.210639	0.817774	0.010668	-0.006275	-0.007217	-0.766113	-0.154907	-0.939697	650	16_15_08_2430000
0.495407	-0.210639	0.817774	0.009099	-0.017885	-0.007217	-0.766235	-0.155029	-0.939575	651	16_15_08_2510000
0.495621	-0.210639	0.817560	-0.015375	-0.013179	-0.021023	-0.766235	-0.155151	-0.939453	652	16_15_08_2590000
0.495621	-0.210639	0.817560	0.008158	-0.000628	-0.014120	-0.766357	-0.155273	-0.939453	653	16_15_08_2670000
0.495621	-0.210425	0.817560	-0.007844	-0.002196	-0.006589	-0.766357	-0.155273	-0.939453	654	16_15_08_2750000
0.495621	-0.210425	0.817560	-0.005020	-0.004079	-0.009727	-0.766357	-0.155273	-0.939453	655	16_15_08_2830000
0.495834	-0.210425	0.817560	0.014747	-0.004079	0.005648	-0.766357	-0.155396	-0.939453	656	16_15_08_2910000
0.495621	-0.210425	0.817560	0.005020	0.011296	0.006903	-0.766357	-0.155396	-0.939453	657	16_15_08_2990000
0.495621	-0.210425	0.817560	-0.006275	-0.001255	-0.015689	-0.766357	-0.155396	-0.939453	658	16_15_08_3070000
0.495621	-0.210425	0.817560	-0.005020	-0.000314	0.011296	-0.766357	-0.155396	-0.939453	659	16_15_08_3150000
0.495621	-0.210425	0.817560	-0.004393	-0.001883	0.009727	-0.766357	-0.155396	-0.939453	660	16_15_08_3230000
0.495621	-0.210425	0.817560	-0.009413	0.004393	-0.004393	-0.766357	-0.155273	-0.939453	661	16_15_08_3310000
0.495621	-0.210639	0.817560	-0.001569	0.003765	0.008158	-0.766357	-0.155273	-0.939453	662	16_15_08_3390000
0.495621	-0.210639	0.817560	-0.011296	0.010041	-0.009413	-0.766235	-0.155273	-0.939453	663	16_15_08_3470000
0.495621	-0.210639	0.817560	0.018199	-0.003452	-0.008472	-0.766235	-0.155273	-0.939453	664	16_15_08_3550000
0.495621	-0.210425	0.817560	0.024788	0.001569	0.001255	-0.766235	-0.155518	-0.939453	665	16_15_08_3630000
0.495621	-0.210212	0.817560	0.002196	-0.001255	0.000000	-0.766235	-0.155640	-0.939453	666	16_15_08_3710000
0.495621	-0.210212	0.817560	-0.005648	-0.004393	0.002510	-0.766235	-0.155640	-0.939453	667	16_15_08_3790000
0.495621	-0.210425	0.817560	0.001883	0.000314	0.003452	-0.766357	-0.155518	-0.939453	668	16_15_08_3870000
0.495621	-0.210212	0.817560	0.009099	0.009413	-0.001883	-0.766235	-0.155640	-0.939453	669	16_15_08_3950000
0.495621	-0.210212	0.817774	0.017885	0.001883	0.000314	-0.766235	-0.155762	-0.939453	670	16_15_08_4030000
0.495621	-0.209998	0.817774	0.013179	-0.008786	0.008786	-0.766235	-0.155762	-0.939453	671	16_15_08_4110000
0.495621	-0.209998	0.817774	0.017885	-0.001569	0.005962	-0.766357	-0.155884	-0.939331	672	16_15_08_4190000
0.495621	-0.209784	0.817774	0.023533	-0.010041	0.004393	-0.766357	-0.156006	-0.939331	673	16_15_08_4270000
0.495621	-0.209784	0.817774	0.030750	0.010668	0.003765	-0.766357	-0.156250	-0.939209	674	16_15_08_4350000
0.495621	-0.209571	0.817774	0.013179	0.007217	-0.002196	-0.766357	-0.156372	-0.939331	675	16_15_08_4430000
0.495621	-0.209357	0.817774	0.030122	0.004393	-0.001569	-0.766235	-0.156494	-0.939331	676	16_15_08_4510000
0.495621	-0.209357	0.817988	-0.012551	0.000941	-0.002510	-0.766235	-0.156616	-0.939331	677	16_15_08_4590000
0.495621	-0.209357	0.817988	0.008786	-0.003452	-0.000314	-0.766235	-0.156616	-0.939331	678	16_15_08_4670000
0.495621	-0.209357	0.817988	0.016944	0.009099	0.003138	-0.766235	-0.156738	-0.939331	679	16_15_08_4750000
0.495621	-0.209143	0.817988	0.031377	0.004079	0.000314	-0.766235	-0.156860	-0.939331	680	16_15_08_4830000
0.495621	-0.208930	0.817988	0.012237	0.005648	-0.011296	-0.766235	-0.157104	-0.939331	681	16_15_08_4910000
0.495621	-0.208930	0.817988	0.005020	0.001883	-0.007844	-0.766113	-0.157227	-0.939331	682	16_15_08_4990000
0.495621	-0.208930	0.817988	-0.002510	0.004079	0.005020	-0.766113	-0.157227	-0.939331	683	16_15_08_5070000
0.495621	-0.208930	0.817988	0.000000	-0.004707	-0.002196	-0.766113	-0.157227	-0.939331	684	16_15_08_5150000
0.495621	-0.208716	0.817988	0.002196	0.002196	-0.002196	-0.766113	-0.157227	-0.939209	685	16_15_08_5230000
0.495621	-0.208716	0.817988	-0.004707	-0.007844	0.004079	-0.766113	-0.157227	-0.939209	686	16_15_08_5310000
0.495621	-0.208930	0.817988	-0.007844	-0.008786	0.005020	-0.766235	-0.157227	-0.939209	687	16_15_08_5390000
0.495621	-0.208930	0.817988	-0.020395	-0.004707	0.010041	-0.766357	-0.157104	-0.939209	688	16_15_08_5470000
0.495834	-0.209143	0.817988	-0.010041	-0.000314	0.000000	-0.766357	-0.156982	-0.939209	689	16_15_08_5550000
0.495834	-0.209143	0.817774	-0.019768	-0.000941	0.019140	-0.766357	-0.156738	-0.939209	690	16_15_08_5630000
0.495621	-0.209357	0.817774	-0.002196	0.009413	0.007531	-0.766357	-0.156616	-0.939209	691	16_15_08_5710000
0.495621	-0.209357	0.817988	0.005648	0.004707	0.013806	-0.766357	-0.156616	-0.939209	692	16_15_08_5790000
0.495621	-0.209357	0.817988	0.003765	0.002196	-0.006275	-0.766235	-0.156616	-0.939209	693	16_15_08_5870000
0.495621	-0.209357	0.817988	-0.008472	0.006275	0.010668	-0.766235	-0.156616	-0.939331	694	16_15_08_5950000
0.495621	-0.209357	0.817988	-0.005020	0.005020	0.011296	-0.766235	-0.156494	-0.939331	695	16_15_08_6030000
0.495407	-0.209357	0.817988	-0.009413	0.004707	0.009413	-0.766235	-0.156372	-0.939331	696	16_15_08_6110000
0.495407	-0.209571	0.817988	-0.015061	-0.006275	0.010355	-0.766235	-0.156250	-0.939331	697	16_15_08_6190000
0.495621	-0.209571	0.817774	0.004393	-0.003765	0.011296	-0.766235	-0.156128	-0.939331	698	16_15_08_6270000
0.495621	-0.209784	0.817774	-0.018199	0.000941	0.003138	-0.766357	-0.156006	-0.939331	699	16_15_08_6350000
0.495621	-0.209784	0.817774	-0.011610	-0.007531	0.000628	-0.766357	-0.155884	-0.939331	700	16_15_08_6430000
0.495621	-0.209998	0.817774	-0.014434	-0.004707	0.018513	-0.766357	-0.155762	-0.939331	701	16_15_08_6510000
0.495621	-0.209998	0.817774	-0.026357	-0.000314	0.018826	-0.766479	-0.155518	-0.939331	702	16_15_08_6590000
0.495621	-0.210212	0.817774	-0.002510	0.004393	0.025102	-0.766479	-0.155273	-0.939331	703	16_15_08_6670000
0.495407	-0.210425	0.817774	-0.013492	0.002510	0.013492	-0.766479	-0.155151	-0.939331	704	16_15_08_6750000
0.495407	-0.210425	0.817774	0.006903	-0.002824	0.010355	-0.766479	-0.155029	-0.939331	705	16_15_08_6830000
0.495407	-0.210425	0.817774	0.005648	-0.000628	0.019140	-0.766479	-0.155029	-0.939331	706	16_15_08_6910000
0.495407	-0.210425	0.817774	-0.002824	0.004079	0.016630	-0.766479	-0.154907	-0.939331	707	16_15_08_6990000
0.495407	-0.210425	0.817774	0.008786	-0.001255	0.003138	-0.766479	-0.154907	-0.939331	708	16_15_08_7070000
0.495407	-0.210425	0.817774	0.014434	0.003765	0.001255	-0.766479	-0.155029	-0.939331	709	16_15_08_7150000
0.495407	-0.210425	0.817774	-0.015061	0.004707	-0.003765	-0.766479	-0.155029	-0.939331	710	16_15_08_7230000
0.495407	-0.210425	0.817774	0.005962	0.012865	-0.001255	-0.766479	-0.155029	-0.939453	711	16_15_08_7310000
0.495193	-0.210425	0.817774	0.006275	0.012237	0.010041	-0.766357	-0.155029	-0.939453	712	16_15_08_7390000
0.495193	-0.210425	0.817774	-0.017885	0.012237	0.005648	-0.766235	-0.154907	-0.939575	713	16_15_08_7470000
0.495193	-0.210639	0.817988	-0.008158	0.012237	-0.002510	-0.766235	-0.154907	-0.939575	714	16_15_08_7550000
0.494980	-0.210639	0.817988	-0.010982	0.009413	0.002510	-0.766113	-0.154785	-0.939697	715	16_15_08_7630000
0.494980	-0.210639	0.817988	0.001569	0.000628	-0.000314	-0.766113	-0.154785	-0.939697	716	16_15_08_7710000
0.494980	-0.210639	0.817988	0.003138	0.003765	-0.004707	-0.766113	-0.154785	-0.939697	717	16_15_08_7790000
0.494980	-0.210639	0.817988	-0.005334	0.002196	0.005020	-0.765991	-0.154785	-0.939697	718	16_15_08_7870000
0.494980	-0.210639	0.817988	0.004079	0.001569	0.013492	-0.766113	-0.154785	-0.939697	719	16_15_08_7950000
0.494980	-0.210639	0.817988	0.013492	0.003452	0.014434	-0.766113	-0.154785	-0.939697	720	16_15_08_8030000
0.494980	-0.210639	0.817988	0.021023	0.001883	0.007844	-0.765991	-0.154785	-0.939697	721	16_15_08_8110000
0.494980	-0.210425	0.817988	0.012551	-0.003452	0.001569	-0.766113	-0.154907	-0.939697	722	16_15_08_8190000
0.494980	-0.210425	0.817988	0.000314	-0.004707	-0.001255	-0.766113	-0.155029	-0.939697	723	16_15_08_8270000
0.494980	-0.210425	0.817988	0.012237	-0.013179	0.000000	-0.766113	-0.155029	-0.939575	724	16_15_08_8350000
0.494980	-0.210212	0.817988	0.013806	-0.002824	0.017571	-0.766235	-0.155151	-0.939575	725	16_15_08_8430000
0.494980	-0.210212	0.817988	-0.001255	0.010982	0.010355	-0.766235	-0.155029	-0.939575	726	16_15_08_8510000
0.494980	-0.210212	0.817988	0.018199	0.008786	-0.003452	-0.766113	-0.155151	-0.939575	727	16_15_08_8590000
0.494980	-0.210212	0.817988	0.000941	0.009727	-0.003138	-0.766113	-0.155273	-0.939697	728	16_15_08_8670000
0.494766	-0.210212	0.817988	-0.024161	0.006589	-0.000941	-0.765991	-0.155151	-0.939697	729	16_15_08_8750000
0.494766	-0.210425	0.818201	0.002196	0.008158	0.004707	-0.765991	-0.155029	-0.939697	730	16_15_08_8830000
0.494766	-0.210212	0.818201	0.010982	0.013179	-0.000314	-0.765869	-0.155151	-0.939819	731	16_15_08_8910000
0.494766	-0.210212	0.818201	0.010982	0.003765	0.001883	-0.765869	-0.155151	-0.939819	732	16_15_08_8990000
0.494766	-0.210212	0.818201	-0.010982	-0.002510	0.004393	-0.765869	-0.155151	-0.939819	733	16_15_08_9070000
0.494766	-0.210212	0.818201	-0.005962	0.000628	0.013492	-0.765869	-0.155029	-0.939819	734	16_15_08_9150000
0.494766	-0.210212	0.818201	0.021964	-0.000628	0.021023	-0.765869	-0.155029	-0.939819	735	16_15_08_9230000
0.494766	-0.210212	0.818201	-0.004079	-0.010041	0.006589	-0.765991	-0.155029	-0.939819	736	16_15_08_9310000
0.494766	-0.210212	0.818201	0.011923	0.000000	0.009413	-0.765991	-0.155029	-0.939697	737	16_15_08_9390000
0.494766	-0.210212	0.818201	0.001255	0.007217	0.013179	-0.765991	-0.155029	-0.939697	738	16_15_08_9470000
0.494552	-0.210212	0.818201	0.021650	0.010355	0.000000	-0.765991	-0.155029	-0.939819	739	16_15_08_9550000
0.494552	-0.209998	0.818415	0.024788	0.014434	-0.002824	-0.765869	-0.155273	-0.939819	740	16_15_08_9630000
0.494552	-0.209998	0.818415	-0.008472	0.006589	-0.000314	-0.765747	-0.155396	-0.939819	741	16_15_08_9710000
0.494552	-0.209998	0.818415	-0.020082	0.002196	0.000941	-0.765747	-0.155273	-0.939941	742	16_15_08_9790000
0.494552	-0.210212	0.818415	-0.022592	0.000000	0.004707	-0.765747	-0.155029	-0.939941	743	16_15_08_9870000
0.494552	-0.210212	0.818415	-0.000314	0.003765	0.008786	-0.765747	-0.154907	-0.939941	744	16_15_08_9950000
0.494552	-0.210212	0.818415	0.004079	-0.003452	0.004393	-0.765747	-0.154907	-0.939941	745	16_15_09_0030000
0.494552	-0.210425	0.818415	-0.005962	0.001569	0.005962	-0.765747	-0.154907	-0.939941	746	16_15_09_0110000
0.494552	-0.210425	0.818201	-0.026043	-0.003452	0.011296	-0.765869	-0.154785	-0.939941	747	16_15_09_0190000
0.494552	-0.210639	0.818201	-0.027926	-0.002824	0.003765	-0.765869	-0.154541	-0.939941	748	16_15_09_0270000
0.494552	-0.210639	0.818201	0.018199	-0.004707	-0.005020	-0.765869	-0.154541	-0.939941	749	16_15_09_0350000
0.494552	-0.210425	0.818201	0.016944	-0.001255	-0.013179	-0.765869	-0.154663	-0.939941	750	16_15_09_0430000
0.494552	-0.210425	0.818201	-0.005334	-0.011923	-0.001883	-0.765991	-0.154785	-0.939819	751	16_15_09_0510000
0.494766	-0.210425	0.818201	0.012551	-0.007217	0.011923	-0.765991	-0.154785	-0.939819	752	16_15_09_0590000
0.494766	-0.210425	0.818201	0.006589	-0.002196	0.010355	-0.766113	-0.154785	-0.939697	753	16_15_09_0670000
0.494766	-0.210425	0.818201	0.023847	-0.006589	0.001255	-0.766113	-0.154907	-0.939697	754	16_15_09_0750000
0.494766	-0.210212	0.818201	-0.005648	-0.002824	0.003452	-0.766113	-0.154907	-0.939575	755	16_15_09_0830000
0.494766	-0.210425	0.818201	-0.021650	-0.008786	0.001569	-0.766235	-0.154907	-0.939575	756	16_15_09_0910000
0.494766	-0.210425	0.817988	-0.025416	0.002824	-0.009413	-0.766235	-0.154663	-0.939575	757	16_15_09_0990000
0.494766	-0.210639	0.817988	-0.015061	0.005334	0.003138	-0.766235	-0.154541	-0.939697	758	16_15_09_1070000
0.494766	-0.210639	0.817988	-0.034201	0.008472	-0.014120	-0.766113	-0.154419	-0.939697	759	16_15_09_1150000
0.494766	-0.210852	0.817988	-0.006275	-0.001255	-0.003138	-0.766113	-0.154419	-0.939819	760	16_15_09_1230000
0.494766	-0.210852	0.817988	-0.012865	0.003765	0.016316	-0.766113	-0.154297	-0.939819	761	16_15_09_1310000
0.494766	-0.211066	0.817988	-0.010041	0.001883	0.000628	-0.766113	-0.154175	-0.939819	762	16_15_09_1390000
0.494766	-0.211066	0.817988	0.010982	-0.004393	0.004707	-0.766113	-0.154175	-0.939819	763	16_15_09_1470000
0.494766	-0.210852	0.817988	0.010982	0.006589	-0.002196	-0.766113	-0.154175	-0.939819	764	16_15_09_1550000
0.494766	-0.210852	0.817988	0.004079	-0.006903	-0.005334	-0.766113	-0.154297	-0.939819	765	16_15_09_1630000
0.494766	-0.210852	0.817988	0.016944	-0.005962	-0.002510	-0.766235	-0.154419	-0.939697	766	16_15_09_1710000
0.494766	-0.210639	0.817988	0.025102	0.004707	0.004079	-0.766235	-0.154541	-0.939697	767	16_15_09_1790000
0.494766	-0.210639	0.817988	-0.004079	0.000000	-0.000941	-0.766235	-0.154663	-0.939697	768	16_15_09_1870000
0.494766	-0.210639	0.817988	-0.009413	0.003765	-0.004707	-0.766113	-0.154663	-0.939697	769	16_15_09_1950000
0.494766	-0.210639	0.817988	-0.007844	0.008472	0.005020	-0.766113	-0.154541	-0.939697	770	16_15_09_2030000
0.494766	-0.210639	0.817988	-0.017885	0.007531	0.009727	-0.766113	-0.154419	-0.939819	771	16_15_09_2110000
0.494766	-0.210852	0.817988	-0.003452	0.005334	0.001883	-0.765991	-0.154297	-0.939819	772	16_15_09_2190000
0.494766	-0.210852	0.817988	0.003452	0.005020	0.017571	-0.765991	-0.154297	-0.939819	773	16_15_09_2270000
0.494552	-0.210852	0.818201	0.018826	0.011296	-0.002824	-0.765991	-0.154297	-0.939941	774	16_15_09_2350000
0.494552	-0.210639	0.818201	0.021964	0.016316	0.005020	-0.765869	-0.154541	-0.939941	775	16_15_09_2430000
0.494339	-0.210639	0.818201	-0.004707	0.011923	0.005962	-0.765747	-0.154541	-0.940063	776	16_15_09_2510000
0.494339	-0.210639	0.818201	-0.001255	-0.004707	0.005962	-0.765747	-0.154541	-0.940063	777	16_15_09_2590000
0.494339	-0.210639	0.818201	0.002196	-0.004393	0.013179	-0.765869	-0.154419	-0.940063	778	16_15_09_2670000
0.494339	-0.210639	0.818201	0.019140	-0.000941	0.002196	-0.765869	-0.154541	-0.939941	779	16_15_09_2750000
0.494552	-0.210425	0.818201	0.008786	-0.001883	-0.013806	-0.765869	-0.154663	-0.939941	780	16_15_09_2830000
0.494552	-0.210425	0.818415	0.023847	0.001569	0.008786	-0.765869	-0.154785	-0.939941	781	16_15_09_2910000
0.494552	-0.210425	0.818415	0.005334	-0.005020	0.010041	-0.765869	-0.154785	-0.939941	782	16_15_09_2990000
0.494552	-0.210212	0.818415	0.009727	0.001255	0.007531	-0.765991	-0.154907	-0.939819	783	16_15_09_3070000
0.494552	-0.210212	0.818415	0.017885	-0.002510	0.016316	-0.765991	-0.154907	-0.939819	784	16_15_09_3150000
0.494552	-0.210212	0.818415	-0.015375	0.008158	-0.007844	-0.765991	-0.154907	-0.939819	785	16_15_09_3230000
0.494339	-0.210425	0.818415	-0.002196	0.003765	0.015375	-0.765869	-0.154785	-0.939941	786	16_15_09_3310000
0.494339	-0.210212	0.818415	0.018513	-0.004079	0.011610	-0.765991	-0.154785	-0.939941	787	16_15_09_3390000
0.494339	-0.210212	0.818415	-0.002824	0.000941	0.003765	-0.765991	-0.154785	-0.939819	788	16_15_09_3470000
0.494339	-0.210212	0.818415	-0.005334	-0.000314	-0.013179	-0.765991	-0.154785	-0.939819	789	16_15_09_3550000
0.494552	-0.210212	0.818415	0.000628	-0.008472	-0.004079	-0.765991	-0.154907	-0.939819	790	16_15_09_3630000
0.494552	-0.210212	0.818415	-0.017885	0.002824	-0.011296	-0.765991	-0.154907	-0.939819	791	16_15_09_3710000
0.494552	-0.210425	0.818201	-0.030122	0.004079	-0.007217	-0.765991	-0.154785	-0.939819	792	16_15_09_3790000
0.494552	-0.210425	0.818201	-0.024161	-0.001883	-0.001569	-0.765991	-0.154541	-0.939941	793	16_15_09_3870000
0.494552	-0.210639	0.818201	-0.024161	-0.012237	0.004707	-0.765991	-0.154419	-0.939941	794	16_15_09_3950000
0.494552	-0.210639	0.818201	0.013492	-0.004707	-0.007844	-0.766113	-0.154419	-0.939819	795	16_15_09_4030000
0.494766	-0.210639	0.818201	0.000000	-0.011923	0.001569	-0.766113	-0.154419	-0.939819	796	16_15_09_4110000
0.494766	-0.210639	0.817988	-0.018199	-0.013179	-0.016944	-0.766235	-0.154419	-0.939697	797	16_15_09_4190000
0.494980	-0.210639	0.817988	-0.006589	-0.002510	-0.004707	-0.766235	-0.154419	-0.939697	798	16_15_09_4270000
0.494980	-0.210639	0.817988	-0.015061	-0.000314	0.001569	-0.766235	-0.154419	-0.939697	799	16_15_09_4350000
0.494980	-0.210852	0.817988	-0.007531	-0.001255	-0.003765	-0.766357	-0.154297	-0.939697	800	16_15_09_4430000
0.494980	-0.210852	0.817988	-0.012865	-0.010668	-0.004079	-0.766357	-0.154297	-0.939697	801	16_15_09_4510000
0.494980	-0.210852	0.817774	-0.030122	0.001569	0.000628	-0.766357	-0.154175	-0.939697	802	16_15_09_4590000
0.494980	-0.211066	0.817774	-0.015375	0.003138	0.018199	-0.766357	-0.153931	-0.939697	803	16_15_09_4670000
0.494980	-0.211066	0.817774	0.016003	0.001569	0.013179	-0.766357	-0.153809	-0.939697	804	16_15_09_4750000
0.494980	-0.211066	0.817988	0.019768	0.013179	0.019140	-0.766357	-0.153931	-0.939697	805	16_15_09_4830000
0.494766	-0.211066	0.817988	0.033888	0.007217	0.027612	-0.766357	-0.153931	-0.939697	806	16_15_09_4910000
0.494766	-0.210852	0.817988	0.023847	0.006589	0.029495	-0.766235	-0.154053	-0.939697	807	16_15_09_4990000
0.494552	-0.210852	0.817988	0.013806	0.012237	0.035143	-0.766235	-0.153931	-0.939697	808	16_15_09_5070000
0.494552	-0.210852	0.818201	0.016316	0.013492	0.022906	-0.766235	-0.153931	-0.939819	809	16_15_09_5150000
0.494339	-0.211066	0.818201	-0.013492	0.020709	0.027612	-0.766113	-0.153809	-0.939941	810	16_15_09_5230000
0.494125	-0.211280	0.818201	-0.020395	0.029181	0.024474	-0.765991	-0.153564	-0.940063	811	16_15_09_5310000
0.493912	-0.211280	0.818415	0.009099	0.035457	0.031377	-0.765747	-0.153320	-0.940308	812	16_15_09_5390000
0.493484	-0.211280	0.818628	0.016316	0.034201	0.036712	-0.765503	-0.153198	-0.940430	813	16_15_09_5470000
0.493271	-0.211493	0.818628	0.008158	0.026043	0.033888	-0.765381	-0.153076	-0.940552	814	16_15_09_5550000
0.493057	-0.211493	0.818842	0.029181	0.031377	0.031064	-0.765259	-0.153076	-0.940796	815	16_15_09_5630000
0.492843	-0.211493	0.819056	0.019768	0.046439	0.039536	-0.765015	-0.153076	-0.940918	816	16_15_09_5710000
0.492416	-0.211493	0.819269	0.015375	0.051459	0.034201	-0.764648	-0.152954	-0.941162	817	16_15_09_5790000
0.491989	-0.211280	0.819483	0.033888	0.046125	0.023847	-0.764404	-0.152954	-0.941528	818	16_15_09_5870000
0.491775	-0.211280	0.819697	0.028553	0.042046	0.034829	-0.764038	-0.153076	-0.941650	819	16_15_09_5950000
0.491348	-0.211280	0.819910	0.025416	0.049263	0.037653	-0.763794	-0.153076	-0.941895	820	16_15_09_6030000
0.491134	-0.211280	0.820124	0.002196	0.055538	0.043928	-0.763428	-0.152954	-0.942261	821	16_15_09_6110000
0.490707	-0.211493	0.820338	0.003138	0.049263	0.052087	-0.763184	-0.152588	-0.942505	822	16_15_09_6190000
0.490280	-0.211493	0.820338	0.005648	0.049263	0.059303	-0.762817	-0.152344	-0.942749	823	16_15_09_6270000
0.489853	-0.211707	0.820551	0.014434	0.047066	0.048321	-0.762573	-0.152100	-0.943115	824	16_15_09_6350000
0.489425	-0.211707	0.820978	0.029181	0.051459	0.055852	-0.762207	-0.151978	-0.943359	825	16_15_09_6430000
0.489212	-0.211707	0.821192	0.032319	0.036398	0.060559	-0.761963	-0.151855	-0.943604	826	16_15_09_6510000
0.488784	-0.211921	0.821406	0.014747	0.039849	0.046439	-0.761841	-0.151733	-0.943726	827	16_15_09_6590000
0.488571	-0.211921	0.821406	0.036084	0.026985	0.062755	-0.761597	-0.151611	-0.943848	828	16_15_09_6670000
0.488357	-0.211707	0.821619	0.053969	0.020709	0.066206	-0.761597	-0.151611	-0.943970	829	16_15_09_6750000
0.487930	-0.211707	0.821833	0.044870	0.027926	0.060872	-0.761475	-0.151611	-0.944092	830	16_15_09_6830000
0.487716	-0.211707	0.822047	0.028553	0.022278	0.060872	-0.761353	-0.151489	-0.944214	831	16_15_09_6910000
0.487503	-0.211707	0.822047	0.039849	0.012865	0.056793	-0.761230	-0.151367	-0.944214	832	16_15_09_6990000
0.487289	-0.211707	0.822260	0.026357	0.003452	0.048008	-0.761230	-0.151367	-0.944214	833	16_15_09_7070000
0.487289	-0.211707	0.822260	0.038281	0.004079	0.044870	-0.761353	-0.151245	-0.944214	834	16_15_09_7150000
0.487289	-0.211493	0.822474	0.052400	0.005020	0.036084	-0.761353	-0.151367	-0.944214	835	16_15_09_7230000
0.487075	-0.211493	0.822474	0.044556	0.006589	0.035770	-0.761353	-0.151611	-0.944092	836	16_15_09_7310000
0.487075	-0.211280	0.822687	0.020395	0.009727	0.016316	-0.761353	-0.151611	-0.944092	837	16_15_09_7390000
0.486862	-0.211280	0.822687	0.013492	0.019140	0.018513	-0.761230	-0.151733	-0.944214	838	16_15_09_7470000
0.486862	-0.211280	0.822687	-0.001569	0.000000	0.011923	-0.761230	-0.151611	-0.944214	839	16_15_09_7550000
0.486862	-0.211280	0.822687	-0.002196	0.009727	0.002824	-0.761230	-0.151611	-0.944336	840	16_15_09_7630000
0.486648	-0.211280	0.822687	0.005334	0.005020	-0.014120	-0.761108	-0.151611	-0.944336	841	16_15_09_7710000
0.486862	-0.211280	0.822687	0.007531	0.004079	-0.024788	-0.761108	-0.151855	-0.944336	842	16_15_09_7790000
0.486862	-0.211280	0.822687	-0.028240	-0.009099	-0.031064	-0.761108	-0.151978	-0.944336	843	16_15_09_7870000
0.487075	-0.211280	0.822687	-0.039536	-0.026671	-0.030122	-0.761230	-0.151855	-0.944214	844	16_15_09_7950000
0.487289	-0.211493	0.822474	-0.040791	-0.028240	-0.042987	-0.761353	-0.151855	-0.944092	845	16_15_09_8030000
0.487503	-0.211493	0.822260	-0.028553	-0.034201	-0.037025	-0.761475	-0.151733	-0.943970	846	16_15_09_8110000
0.487930	-0.211493	0.822047	-0.045184	-0.044242	-0.045811	-0.761719	-0.151733	-0.943848	847	16_15_09_8190000
0.488144	-0.211493	0.822047	-0.011923	-0.042360	-0.050518	-0.762085	-0.151855	-0.943604	848	16_15_09_8270000
0.488571	-0.211493	0.821833	-0.011296	-0.038908	-0.041418	-0.762329	-0.152100	-0.943359	849	16_15_09_8350000
0.488784	-0.211493	0.821619	-0.048635	-0.040163	-0.055224	-0.762573	-0.152100	-0.943115	850	16_15_09_8430000
0.489212	-0.211493	0.821406	-0.039536	-0.042360	-0.043301	-0.762817	-0.152100	-0.942871	851	16_15_09_8510000
0.489639	-0.211493	0.821192	-0.028867	-0.047380	-0.046125	-0.763062	-0.152100	-0.942749	852	16_15_09_8590000
0.490066	-0.211707	0.820978	-0.048008	-0.044870	-0.056166	-0.763306	-0.152222	-0.942505	853	16_15_09_8670000
0.490280	-0.211707	0.820765	-0.026357	-0.042987	-0.053342	-0.763550	-0.152222	-0.942261	854	16_15_09_8750000
0.490707	-0.211707	0.820551	-0.041732	-0.046752	-0.042046	-0.763916	-0.152222	-0.942017	855	16_15_09_8830000
0.491134	-0.211707	0.820124	-0.042987	-0.055538	-0.048321	-0.764160	-0.152222	-0.941772	856	16_15_09_8910000
0.491562	-0.211707	0.819910	-0.047694	-0.050204	-0.052087	-0.764526	-0.152222	-0.941528	857	16_15_09_8990000
0.491989	-0.211921	0.819697	-0.029181	-0.036398	-0.051773	-0.764771	-0.152222	-0.941284	858	16_15_09_9070000
0.492203	-0.211921	0.819483	-0.036084	-0.026985	-0.047066	-0.765015	-0.152344	-0.941162	859	16_15_09_9150000
0.492416	-0.211921	0.819269	-0.047694	-0.029809	-0.040791	-0.765137	-0.152222	-0.941040	860	16_15_09_9230000
0.492630	-0.212134	0.819056	-0.050518	-0.034829	-0.040791	-0.765381	-0.152222	-0.940796	861	16_15_09_9310000
0.493057	-0.212348	0.818842	-0.052714	-0.037339	-0.037967	-0.765503	-0.151978	-0.940674	862	16_15_09_9390000
0.493271	-0.212561	0.818628	-0.057107	-0.034515	-0.018199	-0.765747	-0.151855	-0.940552	863	16_15_09_9470000
0.493484	-0.212775	0.818415	-0.056793	-0.035770	-0.018199	-0.765991	-0.151489	-0.940430	864	16_15_09_9550000
0.493912	-0.212989	0.818201	-0.024161	-0.024161	-0.018826	-0.766235	-0.151367	-0.940186	865	16_15_09_9630000
0.494125	-0.212989	0.817988	-0.037025	-0.030122	-0.026671	-0.766357	-0.151245	-0.940063	866	16_15_09_9710000
0.494339	-0.213202	0.817774	-0.043615	-0.037653	-0.018513	-0.766602	-0.151123	-0.939941	867	16_15_09_9790000
0.494552	-0.213416	0.817560	-0.042360	-0.017571	-0.020082	-0.766846	-0.150879	-0.939819	868	16_15_09_9870000
0.494766	-0.213630	0.817560	-0.053342	-0.029809	-0.015061	-0.766968	-0.150635	-0.939697	869	16_15_09_9950000
0.494980	-0.213843	0.817347	-0.013492	-0.026043	-0.019768	-0.767212	-0.150513	-0.939575	870	16_15_10_0030000
0.495193	-0.213630	0.817133	-0.005020	-0.029495	-0.017571	-0.767334	-0.150635	-0.939453	871	16_15_10_0110000
0.495407	-0.213630	0.817133	0.008472	-0.044870	-0.012865	-0.767578	-0.150757	-0.939209	872	16_15_10_0190000
0.495621	-0.213630	0.816919	-0.009099	-0.015061	-0.014120	-0.767822	-0.150757	-0.939087	873	16_15_10_0270000
0.495834	-0.213630	0.816919	0.002510	-0.023219	-0.014120	-0.767944	-0.150879	-0.938965	874	16_15_10_0350000
0.495834	-0.213630	0.816706	-0.015061	-0.021023	-0.017571	-0.768066	-0.150879	-0.938843	875	16_15_10_0430000
0.496048	-0.213630	0.816706	-0.014120	-0.021964	-0.021337	-0.768188	-0.151001	-0.938721	876	16_15_10_0510000
0.496261	-0.213630	0.816492	-0.036084	-0.026043	-0.026671	-0.768433	-0.150879	-0.938599	877	16_15_10_0590000
0.496475	-0.213630	0.816279	-0.006275	-0.018513	-0.025730	-0.768555	-0.150879	-0.938477	878	16_15_10_0670000
0.496689	-0.213630	0.816279	-0.010668	-0.008158	-0.017258	-0.768555	-0.151001	-0.938354	879	16_15_10_0750000
0.496689	-0.213630	0.816065	-0.027926	-0.016630	-0.022906	-0.768677	-0.151001	-0.938354	880	16_15_10_0830000
0.496902	-0.213630	0.816065	-0.017258	-0.017258	-0.022906	-0.768799	-0.151001	-0.938232	881	16_15_10_0910000
0.497116	-0.213630	0.816065	-0.010355	-0.014434	-0.007844	-0.768921	-0.151001	-0.938110	882	16_15_10_0990000
0.497116	-0.213843	0.815851	-0.023533	-0.025730	-0.001569	-0.769043	-0.150879	-0.937988	883	16_15_10_1070000
0.497330	-0.213843	0.815851	0.004393	-0.009413	-0.004393	-0.769165	-0.150879	-0.937988	884	16_15_10_1150000
0.497543	-0.213630	0.815638	0.015375	-0.013492	-0.020082	-0.769165	-0.151001	-0.937866	885	16_15_10_1230000
0.497543	-0.213416	0.815638	0.016944	-0.010041	-0.023219	-0.769287	-0.151245	-0.937744	886	16_15_10_1310000
0.497757	-0.213416	0.815638	0.014434	-0.010982	-0.004079	-0.769409	-0.151489	-0.937622	887	16_15_10_1390000
0.497757	-0.213202	0.815638	-0.003452	-0.014120	-0.009727	-0.769409	-0.151489	-0.937622	888	16_15_10_1470000
0.497971	-0.213202	0.815638	0.019768	-0.010355	-0.013492	-0.769531	-0.151733	-0.937500	889	16_15_10_1550000
0.497971	-0.212989	0.815638	0.008472	0.000941	-0.007531	-0.769531	-0.151855	-0.937378	890	16_15_10_1630000
0.497971	-0.212989	0.815638	0.025416	0.003765	-0.002510	-0.769531	-0.151978	-0.937378	891	16_15_10_1710000
0.497971	-0.212775	0.815638	0.037653	-0.005962	-0.001255	-0.769531	-0.152222	-0.937378	892	16_15_10_1790000
0.497971	-0.212348	0.815638	0.036398	0.010355	0.002510	-0.769531	-0.152588	-0.937378	893	16_15_10_1870000
0.497971	-0.212134	0.815851	0.033574	0.000628	-0.010041	-0.769531	-0.152832	-0.937378	894	16_15_10_1950000
0.497971	-0.211921	0.815851	0.029495	0.003452	-0.016316	-0.769409	-0.153198	-0.937256	895	16_15_10_2030000
0.497971	-0.211707	0.815851	0.025730	0.003452	-0.006589	-0.769409	-0.153442	-0.937256	896	16_15_10_2110000
0.497971	-0.211493	0.816065	0.040163	0.013492	-0.011296	-0.769409	-0.153687	-0.937256	897	16_15_10_2190000
0.497971	-0.211280	0.816065	-0.006589	0.009099	-0.021650	-0.769287	-0.153931	-0.937378	898	16_15_10_2270000
0.497971	-0.211280	0.816065	-0.003452	0.003765	-0.009099	-0.769165	-0.154053	-0.937378	899	16_15_10_2350000
0.497971	-0.211280	0.816065	-0.028553	0.000628	-0.011296	-0.769165	-0.153931	-0.937378	900	16_15_10_2430000
0.497971	-0.211493	0.816065	-0.019768	-0.004393	-0.017258	-0.769165	-0.153931	-0.937378	901	16_15_10_2510000
0.497971	-0.211493	0.815851	-0.007844	-0.010982	-0.021964	-0.769165	-0.153931	-0.937378	902	16_15_10_2590000
0.498184	-0.211280	0.815851	0.000314	-0.006589	-0.023219	-0.769287	-0.154053	-0.937256	903	16_15_10_2670000
0.498184	-0.211280	0.815851	0.015689	-0.012237	-0.032005	-0.769287	-0.154297	-0.937256	904	16_15_10_2750000
0.498398	-0.211066	0.815851	0.010982	-0.003452	-0.026985	-0.769287	-0.154541	-0.937134	905	16_15_10_2830000
0.498398	-0.210852	0.815851	-0.006275	0.000628	-0.036712	-0.769287	-0.154785	-0.937134	906	16_15_10_2910000
0.498398	-0.210852	0.815851	-0.010355	-0.001569	-0.032319	-0.769287	-0.154907	-0.937134	907	16_15_10_2990000
0.498611	-0.210639	0.815851	0.013179	-0.003138	-0.034201	-0.769287	-0.155151	-0.937134	908	16_15_10_3070000
0.498611	-0.210425	0.815851	0.008472	0.003452	-0.048008	-0.769165	-0.155518	-0.937134	909	16_15_10_3150000
0.498611	-0.209998	0.815851	0.041104	0.002510	-0.042673	-0.769165	-0.155884	-0.937134	910	16_15_10_3230000
0.498825	-0.209571	0.816065	0.032946	0.003452	-0.052087	-0.769043	-0.156494	-0.937012	911	16_15_10_3310000
0.498825	-0.209357	0.816065	0.006903	0.000628	-0.051145	-0.768921	-0.156982	-0.937012	912	16_15_10_3390000
0.499039	-0.209143	0.816065	0.015061	-0.008472	-0.046125	-0.768921	-0.157349	-0.937012	913	16_15_10_3470000
0.499039	-0.208716	0.816065	0.001255	-0.006903	-0.055538	-0.768921	-0.157715	-0.937012	914	16_15_10_3550000
0.499252	-0.208716	0.816065	-0.005020	0.005020	-0.048949	-0.768921	-0.158081	-0.936890	915	16_15_10_3630000
0.499252	-0.208502	0.816065	-0.002824	0.009727	-0.050832	-0.768799	-0.158325	-0.937012	916	16_15_10_3710000
0.499252	-0.208289	0.816065	0.006903	-0.004393	-0.048949	-0.768677	-0.158569	-0.937012	917	16_15_10_3790000
0.499466	-0.208075	0.816065	0.005648	-0.009099	-0.056166	-0.768677	-0.158936	-0.936890	918	16_15_10_3870000
0.499680	-0.207862	0.815851	-0.019140	-0.025102	-0.044870	-0.768799	-0.159302	-0.936890	919	16_15_10_3950000
0.499893	-0.207862	0.815851	-0.012237	-0.016944	-0.058362	-0.768799	-0.159424	-0.936768	920	16_15_10_4030000
0.500107	-0.207434	0.815851	0.012237	-0.032319	-0.063069	-0.768921	-0.159790	-0.936523	921	16_15_10_4110000
0.500320	-0.207221	0.815638	0.024788	-0.038281	-0.058362	-0.769165	-0.160278	-0.936279	922	16_15_10_4190000
0.500748	-0.206793	0.815638	0.028553	-0.039536	-0.063696	-0.769287	-0.160889	-0.936035	923	16_15_10_4270000
0.501175	-0.206366	0.815424	-0.003138	-0.048008	-0.067462	-0.769531	-0.161377	-0.935791	924	16_15_10_4350000
0.501602	-0.206153	0.815210	-0.009413	-0.059303	-0.074365	-0.769897	-0.161743	-0.935425	925	16_15_10_4430000
0.502243	-0.205939	0.814997	-0.027612	-0.068089	-0.086602	-0.770264	-0.162109	-0.935059	926	16_15_10_4510000
0.502884	-0.205725	0.814570	-0.019454	-0.067775	-0.090053	-0.770630	-0.162476	-0.934692	927	16_15_10_4590000
0.503311	-0.205512	0.814356	-0.037967	-0.083150	-0.088171	-0.771118	-0.162842	-0.934326	928	16_15_10_4670000
0.504166	-0.205512	0.813929	-0.023533	-0.080013	-0.092877	-0.771606	-0.163208	-0.933838	929	16_15_10_4750000
0.504807	-0.205298	0.813715	-0.043928	-0.091308	-0.087543	-0.772095	-0.163452	-0.933350	930	16_15_10_4830000
0.505448	-0.205084	0.813288	-0.025102	-0.104487	-0.087543	-0.772705	-0.163818	-0.932739	931	16_15_10_4910000
0.506302	-0.204871	0.812647	-0.010668	-0.117979	-0.083464	-0.773315	-0.164185	-0.932129	932	16_15_10_4990000
0.507157	-0.204657	0.812220	0.006275	-0.095701	-0.081895	-0.774048	-0.164673	-0.931519	933	16_15_10_5070000
0.508011	-0.204230	0.812006	0.011296	-0.100722	-0.083464	-0.774658	-0.165161	-0.930908	934	16_15_10_5150000
0.508652	-0.203803	0.811579	-0.009413	-0.110762	-0.097898	-0.775269	-0.165771	-0.930298	935	16_15_10_5230000
0.509507	-0.203589	0.811151	-0.013179	-0.091308	-0.103546	-0.775879	-0.166260	-0.929688	936	16_15_10_5310000
0.510361	-0.203375	0.810724	-0.038281	-0.106997	-0.100408	-0.776489	-0.166748	-0.929077	937	16_15_10_5390000
0.511216	-0.203162	0.810083	-0.024161	-0.111076	-0.103546	-0.777100	-0.167114	-0.928467	938	16_15_10_5470000
0.512070	-0.202948	0.809656	-0.025730	-0.105428	-0.101349	-0.777832	-0.167603	-0.927856	939	16_15_10_5550000
0.512925	-0.202734	0.809229	-0.044870	-0.106997	-0.117979	-0.778442	-0.167969	-0.927246	940	16_15_10_5630000
0.513779	-0.202521	0.808802	-0.052087	-0.111390	-0.118607	-0.779053	-0.168335	-0.926636	941	16_15_10_5710000
0.514634	-0.202307	0.808161	-0.064324	-0.098525	-0.133354	-0.779663	-0.168701	-0.926025	942	16_15_10_5790000
0.515488	-0.202094	0.807733	-0.043615	-0.108252	-0.128020	-0.780151	-0.169189	-0.925537	943	16_15_10_5870000
0.516343	-0.202094	0.807092	-0.071227	-0.106056	-0.117979	-0.780762	-0.169556	-0.924927	944	16_15_10_5950000
0.517197	-0.202094	0.806665	-0.110135	-0.111076	-0.123313	-0.781494	-0.169556	-0.924316	945	16_15_10_6030000
0.518265	-0.202094	0.806024	-0.073423	-0.118293	-0.124569	-0.782104	-0.169678	-0.923828	946	16_15_10_6110000
0.519120	-0.202094	0.805383	-0.075933	-0.118293	-0.121431	-0.782837	-0.169922	-0.923096	947	16_15_10_6190000
0.519974	-0.202094	0.804743	-0.080013	-0.117038	-0.105115	-0.783447	-0.170044	-0.922485	948	16_15_10_6270000
0.521043	-0.202094	0.804102	-0.067462	-0.112959	-0.104487	-0.784180	-0.170166	-0.921875	949	16_15_10_6350000
0.521897	-0.202094	0.803674	-0.079385	-0.112645	-0.094760	-0.784790	-0.170288	-0.921265	950	16_15_10_6430000
0.522752	-0.202307	0.803034	-0.084092	-0.123627	-0.083778	-0.785522	-0.170288	-0.920654	951	16_15_10_6510000
0.523606	-0.202521	0.802393	-0.064010	-0.123941	-0.073737	-0.786377	-0.170166	-0.920044	952	16_15_10_6590000
0.524461	-0.202521	0.801752	-0.059303	-0.129903	-0.080013	-0.787109	-0.170288	-0.919312	953	16_15_10_6670000
0.525529	-0.202521	0.801111	-0.067775	-0.129589	-0.080640	-0.787964	-0.170288	-0.918579	954	16_15_10_6750000
0.526383	-0.202521	0.800684	-0.045811	-0.130217	-0.079385	-0.788818	-0.170410	-0.917847	955	16_15_10_6830000
0.527451	-0.202307	0.800043	-0.027926	-0.132727	-0.069658	-0.789673	-0.170532	-0.917114	956	16_15_10_6910000
0.528306	-0.202307	0.799402	-0.015061	-0.131785	-0.053969	-0.790527	-0.170776	-0.916260	957	16_15_10_6990000
0.529160	-0.202094	0.798761	-0.016003	-0.128334	-0.039849	-0.791382	-0.171021	-0.915527	958	16_15_10_7070000
0.530015	-0.202094	0.798334	-0.003452	-0.121431	-0.037339	-0.792236	-0.171143	-0.914795	959	16_15_10_7150000
0.530869	-0.201880	0.797906	0.013179	-0.123000	-0.021337	-0.792969	-0.171387	-0.913940	960	16_15_10_7230000
0.531510	-0.201666	0.797266	0.021337	-0.118921	-0.005648	-0.793823	-0.171631	-0.913208	961	16_15_10_7310000
0.532365	-0.201453	0.796838	0.019140	-0.131785	0.008472	-0.794800	-0.171753	-0.912354	962	16_15_10_7390000
0.533219	-0.201239	0.796411	0.052714	-0.126137	0.007531	-0.795654	-0.171997	-0.911499	963	16_15_10_7470000
0.534074	-0.200812	0.795984	0.080326	-0.130217	0.013806	-0.796631	-0.172363	-0.910645	964	16_15_10_7550000
0.534715	-0.200385	0.795556	0.095388	-0.128961	0.030122	-0.797485	-0.172852	-0.909668	965	16_15_10_7630000
0.535569	-0.199957	0.795129	0.120803	-0.137747	0.026985	-0.798462	-0.173462	-0.908691	966	16_15_10_7710000
0.536424	-0.199103	0.794702	0.130217	-0.124882	0.004707	-0.799438	-0.174316	-0.907715	967	16_15_10_7790000
0.537065	-0.198462	0.794488	0.108566	-0.113273	-0.001883	-0.800293	-0.175171	-0.906860	968	16_15_10_7870000
0.537706	-0.197821	0.794061	0.098839	-0.109507	0.023533	-0.801147	-0.175781	-0.906006	969	16_15_10_7950000
0.538347	-0.197394	0.793847	0.089740	-0.110135	0.011610	-0.801880	-0.176392	-0.905151	970	16_15_10_8030000
0.538987	-0.196966	0.793420	0.079071	-0.095701	0.014120	-0.802612	-0.176880	-0.904419	971	16_15_10_8110000
0.539628	-0.196753	0.792993	0.021023	-0.096956	0.013806	-0.803345	-0.177124	-0.903687	972	16_15_10_8190000
0.540269	-0.196753	0.792779	0.016003	-0.090367	0.024161	-0.804077	-0.177246	-0.903076	973	16_15_10_8270000
0.540696	-0.196753	0.792352	0.007531	-0.080640	0.033260	-0.804688	-0.177124	-0.902588	974	16_15_10_8350000
0.541124	-0.196966	0.791925	-0.000941	-0.081581	0.038281	-0.805298	-0.176880	-0.901978	975	16_15_10_8430000
0.541765	-0.196966	0.791498	0.026671	-0.091622	0.054283	-0.805908	-0.176758	-0.901489	976	16_15_10_8510000
0.542192	-0.197180	0.791284	-0.006589	-0.085347	0.064010	-0.806641	-0.176392	-0.900879	977	16_15_10_8590000
0.542619	-0.197394	0.790857	0.005962	-0.098525	0.080640	-0.807373	-0.176025	-0.900269	978	16_15_10_8670000
0.543260	-0.197607	0.790429	0.008158	-0.109821	0.067462	-0.808228	-0.175537	-0.899658	979	16_15_10_8750000
0.543687	-0.197607	0.790002	0.049890	-0.093819	0.065579	-0.808960	-0.175415	-0.898926	980	16_15_10_8830000
0.544115	-0.197394	0.789788	0.083150	-0.095388	0.066834	-0.809814	-0.175415	-0.898193	981	16_15_10_8910000
0.544542	-0.197180	0.789361	0.103232	-0.090367	0.076247	-0.810547	-0.175659	-0.897461	982	16_15_10_8990000
0.544969	-0.196753	0.789361	0.149671	-0.087543	0.081581	-0.811279	-0.176025	-0.896729	983	16_15_10_9070000
0.545396	-0.196112	0.789148	0.171949	-0.074051	0.055852	-0.811890	-0.176758	-0.895996	984	16_15_10_9150000
0.545824	-0.195257	0.789148	0.158456	-0.073737	0.058990	-0.812500	-0.177612	-0.895264	985	16_15_10_9230000
0.546251	-0.194830	0.789148	0.097584	-0.079699	0.040477	-0.813110	-0.178101	-0.894653	986	16_15_10_9310000
0.546464	-0.194403	0.788934	0.081895	-0.064951	0.025416	-0.813599	-0.178589	-0.894043	987	16_15_10_9390000
0.546892	-0.194189	0.788720	0.055538	-0.058362	0.018199	-0.814087	-0.178955	-0.893555	988	16_15_10_9470000
0.547105	-0.193976	0.788507	0.015689	-0.033888	0.006275	-0.814453	-0.179077	-0.893188	989	16_15_10_9550000
0.547319	-0.193976	0.788507	0.003765	-0.030436	-0.001569	-0.814697	-0.179199	-0.892944	990	16_15_10_9630000
0.547533	-0.193762	0.788293	0.020709	-0.021023	-0.013179	-0.814819	-0.179321	-0.892700	991	16_15_10_9710000
0.547746	-0.193548	0.788293	0.000628	-0.010668	-0.026985	-0.814941	-0.179565	-0.892578	992	16_15_10_9790000
0.547746	-0.193335	0.788293	0.018199	0.004079	-0.041418	-0.814819	-0.179810	-0.892578	993	16_15_10_9870000
0.547960	-0.192907	0.788293	0.016944	-0.018199	-0.077502	-0.814819	-0.180298	-0.892456	994	16_15_10_9950000
0.548173	-0.192480	0.788293	0.003452	-0.014434	-0.066834	-0.814819	-0.180908	-0.892334	995	16_15_11_0030000
0.548387	-0.192267	0.788079	-0.009727	-0.012865	-0.083778	-0.814819	-0.181396	-0.892212	996	16_15_11_0110000
0.548601	-0.191839	0.788079	0.030750	-0.005334	-0.082523	-0.814819	-0.182007	-0.892212	997	16_15_11_0190000
0.548601	-0.191198	0.788079	0.037025	0.000000	-0.057107	-0.814697	-0.182617	-0.892090	998	16_15_11_0270000
0.548814	-0.190771	0.788293	0.034515	-0.004707	-0.047066	-0.814575	-0.183228	-0.891968	999	16_15_11_0350000
0.548814	-0.190558	0.788293	0.032633	-0.016630	-0.032633	-0.814575	-0.183716	-0.891846	1000	16_15_11_0430000
0.549028	-0.190344	0.788079	-0.006275	-0.014120	-0.006903	-0.814697	-0.183960	-0.891724	1001	16_15_11_0510000
0.549028	-0.190344	0.788079	0.005962	-0.006275	0.013492	-0.814819	-0.183960	-0.891724	1002	16_15_11_0590000
0.549028	-0.190344	0.788079	-0.006275	-0.003765	0.030750	-0.814819	-0.183838	-0.891602	1003	16_15_11_0670000
0.549028	-0.190558	0.788079	-0.009413	-0.003765	0.034829	-0.814941	-0.183594	-0.891602	1004	16_15_11_0750000
0.549028	-0.190771	0.788079	0.027612	0.001569	0.062441	-0.814941	-0.183350	-0.891602	1005	16_15_11_0830000
0.548814	-0.190771	0.788079	0.027612	-0.002824	0.066206	-0.815063	-0.183105	-0.891479	1006	16_15_11_0910000
0.548814	-0.190985	0.788079	-0.006589	0.009413	0.072168	-0.815186	-0.182739	-0.891479	1007	16_15_11_0990000
0.548601	-0.191412	0.788079	-0.016630	0.000941	0.080326	-0.815186	-0.182251	-0.891602	1008	16_15_11_1070000
0.548387	-0.191626	0.788079	0.009099	0.005648	0.081895	-0.815308	-0.181763	-0.891602	1009	16_15_11_1150000
0.548387	-0.192053	0.788079	-0.002824	-0.008472	0.096643	-0.815430	-0.181152	-0.891602	1010	16_15_11_1230000
0.548173	-0.192267	0.788079	0.035457	-0.001569	0.106683	-0.815674	-0.180664	-0.891479	1011	16_15_11_1310000
0.548173	-0.192694	0.788079	0.019140	-0.011296	0.103546	-0.815796	-0.180176	-0.891357	1012	16_15_11_1390000
0.548173	-0.192907	0.788079	0.050518	-0.004393	0.101349	-0.816040	-0.179810	-0.891235	1013	16_15_11_1470000
0.547960	-0.192907	0.788079	0.069344	-0.019140	0.097898	-0.816284	-0.179565	-0.891113	1014	16_15_11_1550000
0.547960	-0.192907	0.788079	0.080954	-0.016944	0.086916	-0.816528	-0.179565	-0.890869	1015	16_15_11_1630000
0.547960	-0.192694	0.788293	0.079071	-0.005962	0.099780	-0.816650	-0.179443	-0.890625	1016	16_15_11_1710000
0.547960	-0.192694	0.788293	0.091308	-0.006589	0.076247	-0.816895	-0.179565	-0.890503	1017	16_15_11_1790000
0.547746	-0.192480	0.788293	0.083150	-0.014120	0.064324	-0.817017	-0.179688	-0.890259	1018	16_15_11_1870000
0.547746	-0.192267	0.788507	0.050518	-0.010982	0.064638	-0.817261	-0.179810	-0.890137	1019	16_15_11_1950000
0.547746	-0.192267	0.788507	0.052714	-0.013492	0.054283	-0.817383	-0.179810	-0.889893	1020	16_15_11_2030000
0.547960	-0.192053	0.788507	0.035457	-0.011610	0.026671	-0.817505	-0.179810	-0.889771	1021	16_15_11_2110000
0.547960	-0.192053	0.788293	0.016003	-0.007217	0.016003	-0.817627	-0.179932	-0.889648	1022	16_15_11_2190000
0.547960	-0.192267	0.788293	-0.018513	-0.006903	0.017258	-0.817627	-0.179810	-0.889648	1023	16_15_11_2270000
0.547960	-0.192267	0.788293	-0.004393	-0.008158	-0.009099	-0.817749	-0.179688	-0.889526	1024	16_15_11_2350000
0.548173	-0.192267	0.788293	0.006589	-0.011296	-0.011610	-0.817749	-0.179810	-0.889526	1025	16_15_11_2430000
0.548173	-0.192267	0.788079	-0.009727	-0.021337	-0.022906	-0.817871	-0.179932	-0.889404	1026	16_15_11_2510000
0.548387	-0.192267	0.788079	-0.030122	-0.014434	-0.045184	-0.817993	-0.179932	-0.889282	1027	16_15_11_2590000
0.548601	-0.192053	0.787866	0.005020	-0.025416	-0.047380	-0.817993	-0.180176	-0.889160	1028	16_15_11_2670000
0.548814	-0.191839	0.787866	0.001255	-0.021964	-0.046439	-0.818115	-0.180542	-0.889038	1029	16_15_11_2750000
0.549028	-0.191626	0.787652	-0.015061	-0.017885	-0.054597	-0.818237	-0.180786	-0.888916	1030	16_15_11_2830000
0.549242	-0.191626	0.787652	-0.038594	-0.015375	-0.056793	-0.818237	-0.181030	-0.888794	1031	16_15_11_2910000
0.549455	-0.191412	0.787439	-0.013806	-0.012237	-0.050518	-0.818237	-0.181152	-0.888794	1032	16_15_11_2990000
0.549669	-0.191412	0.787439	-0.002510	-0.013492	-0.042987	-0.818237	-0.181396	-0.888672	1033	16_15_11_3070000
0.549669	-0.191198	0.787439	0.008786	-0.004393	-0.040477	-0.818237	-0.181763	-0.888550	1034	16_15_11_3150000
0.549669	-0.190771	0.787439	0.026671	-0.000314	-0.026671	-0.818237	-0.182129	-0.888550	1035	16_15_11_3230000
0.549669	-0.190558	0.787439	0.010668	0.007844	-0.026357	-0.818115	-0.182373	-0.888550	1036	16_15_11_3310000
0.549669	-0.190558	0.787439	-0.006589	0.012865	-0.015689	-0.818115	-0.182495	-0.888550	1037	16_15_11_3390000
0.549669	-0.190344	0.787652	0.020709	0.030122	-0.004707	-0.817871	-0.182617	-0.888672	1038	16_15_11_3470000
0.549455	-0.190344	0.787652	-0.006275	0.035457	0.005648	-0.817627	-0.182739	-0.888916	1039	16_15_11_3550000
0.549242	-0.190344	0.787866	0.006589	0.031691	0.015375	-0.817383	-0.182617	-0.889038	1040	16_15_11_3630000
0.549028	-0.190344	0.788079	0.036084	0.020709	0.017885	-0.817261	-0.182739	-0.889160	1041	16_15_11_3710000
0.548814	-0.190130	0.788079	0.030750	0.010355	0.024788	-0.817261	-0.182861	-0.889282	1042	16_15_11_3790000
0.548814	-0.190130	0.788293	-0.020082	0.009099	0.018199	-0.817139	-0.182739	-0.889282	1043	16_15_11_3870000
0.548814	-0.190344	0.788293	-0.013806	-0.001569	0.018826	-0.817139	-0.182495	-0.889282	1044	16_15_11_3950000
0.548814	-0.190344	0.788079	0.005020	-0.004393	0.029181	-0.817261	-0.182373	-0.889282	1045	16_15_11_4030000
0.548814	-0.190558	0.788079	0.019768	-0.003138	0.048949	-0.817261	-0.182251	-0.889160	1046	16_15_11_4110000
0.548601	-0.190558	0.788079	0.015061	0.000314	0.055538	-0.817383	-0.182007	-0.889160	1047	16_15_11_4190000
0.548601	-0.190771	0.788293	0.034515	0.012237	0.071227	-0.817383	-0.181763	-0.889160	1048	16_15_11_4270000
0.548387	-0.190771	0.788293	0.044242	0.009413	0.070286	-0.817505	-0.181641	-0.889160	1049	16_15_11_4350000
0.548173	-0.190771	0.788507	0.034515	0.021964	0.071854	-0.817383	-0.181396	-0.889160	1050	16_15_11_4430000
0.547960	-0.190771	0.788507	0.061186	0.030436	0.088798	-0.817383	-0.181274	-0.889282	1051	16_15_11_4510000
0.547533	-0.190771	0.788720	0.063069	0.024161	0.088171	-0.817261	-0.181152	-0.889404	1052	16_15_11_4590000
0.547319	-0.190771	0.788934	0.067775	0.033888	0.084092	-0.817261	-0.181030	-0.889404	1053	16_15_11_4670000
0.546892	-0.190771	0.789361	0.050832	0.034829	0.072796	-0.817139	-0.181030	-0.889526	1054	16_15_11_4750000
0.546678	-0.190985	0.789361	0.005020	0.017885	0.063696	-0.817017	-0.180786	-0.889648	1055	16_15_11_4830000
0.546678	-0.191198	0.789575	-0.023533	0.005020	0.050204	-0.817017	-0.180420	-0.889771	1056	16_15_11_4910000
0.546464	-0.191412	0.789575	-0.009099	0.000628	0.038281	-0.817017	-0.179932	-0.889771	1057	16_15_11_4990000
0.546464	-0.191626	0.789575	0.019140	-0.000941	0.040477	-0.817139	-0.179810	-0.889771	1058	16_15_11_5070000
0.546464	-0.191626	0.789575	0.060872	-0.001569	0.040791	-0.817139	-0.179810	-0.889648	1059	16_15_11_5150000
0.546251	-0.191198	0.789575	0.085660	0.003138	0.037339	-0.817261	-0.180054	-0.889526	1060	16_15_11_5230000
0.546251	-0.190985	0.789788	0.051773	0.006903	0.041732	-0.817261	-0.180298	-0.889526	1061	16_15_11_5310000
0.546037	-0.190985	0.789788	0.038281	0.009099	0.023219	-0.817261	-0.180420	-0.889526	1062	16_15_11_5390000
0.546037	-0.190771	0.790002	0.010355	0.006589	0.026671	-0.817261	-0.180420	-0.889526	1063	16_15_11_5470000
0.546037	-0.190985	0.790002	-0.009099	0.018826	0.020082	-0.817139	-0.180298	-0.889526	1064	16_15_11_5550000
0.545824	-0.191198	0.790002	-0.014120	0.004393	-0.001883	-0.817139	-0.180176	-0.889648	1065	16_15_11_5630000
0.545824	-0.191198	0.790002	-0.007531	0.003765	-0.015375	-0.817017	-0.180176	-0.889648	1066	16_15_11_5710000
0.545824	-0.191198	0.790002	-0.035143	0.005962	-0.007844	-0.817017	-0.180176	-0.889648	1067	16_15_11_5790000
0.545824	-0.191412	0.790002	-0.037653	0.013806	-0.005020	-0.816895	-0.179932	-0.889771	1068	16_15_11_5870000
0.545824	-0.191626	0.790002	-0.015689	0.019140	0.003138	-0.816772	-0.179810	-0.889893	1069	16_15_11_5950000
0.545610	-0.191626	0.790002	0.001569	0.012551	-0.011296	-0.816650	-0.179810	-0.890015	1070	16_15_11_6030000
0.545610	-0.191412	0.790216	0.000314	0.019140	-0.007844	-0.816528	-0.179810	-0.890137	1071	16_15_11_6110000
0.545396	-0.191412	0.790216	0.003765	0.022906	-0.016003	-0.816406	-0.179932	-0.890259	1072	16_15_11_6190000
0.545396	-0.191412	0.790216	-0.026985	0.004707	-0.011610	-0.816284	-0.179932	-0.890381	1073	16_15_11_6270000
0.545396	-0.191626	0.790216	-0.012865	-0.002824	-0.000314	-0.816284	-0.179932	-0.890381	1074	16_15_11_6350000
0.545396	-0.191626	0.790216	-0.009727	0.012865	-0.008472	-0.816284	-0.179810	-0.890381	1075	16_15_11_6430000
0.545396	-0.191626	0.790216	-0.025416	0.013179	-0.003138	-0.816162	-0.179810	-0.890503	1076	16_15_11_6510000
0.545396	-0.191626	0.790216	-0.001883	0.003765	-0.008786	-0.816040	-0.179688	-0.890503	1077	16_15_11_6590000
0.545183	-0.191839	0.790216	-0.041732	0.008472	-0.010355	-0.816040	-0.179688	-0.890625	1078	16_15_11_6670000
0.545183	-0.192053	0.790216	-0.038281	0.013806	-0.000314	-0.815918	-0.179443	-0.890747	1079	16_15_11_6750000
0.545183	-0.192267	0.790216	-0.027612	0.015061	0.000314	-0.815796	-0.179199	-0.890869	1080	16_15_11_6830000
0.544969	-0.192267	0.790216	-0.021650	0.021023	0.000314	-0.815674	-0.179077	-0.890991	1081	16_15_11_6910000
0.544969	-0.192267	0.790429	0.019140	0.022592	0.015375	-0.815552	-0.178955	-0.891113	1082	16_15_11_6990000
0.544755	-0.192267	0.790429	-0.003765	0.032633	0.017571	-0.815430	-0.178955	-0.891235	1083	16_15_11_7070000
0.544542	-0.192480	0.790643	-0.018513	0.032946	0.028240	-0.815186	-0.178711	-0.891479	1084	16_15_11_7150000
0.544328	-0.192694	0.790643	0.005020	0.038594	0.026671	-0.814941	-0.178589	-0.891724	1085	16_15_11_7230000
0.543901	-0.192694	0.790857	0.006589	0.032946	0.042673	-0.814819	-0.178345	-0.891968	1086	16_15_11_7310000
0.543687	-0.192907	0.791070	-0.017258	0.032633	0.043301	-0.814575	-0.178101	-0.892090	1087	16_15_11_7390000
0.543474	-0.193121	0.791070	0.019768	0.031691	0.041104	-0.814453	-0.177856	-0.892334	1088	16_15_11_7470000
0.543260	-0.193121	0.791284	0.040477	0.015061	0.045811	-0.814331	-0.177734	-0.892456	1089	16_15_11_7550000
0.543046	-0.193121	0.791498	0.013806	0.032633	0.052087	-0.814209	-0.177612	-0.892578	1090	16_15_11_7630000
0.542833	-0.193335	0.791498	0.011610	0.042046	0.063382	-0.814087	-0.177368	-0.892700	1091	16_15_11_7710000
0.542405	-0.193335	0.791711	0.018199	0.027926	0.064010	-0.813965	-0.177124	-0.892944	1092	16_15_11_7790000
0.542192	-0.193548	0.791925	0.029181	0.035770	0.072796	-0.813843	-0.176880	-0.893066	1093	16_15_11_7870000
0.541978	-0.193762	0.792138	0.028867	0.027926	0.078757	-0.813721	-0.176636	-0.893188	1094	16_15_11_7950000
0.541551	-0.193762	0.792352	0.049263	0.019768	0.067148	-0.813599	-0.176392	-0.893311	1095	16_15_11_8030000
0.541337	-0.193548	0.792352	0.073110	0.021650	0.061500	-0.813599	-0.176514	-0.893311	1096	16_15_11_8110000
0.541124	-0.193548	0.792566	0.049890	0.019454	0.055224	-0.813477	-0.176514	-0.893433	1097	16_15_11_8190000
0.540910	-0.193335	0.792779	0.071541	0.021023	0.034515	-0.813477	-0.176636	-0.893433	1098	16_15_11_8270000
0.540696	-0.192907	0.792993	0.061814	0.018513	0.028240	-0.813354	-0.177002	-0.893433	1099	16_15_11_8350000
0.540696	-0.192907	0.793207	0.045497	0.015689	0.030750	-0.813232	-0.177124	-0.893433	1100	16_15_11_8430000
0.540483	-0.192694	0.793207	0.032319	0.021337	0.038281	-0.813110	-0.177246	-0.893555	1101	16_15_11_8510000
0.540269	-0.192907	0.793420	0.002196	0.027298	0.033888	-0.812988	-0.177124	-0.893677	1102	16_15_11_8590000
0.540056	-0.192907	0.793420	0.002196	0.031064	0.037653	-0.812866	-0.176880	-0.893799	1103	16_15_11_8670000
0.539842	-0.193121	0.793634	0.005334	0.026671	0.032633	-0.812744	-0.176758	-0.893921	1104	16_15_11_8750000
0.539628	-0.193121	0.793634	-0.000941	0.025102	0.016003	-0.812622	-0.176636	-0.894165	1105	16_15_11_8830000
0.539415	-0.193121	0.793847	0.009727	0.037653	0.012237	-0.812378	-0.176514	-0.894287	1106	16_15_11_8910000
0.539201	-0.193335	0.794061	-0.005648	0.034201	0.001569	-0.812134	-0.176514	-0.894531	1107	16_15_11_8990000
0.538987	-0.193335	0.794061	0.005020	0.046125	0.000000	-0.811890	-0.176514	-0.894775	1108	16_15_11_9070000
0.538774	-0.193121	0.794275	0.001569	0.032633	-0.002510	-0.811646	-0.176636	-0.895020	1109	16_15_11_9150000
0.538560	-0.193335	0.794488	-0.035457	0.026671	0.002196	-0.811401	-0.176514	-0.895142	1110	16_15_11_9230000
0.538347	-0.193548	0.794488	-0.029181	0.029181	0.008786	-0.811157	-0.176270	-0.895386	1111	16_15_11_9310000
0.538347	-0.193762	0.794488	-0.046752	0.037967	-0.005962	-0.811035	-0.176025	-0.895630	1112	16_15_11_9390000
0.538133	-0.193976	0.794702	-0.058990	0.034829	-0.001569	-0.810669	-0.175659	-0.895996	1113	16_15_11_9470000
0.537919	-0.194403	0.794702	-0.045811	0.029181	0.001255	-0.810547	-0.175293	-0.896240	1114	16_15_11_9550000
0.537706	-0.194617	0.794702	-0.037025	0.016316	0.002510	-0.810303	-0.175049	-0.896362	1115	16_15_11_9630000
