sensor_ID	2795
Accel_X	Accel_Y	Accel_Z	Roll	Pitch	Yaw	Mag_X	Mag_Y	Mag_Z	Count	SysTime
0.977569	-0.032472	-0.173894	-0.010041	-0.026043	0.002510	-1.159058	0.134033	-0.124390	0	16_15_03_0430000
0.977569	-0.032472	-0.174108	-0.007217	-0.015375	0.000000	-1.159058	0.134155	-0.124146	1	16_15_03_0510000
0.977569	-0.032472	-0.174322	-0.002196	-0.003452	-0.001883	-1.159058	0.134033	-0.124023	2	16_15_03_0590000
0.977569	-0.032472	-0.174322	-0.006903	-0.001255	0.001883	-1.159058	0.134033	-0.124023	3	16_15_03_0670000
0.977569	-0.032472	-0.174322	-0.017258	-0.021337	0.003138	-1.159180	0.134033	-0.123901	4	16_15_03_0750000
0.977569	-0.032472	-0.174535	-0.014747	-0.012865	0.010041	-1.159180	0.134155	-0.123657	5	16_15_03_0830000
0.977569	-0.032472	-0.174749	-0.022592	-0.025102	-0.006275	-1.159180	0.134155	-0.123535	6	16_15_03_0910000
0.977355	-0.032472	-0.174963	-0.015689	-0.040163	-0.004707	-1.159180	0.134155	-0.123169	7	16_15_03_0990000
0.977355	-0.032472	-0.175390	-0.011296	-0.048321	0.000000	-1.159302	0.134155	-0.122803	8	16_15_03_1070000
0.977355	-0.032472	-0.175604	-0.007844	-0.041732	0.003452	-1.159302	0.134155	-0.122314	9	16_15_03_1150000
0.977355	-0.032472	-0.176031	-0.018199	-0.053655	0.002196	-1.159302	0.134155	-0.121826	10	16_15_03_1230000
0.977142	-0.032472	-0.176458	-0.014120	-0.066834	-0.000628	-1.159424	0.134155	-0.121338	11	16_15_03_1310000
0.977142	-0.032472	-0.177099	0.007217	-0.057107	0.001883	-1.159424	0.134155	-0.120728	12	16_15_03_1390000
0.976928	-0.032472	-0.177526	-0.015375	-0.047694	-0.001255	-1.159546	0.134155	-0.120239	13	16_15_03_1470000
0.976928	-0.032258	-0.177953	0.002510	-0.048008	-0.010355	-1.159546	0.134033	-0.119751	14	16_15_03_1550000
0.976928	-0.032258	-0.178167	-0.010041	-0.038281	-0.004079	-1.159546	0.134033	-0.119385	15	16_15_03_1630000
0.976928	-0.032258	-0.178381	0.001569	-0.028553	0.000941	-1.159668	0.133911	-0.119019	16	16_15_03_1710000
0.976714	-0.032258	-0.178808	-0.019454	-0.037967	0.011296	-1.159668	0.134033	-0.118652	17	16_15_03_1790000
0.976714	-0.032258	-0.179022	-0.027298	-0.025730	-0.010355	-1.159668	0.134033	-0.118408	18	16_15_03_1870000
0.976714	-0.032258	-0.179235	-0.014120	-0.026357	-0.008158	-1.159668	0.133911	-0.118164	19	16_15_03_1950000
0.976714	-0.032258	-0.179449	-0.016630	-0.030122	0.001255	-1.159790	0.133911	-0.117798	20	16_15_03_2030000
0.976501	-0.032044	-0.179662	-0.010041	-0.021650	-0.004393	-1.159790	0.133911	-0.117554	21	16_15_03_2110000
0.976501	-0.032044	-0.179876	-0.003765	-0.023533	0.000314	-1.159790	0.133911	-0.117310	22	16_15_03_2190000
0.976501	-0.032044	-0.180090	-0.027612	-0.018513	-0.004393	-1.159790	0.133789	-0.117065	23	16_15_03_2270000
0.976501	-0.032044	-0.180303	-0.017258	-0.017258	0.004079	-1.159790	0.133789	-0.116943	24	16_15_03_2350000
0.976501	-0.032044	-0.180303	-0.017885	-0.017571	0.006589	-1.159912	0.133911	-0.116699	25	16_15_03_2430000
0.976501	-0.032044	-0.180517	-0.009727	-0.013492	0.004393	-1.159912	0.133911	-0.116577	26	16_15_03_2510000
0.976501	-0.032044	-0.180731	-0.008786	-0.013179	0.002510	-1.159912	0.133911	-0.116455	27	16_15_03_2590000
0.976501	-0.032044	-0.180731	0.002510	-0.013806	0.003452	-1.159912	0.134033	-0.116333	28	16_15_03_2670000
0.976287	-0.032258	-0.180944	-0.011923	-0.027926	0.007531	-1.159912	0.134033	-0.116089	29	16_15_03_2750000
0.976287	-0.032258	-0.181158	-0.015061	-0.032946	-0.009727	-1.159912	0.134033	-0.115723	30	16_15_03_2830000
0.976287	-0.032258	-0.181585	-0.010355	-0.041104	0.010355	-1.160034	0.134033	-0.115479	31	16_15_03_2910000
0.976287	-0.032258	-0.181799	-0.020082	-0.017258	0.022592	-1.160034	0.134155	-0.115112	32	16_15_03_2990000
0.976074	-0.032258	-0.181799	-0.021337	-0.019454	-0.001569	-1.160034	0.134277	-0.114868	33	16_15_03_3070000
0.976074	-0.032258	-0.182012	-0.005020	-0.018513	-0.002824	-1.160034	0.134277	-0.114746	34	16_15_03_3150000
0.976074	-0.032258	-0.182226	0.006589	-0.014120	-0.001883	-1.160034	0.134155	-0.114624	35	16_15_03_3230000
0.976074	-0.032258	-0.182440	0.001883	-0.019140	0.003452	-1.160034	0.134155	-0.114380	36	16_15_03_3310000
0.976074	-0.032258	-0.182440	-0.014747	-0.013806	-0.004707	-1.160034	0.134155	-0.114258	37	16_15_03_3390000
0.976074	-0.032258	-0.182653	-0.010355	-0.021023	0.004393	-1.160034	0.134155	-0.114014	38	16_15_03_3470000
0.976074	-0.032258	-0.182867	-0.006903	-0.029181	-0.006275	-1.160156	0.134155	-0.113770	39	16_15_03_3550000
0.976074	-0.032258	-0.183081	-0.001569	-0.021337	-0.003765	-1.160156	0.134033	-0.113525	40	16_15_03_3630000
0.975860	-0.032258	-0.183294	-0.003452	-0.027612	-0.004079	-1.160156	0.134033	-0.113281	41	16_15_03_3710000
0.975860	-0.032258	-0.183508	0.005334	-0.032946	-0.005962	-1.160156	0.134033	-0.113037	42	16_15_03_3790000
0.975860	-0.032044	-0.183721	0.014434	-0.030750	-0.014434	-1.160278	0.133911	-0.112793	43	16_15_03_3870000
0.975860	-0.032044	-0.183935	0.006275	-0.021964	-0.004393	-1.160278	0.133789	-0.112549	44	16_15_03_3950000
0.975860	-0.032044	-0.184149	-0.014747	-0.013179	0.002510	-1.160278	0.133789	-0.112305	45	16_15_03_4030000
0.975860	-0.032044	-0.184149	-0.029809	-0.010355	-0.010355	-1.160278	0.133667	-0.112183	46	16_15_03_4110000
0.975646	-0.031831	-0.184362	-0.003452	-0.012551	-0.008158	-1.160400	0.133667	-0.112061	47	16_15_03_4190000
0.975646	-0.031831	-0.184362	-0.004079	-0.008786	-0.006589	-1.160400	0.133545	-0.111938	48	16_15_03_4270000
0.975646	-0.031831	-0.184576	-0.006589	-0.010355	-0.008158	-1.160400	0.133423	-0.111816	49	16_15_03_4350000
0.975646	-0.031831	-0.184576	-0.020082	-0.022278	0.000314	-1.160400	0.133423	-0.111694	50	16_15_03_4430000
0.975646	-0.031831	-0.184790	-0.001255	-0.015375	0.005648	-1.160400	0.133423	-0.111450	51	16_15_03_4510000
0.975646	-0.031831	-0.185003	-0.021337	-0.017885	0.004707	-1.160400	0.133545	-0.111328	52	16_15_03_4590000
0.975646	-0.031831	-0.185217	-0.015061	-0.022278	-0.005962	-1.160522	0.133423	-0.111084	53	16_15_03_4670000
0.975646	-0.031617	-0.185217	-0.007217	-0.009727	-0.005962	-1.160522	0.133423	-0.110962	54	16_15_03_4750000
0.975646	-0.031617	-0.185430	-0.000314	-0.025730	-0.000941	-1.160522	0.133423	-0.110718	55	16_15_03_4830000
0.975433	-0.031617	-0.185644	-0.008472	-0.022592	-0.007844	-1.160522	0.133301	-0.110474	56	16_15_03_4910000
0.975433	-0.031617	-0.185858	-0.012551	-0.015061	-0.005020	-1.160522	0.133301	-0.110352	57	16_15_03_4990000
0.975433	-0.031617	-0.186071	-0.005020	-0.015375	-0.010355	-1.160645	0.133179	-0.110107	58	16_15_03_5070000
0.975433	-0.031404	-0.186071	-0.000628	-0.019768	0.002510	-1.160645	0.133179	-0.109985	59	16_15_03_5150000
0.975433	-0.031404	-0.186285	-0.009099	-0.015375	0.000941	-1.160645	0.133179	-0.109741	60	16_15_03_5230000
0.975433	-0.031404	-0.186499	-0.000314	-0.012237	-0.012551	-1.160645	0.133057	-0.109619	61	16_15_03_5310000
0.975433	-0.031404	-0.186499	-0.003765	-0.006275	-0.001883	-1.160645	0.132935	-0.109497	62	16_15_03_5390000
0.975433	-0.031404	-0.186499	-0.007217	-0.005334	0.006589	-1.160645	0.133057	-0.109497	63	16_15_03_5470000
0.975219	-0.031404	-0.186712	-0.003138	-0.010355	0.008786	-1.160645	0.133057	-0.109375	64	16_15_03_5550000
0.975219	-0.031617	-0.186712	-0.021023	0.005648	0.004079	-1.160645	0.133057	-0.109375	65	16_15_03_5630000
0.975219	-0.031404	-0.186712	-0.018826	0.006903	-0.002824	-1.160645	0.133179	-0.109375	66	16_15_03_5710000
0.975219	-0.031404	-0.186712	-0.022278	0.003765	-0.008786	-1.160645	0.133057	-0.109375	67	16_15_03_5790000
0.975219	-0.031404	-0.186712	-0.010982	-0.019768	0.004707	-1.160645	0.133057	-0.109253	68	16_15_03_5870000
0.975219	-0.031404	-0.186926	-0.013806	-0.044556	0.009727	-1.160767	0.133057	-0.109009	69	16_15_03_5950000
0.975219	-0.031404	-0.187353	-0.027298	-0.057107	0.008472	-1.160767	0.133179	-0.108521	70	16_15_03_6030000
0.975005	-0.031404	-0.187780	-0.021650	-0.059303	0.000000	-1.160767	0.133301	-0.107910	71	16_15_03_6110000
0.975005	-0.031404	-0.188208	-0.021023	-0.061500	-0.004079	-1.160889	0.133179	-0.107300	72	16_15_03_6190000
0.975005	-0.031404	-0.188849	-0.007844	-0.067775	-0.000941	-1.160889	0.133179	-0.106689	73	16_15_03_6270000
0.974792	-0.031404	-0.189276	-0.013179	-0.062441	0.001883	-1.161011	0.133179	-0.106079	74	16_15_03_6350000
0.974792	-0.031404	-0.189703	-0.008472	-0.031064	0.001569	-1.161011	0.133179	-0.105591	75	16_15_03_6430000
0.974792	-0.031404	-0.189917	-0.005648	-0.010355	-0.013179	-1.161011	0.133179	-0.105469	76	16_15_03_6510000
0.974792	-0.031190	-0.189917	-0.008472	0.000000	-0.004079	-1.161011	0.133057	-0.105347	77	16_15_03_6590000
0.974792	-0.031190	-0.189917	0.000314	0.009099	0.004707	-1.161011	0.133057	-0.105347	78	16_15_03_6670000
0.974792	-0.031190	-0.189917	-0.004079	-0.002196	-0.010982	-1.161133	0.133057	-0.105469	79	16_15_03_6750000
0.974792	-0.031190	-0.189917	0.008786	-0.005962	-0.005962	-1.161133	0.132935	-0.105347	80	16_15_03_6830000
0.974578	-0.031190	-0.190130	0.000314	-0.010668	-0.002196	-1.161133	0.132813	-0.105225	81	16_15_03_6910000
0.974578	-0.031190	-0.190130	0.012237	-0.023847	-0.004079	-1.161133	0.132813	-0.105103	82	16_15_03_6990000
0.974578	-0.031190	-0.190558	0.001569	-0.041418	-0.007217	-1.161133	0.132690	-0.104858	83	16_15_03_7070000
0.974578	-0.031190	-0.190771	-0.004393	-0.047694	-0.006903	-1.161255	0.132690	-0.104370	84	16_15_03_7150000
0.974578	-0.031190	-0.191198	-0.001569	-0.028240	0.005334	-1.161255	0.132690	-0.104004	85	16_15_03_7230000
0.974364	-0.031190	-0.191412	-0.000314	-0.028240	-0.005962	-1.161255	0.132690	-0.103760	86	16_15_03_7310000
0.974364	-0.030976	-0.191626	-0.005648	-0.025416	-0.005020	-1.161255	0.132568	-0.103516	87	16_15_03_7390000
0.974364	-0.030976	-0.191839	-0.002510	-0.024161	-0.002824	-1.161377	0.132568	-0.103271	88	16_15_03_7470000
0.974364	-0.030976	-0.192053	-0.026671	-0.022906	-0.008786	-1.161377	0.132446	-0.103027	89	16_15_03_7550000
0.974364	-0.030976	-0.192267	-0.018199	-0.016316	0.003452	-1.161377	0.132446	-0.102783	90	16_15_03_7630000
0.974151	-0.030976	-0.192267	-0.015061	-0.018513	0.005962	-1.161377	0.132446	-0.102661	91	16_15_03_7710000
0.974151	-0.030976	-0.192480	-0.004393	-0.010982	0.004393	-1.161377	0.132568	-0.102539	92	16_15_03_7790000
0.974151	-0.030976	-0.192480	0.005962	0.002510	0.000314	-1.161377	0.132568	-0.102417	93	16_15_03_7870000
0.974151	-0.030976	-0.192480	-0.008158	-0.001883	0.001883	-1.161377	0.132568	-0.102417	94	16_15_03_7950000
0.974151	-0.030976	-0.192480	0.002824	0.008158	-0.001883	-1.161377	0.132568	-0.102417	95	16_15_03_8030000
0.974151	-0.030976	-0.192480	0.008158	0.010355	0.004079	-1.161377	0.132446	-0.102539	96	16_15_03_8110000
0.974151	-0.030976	-0.192480	0.018513	0.007217	-0.014120	-1.161377	0.132446	-0.102539	97	16_15_03_8190000
0.974151	-0.030976	-0.192267	0.018513	0.005334	-0.009099	-1.161377	0.132324	-0.102661	98	16_15_03_8270000
0.974151	-0.030976	-0.192480	0.005334	-0.002196	-0.001255	-1.161377	0.132202	-0.102661	99	16_15_03_8350000
0.974151	-0.030976	-0.192480	-0.003138	-0.008786	-0.002824	-1.161499	0.132202	-0.102661	100	16_15_03_8430000
0.974151	-0.030976	-0.192480	-0.005334	-0.012237	-0.005334	-1.161499	0.132202	-0.102539	101	16_15_03_8510000
0.974151	-0.030976	-0.192694	-0.015061	-0.008786	0.007844	-1.161499	0.132202	-0.102417	102	16_15_03_8590000
0.974151	-0.030976	-0.192694	-0.012551	-0.015061	0.010041	-1.161499	0.132202	-0.102295	103	16_15_03_8670000
0.974151	-0.030976	-0.192907	0.004393	-0.009727	0.010041	-1.161499	0.132324	-0.102051	104	16_15_03_8750000
0.974151	-0.030976	-0.192907	-0.010982	0.003452	-0.004079	-1.161499	0.132324	-0.102051	105	16_15_03_8830000
0.974151	-0.030976	-0.192907	-0.011296	0.002196	0.000314	-1.161499	0.132324	-0.102051	106	16_15_03_8910000
0.974151	-0.030976	-0.192907	-0.004393	-0.010668	0.002824	-1.161499	0.132324	-0.102051	107	16_15_03_8990000
0.974151	-0.030976	-0.192907	-0.009099	0.000314	-0.012551	-1.161499	0.132202	-0.101929	108	16_15_03_9070000
0.974151	-0.030976	-0.193121	-0.008472	-0.000314	0.001883	-1.161499	0.132202	-0.101929	109	16_15_03_9150000
0.974151	-0.030976	-0.192907	0.001569	0.012237	0.006275	-1.161499	0.132202	-0.101929	110	16_15_03_9230000
0.974151	-0.031190	-0.192907	-0.005962	-0.002196	0.012865	-1.161499	0.132324	-0.101929	111	16_15_03_9310000
0.974151	-0.031190	-0.193121	-0.020709	-0.008786	0.000000	-1.161499	0.132324	-0.101929	112	16_15_03_9390000
0.974151	-0.031190	-0.193121	-0.011296	-0.017258	-0.003452	-1.161499	0.132324	-0.101807	113	16_15_03_9470000
0.974151	-0.030976	-0.193335	-0.003765	-0.013179	-0.009413	-1.161499	0.132324	-0.101563	114	16_15_03_9550000
0.974151	-0.030976	-0.193335	-0.007844	-0.009727	-0.016944	-1.161499	0.132202	-0.101440	115	16_15_03_9630000
0.973937	-0.030976	-0.193548	0.007844	-0.001883	0.003138	-1.161621	0.132080	-0.101440	116	16_15_03_9710000
0.973937	-0.030976	-0.193548	0.003138	-0.015375	0.004393	-1.161621	0.132080	-0.101318	117	16_15_03_9790000
0.973937	-0.030976	-0.193548	0.000000	-0.009727	0.007217	-1.161621	0.132080	-0.101196	118	16_15_03_9870000
0.973937	-0.030976	-0.193762	-0.010355	0.003765	-0.007217	-1.161621	0.132080	-0.101196	119	16_15_03_9950000
0.973937	-0.030976	-0.193762	-0.010355	0.006589	0.005334	-1.161621	0.132080	-0.101196	120	16_15_04_0030000
0.973937	-0.030976	-0.193762	-0.012237	-0.009413	0.005334	-1.161621	0.132202	-0.101196	121	16_15_04_0110000
0.973937	-0.030976	-0.193762	-0.002196	-0.010041	-0.004079	-1.161621	0.132202	-0.101074	122	16_15_04_0190000
0.973937	-0.030976	-0.193762	-0.005334	-0.008786	0.002196	-1.161621	0.132080	-0.100952	123	16_15_04_0270000
0.973937	-0.030976	-0.193976	-0.012865	-0.004393	0.003765	-1.161621	0.132202	-0.100830	124	16_15_04_0350000
0.973937	-0.030976	-0.193976	-0.022906	-0.000941	0.004079	-1.161621	0.132202	-0.100830	125	16_15_04_0430000
0.973937	-0.030976	-0.193976	-0.014120	0.000314	-0.000314	-1.161621	0.132202	-0.100708	126	16_15_04_0510000
0.973937	-0.030976	-0.193976	-0.001883	-0.015375	0.000000	-1.161621	0.132202	-0.100708	127	16_15_04_0590000
0.973937	-0.030976	-0.194189	-0.018199	0.003452	-0.015375	-1.161621	0.132080	-0.100586	128	16_15_04_0670000
0.973937	-0.030763	-0.194189	-0.008472	-0.000628	-0.004707	-1.161621	0.132080	-0.100586	129	16_15_04_0750000
0.973937	-0.030763	-0.194189	-0.008472	0.005648	-0.001255	-1.161621	0.131958	-0.100586	130	16_15_04_0830000
0.973937	-0.030763	-0.194189	-0.005648	-0.000941	-0.005648	-1.161621	0.131958	-0.100586	131	16_15_04_0910000
0.973937	-0.030763	-0.194189	-0.012237	0.006589	0.001883	-1.161621	0.131958	-0.100586	132	16_15_04_0990000
0.973937	-0.030763	-0.194189	-0.004393	-0.008158	-0.005020	-1.161621	0.131836	-0.100586	133	16_15_04_1070000
0.973937	-0.030763	-0.194189	0.013806	-0.012237	0.003138	-1.161743	0.131836	-0.100464	134	16_15_04_1150000
0.973937	-0.030763	-0.194403	-0.006275	0.000000	0.009413	-1.161743	0.131958	-0.100342	135	16_15_04_1230000
0.973937	-0.030976	-0.194403	0.007531	0.002824	0.008786	-1.161621	0.131958	-0.100342	136	16_15_04_1310000
0.973937	-0.030976	-0.194189	-0.007844	0.017885	0.005648	-1.161621	0.132080	-0.100464	137	16_15_04_1390000
0.973937	-0.030976	-0.194189	-0.001569	0.016630	0.009413	-1.161621	0.132080	-0.100586	138	16_15_04_1470000
0.973937	-0.030976	-0.193976	0.002196	0.017885	0.002196	-1.161621	0.132080	-0.100708	139	16_15_04_1550000
0.973937	-0.030976	-0.193976	-0.022906	0.008158	-0.004079	-1.161621	0.132080	-0.100830	140	16_15_04_1630000
0.973937	-0.030976	-0.193976	-0.004393	-0.008786	-0.004707	-1.161621	0.132080	-0.100830	141	16_15_04_1710000
0.973937	-0.030976	-0.194189	-0.002510	-0.028240	-0.003765	-1.161621	0.132080	-0.100586	142	16_15_04_1790000
0.973937	-0.030976	-0.194403	-0.002510	-0.039849	0.000000	-1.161743	0.131958	-0.100342	143	16_15_04_1870000
0.973724	-0.030976	-0.194830	-0.006275	-0.063069	-0.009727	-1.161743	0.131958	-0.099854	144	16_15_04_1950000
0.973724	-0.030763	-0.195257	-0.017258	-0.053655	-0.000941	-1.161743	0.131836	-0.099243	145	16_15_04_2030000
0.973724	-0.030763	-0.195685	-0.029809	-0.026357	-0.001883	-1.161865	0.131836	-0.098877	146	16_15_04_2110000
0.973510	-0.030763	-0.195898	-0.008786	-0.027298	-0.001255	-1.161865	0.131836	-0.098633	147	16_15_04_2190000
0.973510	-0.030763	-0.195898	-0.008472	-0.005020	-0.009727	-1.161865	0.131836	-0.098389	148	16_15_04_2270000
0.973510	-0.030763	-0.195898	-0.009727	0.002824	-0.004079	-1.161865	0.131714	-0.098389	149	16_15_04_2350000
0.973510	-0.030763	-0.195898	-0.004393	0.008786	0.006589	-1.161865	0.131714	-0.098389	150	16_15_04_2430000
0.973510	-0.030763	-0.195898	-0.020082	0.020082	-0.006589	-1.161865	0.131714	-0.098511	151	16_15_04_2510000
0.973510	-0.030763	-0.195898	0.000628	0.003138	0.003452	-1.161865	0.131714	-0.098633	152	16_15_04_2590000
0.973510	-0.030763	-0.195898	-0.000314	-0.006589	-0.004079	-1.161865	0.131714	-0.098633	153	16_15_04_2670000
0.973510	-0.030549	-0.195898	0.008472	-0.017258	0.000314	-1.161865	0.131714	-0.098511	154	16_15_04_2750000
0.973510	-0.030763	-0.196112	0.002824	-0.035457	-0.000314	-1.161865	0.131592	-0.098267	155	16_15_04_2830000
0.973510	-0.030763	-0.196539	-0.005334	-0.040477	0.004079	-1.161987	0.131714	-0.097900	156	16_15_04_2910000
0.973510	-0.030763	-0.196753	-0.010668	-0.036084	0.008786	-1.161987	0.131714	-0.097534	157	16_15_04_2990000
0.973296	-0.030763	-0.197180	-0.004079	-0.048321	-0.012551	-1.161987	0.131714	-0.097046	158	16_15_04_3070000
0.973296	-0.030763	-0.197394	-0.005020	-0.032946	0.004079	-1.162109	0.131592	-0.096680	159	16_15_04_3150000
0.973296	-0.030763	-0.197607	-0.012551	-0.020082	0.003452	-1.162109	0.131714	-0.096436	160	16_15_04_3230000
0.973296	-0.030763	-0.197821	-0.013179	-0.026043	0.002196	-1.162109	0.131714	-0.096191	161	16_15_04_3310000
0.973083	-0.030763	-0.198035	-0.009413	-0.005334	-0.010668	-1.162109	0.131592	-0.096069	162	16_15_04_3390000
0.973083	-0.030549	-0.198035	-0.016003	-0.006589	-0.015061	-1.162109	0.131470	-0.095947	163	16_15_04_3470000
0.973083	-0.030549	-0.198035	-0.029809	0.000314	0.008158	-1.162109	0.131470	-0.095947	164	16_15_04_3550000
0.973083	-0.030549	-0.198035	-0.016003	0.012237	-0.004393	-1.162109	0.131470	-0.095947	165	16_15_04_3630000
0.973083	-0.030549	-0.198035	-0.012551	0.013492	0.000314	-1.162109	0.131470	-0.096069	166	16_15_04_3710000
0.973296	-0.030335	-0.197821	-0.012237	0.023847	-0.007217	-1.162109	0.131470	-0.096191	167	16_15_04_3790000
0.973296	-0.030335	-0.197821	-0.007531	0.023219	0.001569	-1.162109	0.131470	-0.096313	168	16_15_04_3870000
0.973296	-0.030335	-0.197607	-0.010355	0.011923	0.005962	-1.162109	0.131470	-0.096436	169	16_15_04_3950000
0.973296	-0.030549	-0.197607	-0.006589	0.019140	0.008158	-1.162109	0.131470	-0.096558	170	16_15_04_4030000
0.973296	-0.030549	-0.197394	-0.005648	0.010982	-0.000628	-1.162109	0.131592	-0.096680	171	16_15_04_4110000
0.973296	-0.030549	-0.197394	0.008158	0.012237	-0.002196	-1.162109	0.131470	-0.096802	172	16_15_04_4190000
0.973296	-0.030549	-0.197394	-0.011923	0.004393	-0.000941	-1.162109	0.131470	-0.096924	173	16_15_04_4270000
0.973296	-0.030549	-0.197394	-0.004707	-0.010668	-0.006275	-1.162109	0.131470	-0.096802	174	16_15_04_4350000
0.973296	-0.030335	-0.197394	0.008472	-0.011923	-0.002510	-1.162109	0.131348	-0.096680	175	16_15_04_4430000
0.973296	-0.030335	-0.197607	-0.001255	-0.003452	-0.002196	-1.162109	0.131348	-0.096680	176	16_15_04_4510000
0.973296	-0.030549	-0.197607	0.002196	-0.006589	0.021650	-1.162109	0.131470	-0.096558	177	16_15_04_4590000
0.973296	-0.030549	-0.197607	-0.010041	0.013492	0.004079	-1.162109	0.131470	-0.096558	178	16_15_04_4670000
0.973296	-0.030549	-0.197394	-0.014747	0.021337	0.000314	-1.162109	0.131592	-0.096680	179	16_15_04_4750000
0.973296	-0.030549	-0.197394	-0.024161	0.024161	-0.000628	-1.162109	0.131592	-0.096924	180	16_15_04_4830000
0.973296	-0.030549	-0.197180	-0.014747	0.024161	-0.005334	-1.162109	0.131470	-0.097046	181	16_15_04_4910000
0.973296	-0.030549	-0.196966	-0.005334	0.016630	0.000000	-1.162109	0.131470	-0.097290	182	16_15_04_4990000
0.973510	-0.030549	-0.196966	0.001883	0.006589	-0.007217	-1.162109	0.131470	-0.097290	183	16_15_04_5070000
0.973510	-0.030335	-0.196966	0.004079	-0.006589	-0.010041	-1.162109	0.131348	-0.097290	184	16_15_04_5150000
0.973296	-0.030335	-0.196966	-0.000628	0.002510	0.001883	-1.162109	0.131348	-0.097290	185	16_15_04_5230000
0.973296	-0.030335	-0.196966	0.000628	-0.007844	0.002196	-1.162109	0.131348	-0.097290	186	16_15_04_5310000
0.973296	-0.030335	-0.197180	0.000314	-0.006275	0.002196	-1.162109	0.131348	-0.097168	187	16_15_04_5390000
0.973296	-0.030335	-0.197180	-0.010668	-0.017258	-0.008472	-1.162109	0.131226	-0.097046	188	16_15_04_5470000
0.973296	-0.030335	-0.197394	-0.000314	-0.017258	0.003138	-1.162109	0.131226	-0.096924	189	16_15_04_5550000
0.973296	-0.030335	-0.197394	-0.010982	-0.013806	0.004393	-1.162109	0.131226	-0.096680	190	16_15_04_5630000
0.973296	-0.030549	-0.197607	-0.016944	-0.011923	0.006589	-1.162109	0.131348	-0.096558	191	16_15_04_5710000
0.973296	-0.030549	-0.197607	-0.021023	-0.005334	0.004707	-1.162109	0.131348	-0.096436	192	16_15_04_5790000
0.973296	-0.030549	-0.197821	-0.020395	-0.001569	0.010668	-1.162109	0.131470	-0.096436	193	16_15_04_5870000
0.973296	-0.030549	-0.197821	-0.010982	-0.015061	0.001569	-1.162231	0.131470	-0.096313	194	16_15_04_5950000
0.973296	-0.030549	-0.197821	-0.005962	0.007531	-0.006275	-1.162231	0.131470	-0.096313	195	16_15_04_6030000
0.973296	-0.030549	-0.197821	-0.001255	-0.001255	-0.005020	-1.162231	0.131348	-0.096313	196	16_15_04_6110000
0.973296	-0.030335	-0.197821	-0.013806	0.005334	-0.011296	-1.162231	0.131348	-0.096313	197	16_15_04_6190000
0.973296	-0.030335	-0.197821	-0.001255	0.000941	-0.017258	-1.162231	0.131226	-0.096313	198	16_15_04_6270000
0.973296	-0.030122	-0.197821	-0.003138	0.002824	-0.004707	-1.162231	0.131104	-0.096313	199	16_15_04_6350000
0.973296	-0.030335	-0.197821	0.008158	0.003452	0.011923	-1.162231	0.131104	-0.096313	200	16_15_04_6430000
0.973296	-0.030335	-0.197821	0.005020	0.000000	0.000314	-1.162231	0.131104	-0.096313	201	16_15_04_6510000
0.973296	-0.030335	-0.197821	-0.009099	0.006589	0.002196	-1.162231	0.131104	-0.096313	202	16_15_04_6590000
0.973296	-0.030335	-0.197821	-0.022592	0.008158	-0.008158	-1.162231	0.131104	-0.096313	203	16_15_04_6670000
0.973296	-0.030122	-0.197821	-0.002196	0.011610	-0.012865	-1.162231	0.130981	-0.096436	204	16_15_04_6750000
0.973296	-0.030122	-0.197821	-0.003452	0.002510	0.004393	-1.162231	0.130981	-0.096436	205	16_15_04_6830000
0.973296	-0.030122	-0.197821	0.007217	0.003452	-0.004079	-1.162231	0.130981	-0.096436	206	16_15_04_6910000
0.973296	-0.030122	-0.197821	0.021650	0.001883	-0.004079	-1.162231	0.130859	-0.096558	207	16_15_04_6990000
0.973296	-0.030122	-0.197821	-0.001255	0.006589	0.007531	-1.162231	0.130859	-0.096558	208	16_15_04_7070000
0.973296	-0.030122	-0.197607	0.000941	0.010982	0.002196	-1.162231	0.130859	-0.096558	209	16_15_04_7150000
0.973296	-0.030335	-0.197607	0.010668	0.035143	0.007844	-1.162231	0.130981	-0.096802	210	16_15_04_7230000
0.973296	-0.030335	-0.197394	-0.005648	0.032005	0.004079	-1.162231	0.130981	-0.097046	211	16_15_04_7310000
0.973510	-0.030335	-0.196966	-0.012551	0.043301	0.002196	-1.162109	0.130981	-0.097412	212	16_15_04_7390000
0.973510	-0.030335	-0.196753	-0.002196	0.032005	-0.004393	-1.162109	0.130981	-0.097778	213	16_15_04_7470000
0.973510	-0.030335	-0.196753	-0.004707	0.002196	0.010355	-1.162109	0.130981	-0.097900	214	16_15_04_7550000
0.973510	-0.030335	-0.196753	0.001569	-0.011296	-0.004079	-1.162109	0.130981	-0.097778	215	16_15_04_7630000
0.973510	-0.030335	-0.196966	-0.005334	-0.039222	0.003138	-1.162109	0.130981	-0.097534	216	16_15_04_7710000
0.973296	-0.030335	-0.197180	-0.014434	-0.042987	0.006589	-1.162231	0.130981	-0.097168	217	16_15_04_7790000
0.973296	-0.030549	-0.197394	-0.005962	-0.027298	0.002510	-1.162231	0.131104	-0.096802	218	16_15_04_7870000
0.973296	-0.030549	-0.197607	-0.014434	-0.013492	0.011923	-1.162231	0.131104	-0.096680	219	16_15_04_7950000
0.973296	-0.030549	-0.197821	-0.013806	0.004393	0.004079	-1.162231	0.131226	-0.096558	220	16_15_04_8030000
0.973296	-0.030549	-0.197607	-0.000628	0.032946	0.001255	-1.162231	0.131226	-0.096680	221	16_15_04_8110000
0.973296	-0.030549	-0.197394	0.012865	0.043301	0.003138	-1.162231	0.131226	-0.097046	222	16_15_04_8190000
0.973510	-0.030549	-0.196966	0.004393	0.042360	0.005648	-1.162109	0.131226	-0.097412	223	16_15_04_8270000
0.973510	-0.030763	-0.196753	0.009727	0.037339	0.002510	-1.162109	0.131226	-0.097778	224	16_15_04_8350000
0.973510	-0.030763	-0.196539	-0.003138	0.037967	0.004393	-1.162109	0.131226	-0.098145	225	16_15_04_8430000
0.973510	-0.030763	-0.196326	0.006903	0.020082	0.008472	-1.162109	0.131348	-0.098389	226	16_15_04_8510000
0.973510	-0.030763	-0.196326	0.000000	0.011610	0.014120	-1.162109	0.131348	-0.098511	227	16_15_04_8590000
0.973510	-0.030976	-0.196112	0.014434	0.002196	-0.002510	-1.161987	0.131470	-0.098511	228	16_15_04_8670000
0.973510	-0.030976	-0.196112	-0.002510	0.004079	-0.005020	-1.162109	0.131348	-0.098633	229	16_15_04_8750000
0.973510	-0.030976	-0.196112	-0.003765	0.003765	-0.012551	-1.162109	0.131226	-0.098633	230	16_15_04_8830000
0.973510	-0.030763	-0.196112	0.000628	0.006589	-0.009099	-1.162109	0.131226	-0.098633	231	16_15_04_8910000
0.973724	-0.030763	-0.196112	-0.013806	0.022906	-0.004393	-1.162109	0.131104	-0.098755	232	16_15_04_8990000
0.973724	-0.030763	-0.195898	-0.001569	0.042360	0.000314	-1.162109	0.131104	-0.098999	233	16_15_04_9070000
0.973724	-0.030763	-0.195471	-0.001255	0.055538	-0.001883	-1.161987	0.131104	-0.099487	234	16_15_04_9150000
0.973724	-0.030763	-0.195044	0.006589	0.053969	-0.010355	-1.161987	0.130981	-0.099976	235	16_15_04_9230000
0.973937	-0.030763	-0.194617	-0.002510	0.060559	0.002824	-1.161987	0.130981	-0.100464	236	16_15_04_9310000
0.973937	-0.030763	-0.194189	0.016003	0.064638	0.004707	-1.161865	0.130981	-0.100952	237	16_15_04_9390000
0.974151	-0.030763	-0.193762	-0.004707	0.079699	0.005648	-1.161865	0.130981	-0.101685	238	16_15_04_9470000
0.974151	-0.030763	-0.193121	-0.002196	0.080640	0.014120	-1.161743	0.131104	-0.102417	239	16_15_04_9550000
0.974364	-0.030976	-0.192480	0.008472	0.082209	0.008472	-1.161743	0.131104	-0.103149	240	16_15_04_9630000
0.974364	-0.030976	-0.191839	0.010668	0.090053	0.002510	-1.161621	0.131226	-0.103882	241	16_15_04_9710000
0.974578	-0.030976	-0.191198	0.014747	0.090681	-0.003765	-1.161621	0.131104	-0.104736	242	16_15_04_9790000
0.974792	-0.030976	-0.190558	0.005962	0.090053	-0.006275	-1.161499	0.131104	-0.105469	243	16_15_04_9870000
0.974792	-0.030976	-0.189917	0.018513	0.082523	0.010355	-1.161377	0.131104	-0.106323	244	16_15_04_9950000
0.975005	-0.031190	-0.189276	0.008472	0.078444	0.000941	-1.161377	0.131104	-0.107056	245	16_15_05_0030000
0.975005	-0.031190	-0.188849	0.012237	0.071227	-0.001883	-1.161255	0.131104	-0.107666	246	16_15_05_0110000
0.975219	-0.031190	-0.188208	0.003452	0.063696	0.005962	-1.161255	0.131104	-0.108276	247	16_15_05_0190000
0.975219	-0.031190	-0.187780	-0.008158	0.057421	-0.003138	-1.161255	0.131104	-0.108887	248	16_15_05_0270000
0.975433	-0.031190	-0.187353	-0.007217	0.056166	0.001569	-1.161133	0.131104	-0.109375	249	16_15_05_0350000
0.975433	-0.031190	-0.186926	-0.002510	0.058362	-0.001883	-1.161133	0.131104	-0.109863	250	16_15_05_0430000
0.975433	-0.031190	-0.186499	-0.007531	0.060559	0.004393	-1.161011	0.131104	-0.110352	251	16_15_05_0510000
0.975646	-0.031190	-0.186071	-0.010668	0.072796	-0.004079	-1.161011	0.131104	-0.110962	252	16_15_05_0590000
0.975646	-0.031190	-0.185430	-0.017258	0.072796	0.000314	-1.161011	0.130981	-0.111572	253	16_15_05_0670000
0.975860	-0.031190	-0.185003	-0.016944	0.076875	0.006589	-1.160889	0.131104	-0.112183	254	16_15_05_0750000
0.975860	-0.031190	-0.184362	0.000314	0.071541	0.010355	-1.160767	0.131104	-0.112793	255	16_15_05_0830000
0.976074	-0.031190	-0.183935	0.005962	0.076875	0.011296	-1.160767	0.131226	-0.113525	256	16_15_05_0910000
0.976074	-0.031404	-0.183294	0.006275	0.072482	0.007844	-1.160645	0.131348	-0.114136	257	16_15_05_0990000
0.976287	-0.031404	-0.182867	0.013806	0.060559	0.000314	-1.160645	0.131348	-0.114746	258	16_15_05_1070000
0.976287	-0.031404	-0.182440	0.025416	0.057421	0.004393	-1.160522	0.131348	-0.115356	259	16_15_05_1150000
0.976287	-0.031617	-0.182012	0.031377	0.055852	0.004707	-1.160522	0.131348	-0.115845	260	16_15_05_1230000
0.976501	-0.031617	-0.181585	0.007217	0.066206	-0.000941	-1.160400	0.131226	-0.116455	261	16_15_05_1310000
0.976501	-0.031617	-0.180944	0.011923	0.063696	-0.002196	-1.160400	0.131226	-0.116943	262	16_15_05_1390000
0.976714	-0.031617	-0.180517	-0.013179	0.064951	0.001255	-1.160400	0.131226	-0.117554	263	16_15_05_1470000
0.976714	-0.031617	-0.180090	-0.019140	0.061500	0.000314	-1.160278	0.131226	-0.118042	264	16_15_05_1550000
0.976714	-0.031617	-0.179662	-0.000941	0.070913	-0.005962	-1.160278	0.131226	-0.118652	265	16_15_05_1630000
0.976928	-0.031617	-0.179022	0.006589	0.065265	-0.007217	-1.160156	0.131104	-0.119263	266	16_15_05_1710000
0.976928	-0.031617	-0.178594	0.014120	0.070286	0.000314	-1.160156	0.131104	-0.119873	267	16_15_05_1790000
0.977142	-0.031617	-0.178167	0.014434	0.073423	0.002510	-1.160034	0.131104	-0.120483	268	16_15_05_1870000
0.977142	-0.031617	-0.177526	0.007217	0.071227	-0.000314	-1.160034	0.131104	-0.121216	269	16_15_05_1950000
0.977355	-0.031617	-0.177099	0.013179	0.068403	-0.002824	-1.159912	0.130981	-0.121826	270	16_15_05_2030000
0.977355	-0.031617	-0.176672	0.021023	0.054911	0.006589	-1.159912	0.130981	-0.122314	271	16_15_05_2110000
0.977355	-0.031831	-0.176244	0.016316	0.055538	0.006589	-1.159790	0.130981	-0.122803	272	16_15_05_2190000
0.977569	-0.031831	-0.175817	0.007217	0.052714	0.001569	-1.159790	0.131104	-0.123291	273	16_15_05_2270000
0.977569	-0.031831	-0.175390	0.004079	0.059303	-0.001883	-1.159668	0.130981	-0.123779	274	16_15_05_2350000
0.977569	-0.031831	-0.174963	0.006275	0.061186	0.001255	-1.159668	0.130981	-0.124390	275	16_15_05_2430000
0.977783	-0.031831	-0.174535	0.032319	0.060559	-0.000314	-1.159546	0.130981	-0.124878	276	16_15_05_2510000
0.977783	-0.032044	-0.173894	0.022906	0.068089	0.008472	-1.159546	0.130981	-0.125488	277	16_15_05_2590000
0.977783	-0.032044	-0.173467	0.031691	0.060245	0.012865	-1.159424	0.130981	-0.126099	278	16_15_05_2670000
0.977996	-0.032258	-0.173040	0.010668	0.068089	0.006589	-1.159424	0.131104	-0.126709	279	16_15_05_2750000
0.977996	-0.032258	-0.172613	0.025416	0.063696	0.003138	-1.159302	0.131104	-0.127319	280	16_15_05_2830000
0.978210	-0.032258	-0.171972	0.010982	0.082209	-0.004393	-1.159302	0.131104	-0.127930	281	16_15_05_2910000
0.978210	-0.032258	-0.171545	0.008472	0.067148	-0.000941	-1.159180	0.130981	-0.128662	282	16_15_05_2990000
0.978210	-0.032258	-0.170904	-0.006275	0.057107	0.004707	-1.159180	0.130981	-0.129150	283	16_15_05_3070000
0.978423	-0.032258	-0.170690	-0.002196	0.052714	0.004707	-1.159058	0.131104	-0.129639	284	16_15_05_3150000
0.978423	-0.032258	-0.170263	-0.001255	0.033260	0.008786	-1.159058	0.131104	-0.130005	285	16_15_05_3230000
0.978423	-0.032472	-0.170049	-0.004707	0.014434	0.007531	-1.158936	0.131104	-0.130249	286	16_15_05_3310000
0.978423	-0.032472	-0.170049	0.003138	0.008158	-0.005648	-1.158936	0.131104	-0.130249	287	16_15_05_3390000
0.978423	-0.032472	-0.170049	0.010041	0.011923	0.004393	-1.158936	0.131104	-0.130371	288	16_15_05_3470000
0.978637	-0.032472	-0.169836	0.004079	0.036398	-0.008472	-1.158936	0.131104	-0.130615	289	16_15_05_3550000
0.978637	-0.032472	-0.169622	-0.006589	0.046125	0.000000	-1.158936	0.131104	-0.130981	290	16_15_05_3630000
0.978637	-0.032472	-0.169195	-0.012865	0.065893	0.001255	-1.158813	0.131104	-0.131470	291	16_15_05_3710000
0.978637	-0.032472	-0.168554	0.002196	0.073423	-0.001883	-1.158813	0.130981	-0.132080	292	16_15_05_3790000
0.978851	-0.032472	-0.167913	-0.016944	0.088171	-0.003765	-1.158691	0.130981	-0.132690	293	16_15_05_3870000
0.978851	-0.032472	-0.167486	-0.000314	0.064638	-0.005648	-1.158691	0.130981	-0.133423	294	16_15_05_3950000
0.979064	-0.032258	-0.166845	0.003452	0.068403	-0.005020	-1.158569	0.130859	-0.134033	295	16_15_05_4030000
0.979064	-0.032258	-0.166417	-0.002196	0.064638	0.001255	-1.158569	0.130859	-0.134521	296	16_15_05_4110000
0.979278	-0.032258	-0.165990	0.001569	0.039222	-0.004079	-1.158447	0.130859	-0.135010	297	16_15_05_4190000
0.979278	-0.032258	-0.165777	0.006275	0.036084	-0.002510	-1.158447	0.130737	-0.135376	298	16_15_05_4270000
0.979278	-0.032258	-0.165563	0.020082	0.032946	-0.010668	-1.158447	0.130737	-0.135620	299	16_15_05_4350000
0.979278	-0.032258	-0.165349	0.012551	0.016316	-0.008786	-1.158447	0.130615	-0.135864	300	16_15_05_4430000
0.979278	-0.032258	-0.165349	-0.001255	0.010668	-0.004393	-1.158325	0.130493	-0.135986	301	16_15_05_4510000
0.979278	-0.032258	-0.165136	-0.002510	0.008158	-0.007531	-1.158325	0.130493	-0.136108	302	16_15_05_4590000
0.979278	-0.032044	-0.165136	0.007217	0.014120	0.001255	-1.158325	0.130371	-0.136108	303	16_15_05_4670000
0.979278	-0.032044	-0.164922	0.005334	0.028553	-0.012551	-1.158325	0.130371	-0.136353	304	16_15_05_4750000
0.979492	-0.032044	-0.164708	-0.002510	0.033260	-0.008472	-1.158325	0.130249	-0.136597	305	16_15_05_4830000
0.979492	-0.032044	-0.164495	0.008158	0.026357	-0.002196	-1.158325	0.130127	-0.136841	306	16_15_05_4910000
0.979492	-0.032044	-0.164281	0.003765	0.035143	0.003138	-1.158325	0.130127	-0.137085	307	16_15_05_4990000
0.979492	-0.032044	-0.164068	-0.002824	0.021650	0.002196	-1.158203	0.130127	-0.137329	308	16_15_05_5070000
0.979492	-0.032044	-0.163854	-0.014434	0.028553	0.001255	-1.158203	0.130127	-0.137573	309	16_15_05_5150000
0.979492	-0.032044	-0.163640	-0.000628	0.031691	0.009413	-1.158203	0.130249	-0.137817	310	16_15_05_5230000
0.979705	-0.032044	-0.163427	0.004707	0.026671	-0.002196	-1.158203	0.130249	-0.138062	311	16_15_05_5310000
0.979705	-0.032044	-0.163427	0.022906	0.019768	-0.010982	-1.158081	0.130127	-0.138306	312	16_15_05_5390000
0.979705	-0.032044	-0.163213	0.017571	0.026671	-0.017571	-1.158081	0.130005	-0.138550	313	16_15_05_5470000
0.979705	-0.032044	-0.162999	0.013806	0.023847	-0.007531	-1.158081	0.129883	-0.138672	314	16_15_05_5550000
0.979705	-0.031831	-0.162786	-0.007217	0.015061	-0.004079	-1.158081	0.129761	-0.138916	315	16_15_05_5630000
0.979705	-0.032044	-0.162786	-0.012237	0.002510	0.012865	-1.158081	0.129761	-0.138916	316	16_15_05_5710000
0.979705	-0.032044	-0.162786	0.003452	0.000314	0.010041	-1.158081	0.129883	-0.138916	317	16_15_05_5790000
0.979705	-0.032044	-0.162786	-0.002824	-0.008472	0.002510	-1.158081	0.130005	-0.138916	318	16_15_05_5870000
0.979705	-0.032044	-0.162999	0.000000	-0.006903	0.004393	-1.158081	0.130005	-0.138794	319	16_15_05_5950000
0.979705	-0.032258	-0.162999	0.004079	-0.008472	0.000000	-1.158081	0.130005	-0.138672	320	16_15_05_6030000
0.979705	-0.032258	-0.162999	-0.002510	0.000000	0.006903	-1.158081	0.130005	-0.138672	321	16_15_05_6110000
0.979705	-0.032258	-0.162999	-0.005020	0.001883	0.008472	-1.158081	0.130005	-0.138672	322	16_15_05_6190000
0.979705	-0.032258	-0.162999	-0.008158	-0.002510	0.004393	-1.158081	0.130127	-0.138550	323	16_15_05_6270000
0.979705	-0.032258	-0.163213	-0.002510	-0.006903	-0.002510	-1.158081	0.130127	-0.138550	324	16_15_05_6350000
0.979705	-0.032258	-0.163213	0.001569	-0.015689	0.004707	-1.158081	0.130127	-0.138428	325	16_15_05_6430000
0.979705	-0.032472	-0.163427	0.005334	-0.018826	0.006275	-1.158081	0.130127	-0.138306	326	16_15_05_6510000
0.979492	-0.032472	-0.163640	0.019140	-0.015689	0.002824	-1.158081	0.130127	-0.138062	327	16_15_05_6590000
0.979492	-0.032472	-0.163640	0.000314	-0.018199	-0.002196	-1.158203	0.130127	-0.137939	328	16_15_05_6670000
0.979492	-0.032472	-0.163854	-0.019454	-0.016630	-0.005648	-1.158203	0.130127	-0.137817	329	16_15_05_6750000
0.979492	-0.032258	-0.164068	-0.027926	-0.012237	-0.004707	-1.158203	0.130127	-0.137573	330	16_15_05_6830000
0.979492	-0.032258	-0.164068	-0.019768	-0.020709	0.000628	-1.158203	0.130127	-0.137451	331	16_15_05_6910000
0.979492	-0.032258	-0.164281	-0.005962	-0.015689	-0.001569	-1.158203	0.130005	-0.137207	332	16_15_05_6990000
0.979492	-0.032258	-0.164495	0.000000	-0.023847	0.005962	-1.158203	0.130127	-0.136963	333	16_15_05_7070000
0.979492	-0.032472	-0.164708	-0.005648	-0.027926	0.004079	-1.158325	0.130127	-0.136719	334	16_15_05_7150000
0.979278	-0.032472	-0.164922	-0.006903	-0.021337	0.007531	-1.158325	0.130127	-0.136475	335	16_15_05_7230000
0.979278	-0.032472	-0.165136	-0.019768	-0.021337	-0.002510	-1.158325	0.130127	-0.136230	336	16_15_05_7310000
0.979278	-0.032472	-0.165349	-0.013806	-0.037025	0.003138	-1.158325	0.130249	-0.135986	337	16_15_05_7390000
0.979278	-0.032472	-0.165563	0.000000	-0.024474	0.002510	-1.158447	0.130249	-0.135742	338	16_15_05_7470000
0.979278	-0.032472	-0.165777	-0.011296	-0.018826	0.004393	-1.158447	0.130249	-0.135498	339	16_15_05_7550000
0.979278	-0.032472	-0.165990	0.006275	-0.035457	-0.007531	-1.158447	0.130249	-0.135254	340	16_15_05_7630000
0.979064	-0.032472	-0.166204	0.011610	-0.029809	0.004393	-1.158447	0.130127	-0.134888	341	16_15_05_7710000
0.979064	-0.032472	-0.166417	-0.003452	-0.025416	-0.000941	-1.158569	0.130127	-0.134644	342	16_15_05_7790000
0.979064	-0.032472	-0.166631	-0.015375	-0.031064	-0.004079	-1.158569	0.130127	-0.134399	343	16_15_05_7870000
0.979064	-0.032472	-0.166845	-0.013492	-0.026671	0.001883	-1.158569	0.130127	-0.134033	344	16_15_05_7950000
0.979064	-0.032472	-0.167058	-0.017258	-0.016944	0.000000	-1.158569	0.130127	-0.133911	345	16_15_05_8030000
0.979064	-0.032472	-0.167272	-0.016316	-0.019140	-0.004079	-1.158691	0.130127	-0.133667	346	16_15_05_8110000
0.978851	-0.032258	-0.167486	-0.013806	-0.013492	0.004393	-1.158691	0.130127	-0.133545	347	16_15_05_8190000
0.978851	-0.032472	-0.167486	-0.003138	-0.022278	0.008472	-1.158691	0.130249	-0.133301	348	16_15_05_8270000
0.978851	-0.032472	-0.167699	0.005962	-0.028553	-0.001255	-1.158691	0.130249	-0.133057	349	16_15_05_8350000
0.978851	-0.032472	-0.168126	0.013806	-0.035143	0.005962	-1.158691	0.130249	-0.132813	350	16_15_05_8430000
0.978851	-0.032472	-0.168340	-0.003765	-0.022906	0.004393	-1.158813	0.130249	-0.132446	351	16_15_05_8510000
0.978851	-0.032472	-0.168554	-0.005334	-0.035770	-0.001255	-1.158813	0.130249	-0.132202	352	16_15_05_8590000
0.978637	-0.032472	-0.168767	-0.021964	-0.028867	-0.000941	-1.158813	0.130249	-0.131836	353	16_15_05_8670000
0.978637	-0.032472	-0.168981	0.001255	-0.028867	-0.002196	-1.158813	0.130249	-0.131592	354	16_15_05_8750000
0.978637	-0.032472	-0.169408	-0.009099	-0.038908	0.004393	-1.158936	0.130249	-0.131226	355	16_15_05_8830000
0.978637	-0.032472	-0.169622	-0.024474	-0.052714	0.006903	-1.158936	0.130249	-0.130859	356	16_15_05_8910000
0.978423	-0.032472	-0.170049	-0.011610	-0.059931	0.000941	-1.159058	0.130371	-0.130249	357	16_15_05_8990000
0.978423	-0.032472	-0.170476	-0.008158	-0.039849	-0.002196	-1.159058	0.130371	-0.129761	358	16_15_05_9070000
0.978423	-0.032472	-0.170904	-0.005962	-0.040163	0.004393	-1.159058	0.130371	-0.129395	359	16_15_05_9150000
0.978210	-0.032472	-0.171331	-0.014434	-0.047066	0.003452	-1.159180	0.130371	-0.129028	360	16_15_05_9230000
0.978210	-0.032472	-0.171545	-0.011296	-0.032319	-0.002196	-1.159180	0.130371	-0.128662	361	16_15_05_9310000
0.978210	-0.032472	-0.171758	-0.009413	-0.031064	-0.002510	-1.159180	0.130371	-0.128296	362	16_15_05_9390000
0.978210	-0.032472	-0.171972	-0.013806	-0.011296	-0.002196	-1.159302	0.130371	-0.128052	363	16_15_05_9470000
0.978210	-0.032472	-0.172185	-0.008786	-0.009413	-0.007217	-1.159302	0.130249	-0.127930	364	16_15_05_9550000
0.978210	-0.032472	-0.172185	-0.008786	-0.011296	-0.002196	-1.159302	0.130249	-0.127808	365	16_15_05_9630000
0.978210	-0.032472	-0.172185	0.002196	0.001883	0.014747	-1.159302	0.130249	-0.127808	366	16_15_05_9710000
0.978210	-0.032472	-0.172185	-0.014434	-0.013492	-0.000941	-1.159302	0.130371	-0.127686	367	16_15_05_9790000
0.977996	-0.032472	-0.172399	-0.020395	-0.019768	0.001883	-1.159302	0.130371	-0.127563	368	16_15_05_9870000
0.977996	-0.032472	-0.172613	-0.018513	-0.026357	-0.007531	-1.159302	0.130371	-0.127319	369	16_15_05_9950000
0.977996	-0.032472	-0.173040	-0.008786	-0.054597	0.002510	-1.159424	0.130249	-0.126953	370	16_15_06_0030000
0.977996	-0.032472	-0.173254	-0.024788	-0.048635	0.007531	-1.159424	0.130371	-0.126343	371	16_15_06_0110000
0.977783	-0.032472	-0.173681	-0.024788	-0.059303	0.003765	-1.159424	0.130371	-0.125854	372	16_15_06_0190000
0.977783	-0.032472	-0.174322	-0.017258	-0.066520	0.000000	-1.159546	0.130371	-0.125244	373	16_15_06_0270000
0.977569	-0.032472	-0.174749	-0.011610	-0.061500	-0.003138	-1.159546	0.130371	-0.124634	374	16_15_06_0350000
0.977569	-0.032472	-0.175176	-0.008158	-0.046125	-0.008786	-1.159668	0.130371	-0.124146	375	16_15_06_0430000
0.977569	-0.032258	-0.175604	-0.006589	-0.040163	-0.002824	-1.159668	0.130249	-0.123779	376	16_15_06_0510000
0.977569	-0.032258	-0.175817	-0.012237	-0.032319	-0.009727	-1.159790	0.130249	-0.123413	377	16_15_06_0590000
0.977355	-0.032258	-0.176244	-0.028867	-0.035143	0.001255	-1.159790	0.130249	-0.123047	378	16_15_06_0670000
0.977355	-0.032258	-0.176458	-0.030122	-0.030122	0.007531	-1.159790	0.130249	-0.122681	379	16_15_06_0750000
0.977355	-0.032258	-0.176672	-0.013179	-0.028240	0.006903	-1.159790	0.130371	-0.122437	380	16_15_06_0830000
0.977355	-0.032258	-0.176885	-0.006275	-0.027298	0.000000	-1.159912	0.130371	-0.122070	381	16_15_06_0910000
0.977142	-0.032258	-0.177099	-0.016944	-0.026671	-0.003138	-1.159912	0.130371	-0.121826	382	16_15_06_0990000
0.977142	-0.032258	-0.177313	-0.015375	-0.026671	-0.015061	-1.159912	0.130249	-0.121582	383	16_15_06_1070000
0.977142	-0.032044	-0.177526	0.003765	-0.014120	-0.012865	-1.160034	0.130127	-0.121338	384	16_15_06_1150000
0.977142	-0.032044	-0.177740	-0.009727	-0.017885	-0.012865	-1.160034	0.130005	-0.121216	385	16_15_06_1230000
0.977142	-0.031831	-0.177953	-0.009099	-0.022592	-0.011296	-1.160034	0.129883	-0.120972	386	16_15_06_1310000
0.977142	-0.031831	-0.178167	-0.013492	-0.024161	-0.009413	-1.160034	0.129761	-0.120728	387	16_15_06_1390000
0.976928	-0.031831	-0.178381	-0.004707	-0.036712	-0.000314	-1.160156	0.129761	-0.120483	388	16_15_06_1470000
0.976928	-0.031617	-0.178594	0.012865	-0.048321	-0.006589	-1.160156	0.129761	-0.120117	389	16_15_06_1550000
0.976928	-0.031617	-0.179022	0.002824	-0.047066	0.004079	-1.160156	0.129639	-0.119629	390	16_15_06_1630000
0.976928	-0.031617	-0.179449	-0.011296	-0.041104	-0.005020	-1.160278	0.129639	-0.119263	391	16_15_06_1710000
0.976714	-0.031617	-0.179662	-0.012237	-0.035143	0.005648	-1.160278	0.129639	-0.118896	392	16_15_06_1790000
0.976714	-0.031617	-0.179876	-0.022278	-0.027612	0.000000	-1.160278	0.129639	-0.118530	393	16_15_06_1870000
0.976714	-0.031617	-0.180090	0.003765	-0.010355	-0.008472	-1.160400	0.129639	-0.118286	394	16_15_06_1950000
0.976714	-0.031617	-0.180303	-0.008786	-0.012551	-0.011296	-1.160400	0.129517	-0.118164	395	16_15_06_2030000
0.976714	-0.031404	-0.180303	-0.019454	-0.017571	-0.015061	-1.160400	0.129395	-0.118042	396	16_15_06_2110000
0.976714	-0.031404	-0.180517	-0.010982	-0.016944	-0.007531	-1.160400	0.129395	-0.117798	397	16_15_06_2190000
0.976501	-0.031404	-0.180731	-0.003138	-0.031064	-0.003138	-1.160400	0.129272	-0.117676	398	16_15_06_2270000
0.976501	-0.031404	-0.180944	0.005334	-0.031691	-0.001255	-1.160522	0.129272	-0.117310	399	16_15_06_2350000
0.976501	-0.031404	-0.181158	-0.006275	-0.034829	-0.006589	-1.160522	0.129150	-0.116943	400	16_15_06_2430000
0.976501	-0.031190	-0.181371	-0.009727	-0.021964	-0.005962	-1.160522	0.129150	-0.116699	401	16_15_06_2510000
0.976501	-0.031190	-0.181799	0.003452	-0.035143	0.001569	-1.160645	0.129150	-0.116455	402	16_15_06_2590000
0.976287	-0.031190	-0.182012	-0.014747	-0.032946	-0.004393	-1.160645	0.129150	-0.116089	403	16_15_06_2670000
0.976287	-0.031190	-0.182226	-0.012237	-0.028553	-0.006903	-1.160645	0.129028	-0.115845	404	16_15_06_2750000
0.976287	-0.031190	-0.182440	-0.016003	-0.033260	-0.001883	-1.160645	0.129028	-0.115479	405	16_15_06_2830000
0.976287	-0.030976	-0.182653	-0.032946	-0.026985	-0.002196	-1.160767	0.129028	-0.115234	406	16_15_06_2910000
0.976287	-0.030976	-0.182867	-0.033888	-0.002510	-0.000314	-1.160767	0.129028	-0.114990	407	16_15_06_2990000
0.976287	-0.030976	-0.183081	-0.015061	-0.007217	0.002196	-1.160767	0.129028	-0.114868	408	16_15_06_3070000
0.976074	-0.030976	-0.183081	-0.015061	-0.020395	-0.012865	-1.160767	0.129028	-0.114746	409	16_15_06_3150000
0.976074	-0.030763	-0.183294	-0.006275	0.000314	-0.002196	-1.160767	0.128906	-0.114624	410	16_15_06_3230000
0.976074	-0.030763	-0.183294	-0.006589	0.002196	-0.004707	-1.160767	0.128906	-0.114624	411	16_15_06_3310000
0.976074	-0.030763	-0.183294	-0.003138	-0.007844	-0.005648	-1.160767	0.128784	-0.114624	412	16_15_06_3390000
0.976074	-0.030763	-0.183294	-0.012237	-0.023533	0.004079	-1.160889	0.128784	-0.114380	413	16_15_06_3470000
0.976074	-0.030763	-0.183508	0.000314	-0.023533	0.004079	-1.160889	0.128906	-0.114136	414	16_15_06_3550000
0.976074	-0.030763	-0.183721	0.003138	-0.032633	0.005962	-1.160889	0.128906	-0.113892	415	16_15_06_3630000
0.976074	-0.030976	-0.184149	0.007217	-0.028240	0.009099	-1.160889	0.128906	-0.113647	416	16_15_06_3710000
0.975860	-0.030976	-0.184362	0.014120	-0.022592	0.006589	-1.160889	0.129028	-0.113403	417	16_15_06_3790000
0.975860	-0.031190	-0.184362	0.011923	-0.010041	0.002510	-1.160889	0.129028	-0.113281	418	16_15_06_3870000
0.975860	-0.031190	-0.184576	-0.001255	-0.012551	-0.005334	-1.160889	0.129028	-0.113159	419	16_15_06_3950000
0.975860	-0.031190	-0.184576	0.000000	-0.016003	0.007531	-1.161011	0.129028	-0.112915	420	16_15_06_4030000
0.975860	-0.031190	-0.184790	0.014120	-0.019454	0.003765	-1.161011	0.129028	-0.112793	421	16_15_06_4110000
0.975860	-0.031190	-0.185003	0.003765	-0.019454	0.002510	-1.161011	0.129028	-0.112671	422	16_15_06_4190000
0.975860	-0.031190	-0.185217	-0.012865	-0.017885	0.011923	-1.161011	0.129028	-0.112427	423	16_15_06_4270000
0.975646	-0.031404	-0.185217	0.000628	-0.015061	0.011610	-1.161011	0.129150	-0.112305	424	16_15_06_4350000
0.975646	-0.031404	-0.185430	-0.010668	-0.010982	-0.000314	-1.161011	0.129272	-0.112183	425	16_15_06_4430000
0.975646	-0.031404	-0.185430	-0.027612	-0.008786	-0.002824	-1.161011	0.129150	-0.112061	426	16_15_06_4510000
0.975646	-0.031190	-0.185644	-0.012237	-0.012551	-0.004393	-1.161011	0.129150	-0.111816	427	16_15_06_4590000
0.975646	-0.031190	-0.185858	-0.016316	-0.017258	-0.003765	-1.161011	0.129150	-0.111694	428	16_15_06_4670000
0.975646	-0.031190	-0.186071	-0.019768	-0.033574	0.003452	-1.161133	0.129150	-0.111450	429	16_15_06_4750000
0.975646	-0.031190	-0.186285	-0.013806	-0.048321	0.009413	-1.161133	0.129150	-0.111084	430	16_15_06_4830000
0.975433	-0.031190	-0.186712	-0.009099	-0.072168	-0.002824	-1.161133	0.129272	-0.110474	431	16_15_06_4910000
0.975433	-0.031190	-0.187353	-0.015689	-0.093191	-0.009413	-1.161255	0.129150	-0.109741	432	16_15_06_4990000
0.975219	-0.031190	-0.188208	-0.016944	-0.085660	-0.003138	-1.161377	0.129150	-0.108887	433	16_15_06_5070000
0.975219	-0.031190	-0.188635	-0.016630	-0.054911	0.006903	-1.161377	0.129150	-0.108154	434	16_15_06_5150000
0.975005	-0.031190	-0.189062	-0.000941	-0.026357	-0.001883	-1.161377	0.129150	-0.107788	435	16_15_06_5230000
0.975005	-0.031190	-0.189062	0.005334	-0.010355	-0.007844	-1.161499	0.129150	-0.107544	436	16_15_06_5310000
0.975005	-0.031190	-0.189276	0.015061	0.008158	-0.000628	-1.161499	0.129028	-0.107544	437	16_15_06_5390000
0.975005	-0.031190	-0.189276	0.019140	-0.004393	-0.005962	-1.161499	0.129028	-0.107544	438	16_15_06_5470000
0.975005	-0.031190	-0.189276	0.014747	0.010982	-0.002196	-1.161499	0.128906	-0.107666	439	16_15_06_5550000
0.975005	-0.031190	-0.189276	-0.002196	-0.008158	0.001255	-1.161499	0.128906	-0.107666	440	16_15_06_5630000
0.975005	-0.031190	-0.189276	0.008786	-0.017258	0.002196	-1.161499	0.128906	-0.107544	441	16_15_06_5710000
0.975005	-0.031190	-0.189489	-0.001255	-0.018513	-0.001569	-1.161499	0.128906	-0.107300	442	16_15_06_5790000
0.975005	-0.031190	-0.189703	0.005020	-0.018199	-0.007844	-1.161499	0.128784	-0.107178	443	16_15_06_5870000
0.974792	-0.031190	-0.189917	0.000628	-0.037967	0.002824	-1.161499	0.128784	-0.106934	444	16_15_06_5950000
0.974792	-0.031190	-0.190130	-0.017885	-0.033574	0.006589	-1.161621	0.128784	-0.106567	445	16_15_06_6030000
0.974792	-0.031190	-0.190344	-0.005334	-0.032005	0.000941	-1.161621	0.128906	-0.106201	446	16_15_06_6110000
0.974792	-0.031190	-0.190558	-0.018513	-0.023219	0.004079	-1.161621	0.128906	-0.105957	447	16_15_06_6190000
0.974578	-0.031190	-0.190771	-0.017258	-0.026985	-0.012865	-1.161621	0.128906	-0.105713	448	16_15_06_6270000
0.974578	-0.030976	-0.190985	-0.016944	-0.020082	-0.003452	-1.161743	0.128784	-0.105469	449	16_15_06_6350000
0.974578	-0.030976	-0.191198	-0.014747	-0.012551	-0.007217	-1.161743	0.128784	-0.105225	450	16_15_06_6430000
0.974578	-0.030976	-0.191412	-0.005020	-0.007217	-0.002510	-1.161743	0.128662	-0.105103	451	16_15_06_6510000
0.974578	-0.030976	-0.191412	-0.003452	-0.008158	-0.000941	-1.161743	0.128662	-0.104980	452	16_15_06_6590000
0.974578	-0.030976	-0.191412	0.009413	-0.006589	-0.008158	-1.161743	0.128662	-0.104980	453	16_15_06_6670000
0.974578	-0.030976	-0.191412	-0.004707	0.011610	0.001883	-1.161743	0.128540	-0.104980	454	16_15_06_6750000
0.974578	-0.030976	-0.191412	0.013179	0.019454	-0.010668	-1.161743	0.128540	-0.105103	455	16_15_06_6830000
0.974578	-0.030763	-0.191198	0.010041	0.022278	-0.002196	-1.161743	0.128418	-0.105225	456	16_15_06_6910000
0.974578	-0.030976	-0.191198	0.010982	0.015375	0.006275	-1.161743	0.128418	-0.105469	457	16_15_06_6990000
0.974578	-0.030976	-0.190985	0.006275	0.010668	0.000628	-1.161743	0.128418	-0.105591	458	16_15_06_7070000
0.974578	-0.030976	-0.190985	0.002824	-0.005962	-0.004707	-1.161743	0.128418	-0.105591	459	16_15_06_7150000
0.974578	-0.030976	-0.190985	0.009727	-0.013492	-0.010982	-1.161743	0.128296	-0.105469	460	16_15_06_7230000
0.974578	-0.030763	-0.191198	-0.014434	-0.024788	-0.005020	-1.161743	0.128296	-0.105225	461	16_15_06_7310000
0.974578	-0.030763	-0.191412	-0.017571	-0.024788	-0.007217	-1.161743	0.128174	-0.104980	462	16_15_06_7390000
0.974578	-0.030763	-0.191626	-0.021964	-0.017885	-0.000628	-1.161865	0.128174	-0.104736	463	16_15_06_7470000
0.974578	-0.030763	-0.191839	-0.024161	-0.012551	0.003138	-1.161865	0.128174	-0.104614	464	16_15_06_7550000
0.974578	-0.030763	-0.191839	0.000628	-0.004079	0.009413	-1.161865	0.128174	-0.104492	465	16_15_06_7630000
0.974578	-0.030763	-0.191839	-0.009099	0.001569	-0.006589	-1.161865	0.128296	-0.104492	466	16_15_06_7710000
0.974578	-0.030763	-0.191839	-0.021023	0.003138	0.004393	-1.161865	0.128174	-0.104492	467	16_15_06_7790000
0.974578	-0.030763	-0.191839	-0.010041	0.009727	-0.009413	-1.161865	0.128174	-0.104492	468	16_15_06_7870000
0.974578	-0.030549	-0.191839	-0.006275	-0.004707	-0.000941	-1.161865	0.128174	-0.104492	469	16_15_06_7950000
0.974578	-0.030549	-0.191839	0.008786	0.014747	-0.004079	-1.161865	0.128174	-0.104492	470	16_15_06_8030000
0.974578	-0.030763	-0.191839	0.010041	0.007844	0.009727	-1.161865	0.128174	-0.104614	471	16_15_06_8110000
0.974578	-0.030763	-0.191839	0.007844	0.007844	0.001883	-1.161865	0.128174	-0.104736	472	16_15_06_8190000
0.974578	-0.030763	-0.191839	0.000628	-0.004707	-0.001255	-1.161865	0.128174	-0.104736	473	16_15_06_8270000
0.974578	-0.030763	-0.191839	0.016316	-0.010668	0.002196	-1.161865	0.128174	-0.104614	474	16_15_06_8350000
0.974578	-0.030763	-0.192053	-0.004707	-0.018826	0.003452	-1.161865	0.128174	-0.104492	475	16_15_06_8430000
0.974364	-0.030763	-0.192053	-0.007531	-0.022592	0.000000	-1.161865	0.128174	-0.104248	476	16_15_06_8510000
0.974364	-0.030763	-0.192267	-0.002510	-0.014434	0.004079	-1.161865	0.128174	-0.104126	477	16_15_06_8590000
0.974364	-0.030763	-0.192480	-0.009413	-0.007217	-0.002196	-1.161865	0.128174	-0.104004	478	16_15_06_8670000
0.974364	-0.030763	-0.192480	-0.002196	-0.008786	0.001883	-1.161865	0.128174	-0.103882	479	16_15_06_8750000
0.974364	-0.030763	-0.192480	-0.010982	0.008786	0.004393	-1.161865	0.128174	-0.103882	480	16_15_06_8830000
0.974364	-0.030976	-0.192480	-0.018826	0.006589	0.008472	-1.161865	0.128296	-0.103882	481	16_15_06_8910000
0.974364	-0.030976	-0.192480	-0.004707	0.009413	-0.005334	-1.161865	0.128296	-0.103882	482	16_15_06_8990000
0.974364	-0.030976	-0.192480	-0.000628	0.005962	0.005334	-1.161865	0.128296	-0.104004	483	16_15_06_9070000
0.974364	-0.030976	-0.192267	0.005334	0.009099	0.000000	-1.161865	0.128296	-0.104004	484	16_15_06_9150000
0.974364	-0.030976	-0.192267	0.008786	0.003765	0.006275	-1.161865	0.128296	-0.104126	485	16_15_06_9230000
0.974364	-0.030976	-0.192480	0.003138	-0.010668	0.003452	-1.161865	0.128296	-0.104004	486	16_15_06_9310000
0.974364	-0.030976	-0.192480	-0.006589	-0.009413	0.011296	-1.161865	0.128418	-0.103882	487	16_15_06_9390000
0.974364	-0.031190	-0.192480	-0.016944	-0.005020	0.004079	-1.161865	0.128418	-0.103882	488	16_15_06_9470000
0.974364	-0.031190	-0.192694	-0.010355	-0.013179	-0.004707	-1.161865	0.128418	-0.103760	489	16_15_06_9550000
0.974364	-0.031190	-0.192694	0.003765	-0.005962	0.000628	-1.161865	0.128418	-0.103638	490	16_15_06_9630000
0.974364	-0.031190	-0.192907	-0.004079	-0.013806	0.005648	-1.161987	0.128418	-0.103516	491	16_15_06_9710000
0.974364	-0.031190	-0.192907	-0.006275	-0.011296	0.003138	-1.161987	0.128418	-0.103394	492	16_15_06_9790000
0.974364	-0.031190	-0.193121	-0.005962	-0.004393	0.003765	-1.161987	0.128418	-0.103271	493	16_15_06_9870000
0.974364	-0.031190	-0.193121	0.005648	-0.005648	0.005334	-1.161987	0.128540	-0.103271	494	16_15_06_9950000
0.974151	-0.031190	-0.193121	0.000000	-0.009413	-0.002510	-1.161987	0.128540	-0.103149	495	16_15_07_0030000
0.974151	-0.031190	-0.193121	0.009727	0.008472	0.003765	-1.161987	0.128540	-0.103149	496	16_15_07_0110000
0.974151	-0.031404	-0.193121	0.011610	-0.005334	0.004079	-1.161987	0.128540	-0.103149	497	16_15_07_0190000
0.974151	-0.031404	-0.193121	0.012865	0.001883	0.000941	-1.161987	0.128540	-0.103149	498	16_15_07_0270000
0.974151	-0.031404	-0.193121	-0.002510	0.011296	0.004393	-1.161987	0.128540	-0.103149	499	16_15_07_0350000
0.974151	-0.031404	-0.193121	0.001569	0.020395	-0.002196	-1.161987	0.128540	-0.103271	500	16_15_07_0430000
0.974364	-0.031404	-0.192907	-0.016630	0.022592	0.001569	-1.161987	0.128540	-0.103394	501	16_15_07_0510000
0.974364	-0.031404	-0.192694	-0.023219	0.025730	0.003765	-1.161865	0.128540	-0.103638	502	16_15_07_0590000
0.974364	-0.031404	-0.192694	-0.015375	0.016003	0.002196	-1.161865	0.128540	-0.103760	503	16_15_07_0670000
0.974364	-0.031404	-0.192694	-0.005020	-0.007217	0.005962	-1.161865	0.128662	-0.103760	504	16_15_07_0750000
0.974364	-0.031404	-0.192907	-0.004393	-0.033888	0.003765	-1.161865	0.128662	-0.103638	505	16_15_07_0830000
0.974151	-0.031404	-0.193121	-0.014120	-0.063696	0.003765	-1.161987	0.128662	-0.103149	506	16_15_07_0910000
0.974151	-0.031404	-0.193762	-0.009099	-0.060559	-0.003138	-1.161987	0.128662	-0.102539	507	16_15_07_0990000
0.974151	-0.031404	-0.193976	-0.016630	-0.028240	-0.004393	-1.162109	0.128662	-0.102051	508	16_15_07_1070000
0.973937	-0.031404	-0.194189	-0.003765	-0.012551	-0.009727	-1.162109	0.128540	-0.101929	509	16_15_07_1150000
0.973937	-0.031404	-0.194189	-0.011923	0.008786	-0.008472	-1.162109	0.128540	-0.101807	510	16_15_07_1230000
0.974151	-0.031190	-0.194189	0.008472	0.026357	0.003138	-1.162109	0.128418	-0.101929	511	16_15_07_1310000
0.974151	-0.031190	-0.193976	0.005962	0.032633	-0.005962	-1.162109	0.128418	-0.102295	512	16_15_07_1390000
0.974151	-0.031190	-0.193762	0.018199	0.012551	-0.009413	-1.162109	0.128296	-0.102417	513	16_15_07_1470000
0.974151	-0.031190	-0.193762	0.027612	-0.001883	-0.004393	-1.162109	0.128296	-0.102539	514	16_15_07_1550000
0.974151	-0.031190	-0.193762	0.010982	-0.010668	-0.014434	-1.162109	0.128174	-0.102417	515	16_15_07_1630000
0.974151	-0.031190	-0.193976	0.000000	-0.027612	-0.000314	-1.162109	0.128052	-0.102295	516	16_15_07_1710000
0.974151	-0.031190	-0.194189	-0.000941	-0.041418	0.002824	-1.162109	0.128052	-0.101929	517	16_15_07_1790000
0.973937	-0.031190	-0.194617	-0.009099	-0.038908	0.000941	-1.162231	0.128052	-0.101563	518	16_15_07_1870000
0.973937	-0.031190	-0.194830	0.004079	-0.026671	-0.001883	-1.162231	0.128052	-0.101196	519	16_15_07_1950000
0.973937	-0.031190	-0.195044	-0.007844	-0.027926	0.005648	-1.162231	0.128052	-0.100952	520	16_15_07_2030000
0.973937	-0.031190	-0.195257	0.005334	-0.020709	0.004079	-1.162231	0.128052	-0.100708	521	16_15_07_2110000
0.973724	-0.031404	-0.195471	-0.003138	-0.024474	0.011296	-1.162231	0.128174	-0.100464	522	16_15_07_2190000
0.973724	-0.031404	-0.195685	0.006589	-0.006275	-0.003138	-1.162231	0.128174	-0.100342	523	16_15_07_2270000
0.973724	-0.031404	-0.195685	-0.009413	-0.008786	-0.005962	-1.162231	0.128174	-0.100220	524	16_15_07_2350000
0.973724	-0.031404	-0.195685	-0.011610	-0.000628	-0.002510	-1.162354	0.128052	-0.100220	525	16_15_07_2430000
0.973724	-0.031404	-0.195685	-0.008472	0.010355	0.000000	-1.162354	0.128052	-0.100220	526	16_15_07_2510000
0.973724	-0.031190	-0.195685	-0.018199	0.014747	-0.003138	-1.162231	0.128052	-0.100342	527	16_15_07_2590000
0.973724	-0.031190	-0.195471	-0.016003	0.025102	0.003138	-1.162231	0.128052	-0.100464	528	16_15_07_2670000
0.973724	-0.031190	-0.195257	-0.008472	0.041104	-0.004079	-1.162231	0.128052	-0.100708	529	16_15_07_2750000
0.973937	-0.031190	-0.195044	-0.007844	0.035770	-0.005648	-1.162231	0.128052	-0.101074	530	16_15_07_2830000
0.973937	-0.031190	-0.194830	0.002824	0.018826	-0.006589	-1.162231	0.127930	-0.101318	531	16_15_07_2910000
0.973937	-0.031190	-0.194830	0.018826	0.021337	-0.000628	-1.162231	0.127930	-0.101440	532	16_15_07_2990000
0.973937	-0.031190	-0.194617	0.023847	0.021964	-0.000941	-1.162231	0.127808	-0.101685	533	16_15_07_3070000
0.973937	-0.031190	-0.194617	0.011296	0.002510	0.000000	-1.162231	0.127808	-0.101807	534	16_15_07_3150000
0.973937	-0.031190	-0.194617	0.005962	-0.016316	-0.006589	-1.162231	0.127808	-0.101685	535	16_15_07_3230000
0.973937	-0.031190	-0.194617	-0.002196	-0.008472	-0.000941	-1.162231	0.127686	-0.101563	536	16_15_07_3310000
0.973937	-0.031190	-0.194830	-0.006903	-0.004079	0.004079	-1.162231	0.127686	-0.101440	537	16_15_07_3390000
0.973937	-0.031190	-0.194830	-0.011296	-0.005020	0.007217	-1.162231	0.127808	-0.101440	538	16_15_07_3470000
0.973937	-0.031190	-0.194830	-0.015061	0.008786	-0.001255	-1.162231	0.127808	-0.101440	539	16_15_07_3550000
0.973937	-0.031190	-0.194830	0.001569	0.010982	-0.007217	-1.162231	0.127808	-0.101440	540	16_15_07_3630000
0.973937	-0.031190	-0.194617	-0.011923	0.006903	-0.001255	-1.162231	0.127686	-0.101563	541	16_15_07_3710000
0.973937	-0.031190	-0.194617	-0.018199	0.019140	-0.005020	-1.162231	0.127686	-0.101563	542	16_15_07_3790000
0.973937	-0.031190	-0.194617	-0.010041	0.017571	0.012551	-1.162231	0.127686	-0.101807	543	16_15_07_3870000
0.973937	-0.031190	-0.194403	-0.016316	0.025730	-0.008472	-1.162231	0.127686	-0.101929	544	16_15_07_3950000
0.974151	-0.030976	-0.194189	-0.001255	0.026985	-0.005334	-1.162231	0.127686	-0.102173	545	16_15_07_4030000
0.974151	-0.030976	-0.193976	-0.003138	0.015061	-0.005648	-1.162231	0.127563	-0.102295	546	16_15_07_4110000
0.974151	-0.030976	-0.193976	0.008158	0.019768	-0.003452	-1.162231	0.127563	-0.102417	547	16_15_07_4190000
0.974151	-0.030976	-0.193762	0.004707	0.010355	-0.000941	-1.162231	0.127563	-0.102539	548	16_15_07_4270000
0.974151	-0.030976	-0.193762	0.005648	-0.000628	-0.001569	-1.162109	0.127441	-0.102539	549	16_15_07_4350000
0.974151	-0.030976	-0.193762	0.005962	-0.001883	-0.015061	-1.162231	0.127441	-0.102539	550	16_15_07_4430000
0.974151	-0.030976	-0.193762	-0.005020	0.006275	0.006275	-1.162231	0.127319	-0.102539	551	16_15_07_4510000
0.974151	-0.030976	-0.193762	-0.001569	-0.004707	-0.000628	-1.162231	0.127319	-0.102539	552	16_15_07_4590000
0.974151	-0.030976	-0.193976	0.002196	0.005020	-0.005962	-1.162231	0.127319	-0.102539	553	16_15_07_4670000
0.974151	-0.030976	-0.193762	-0.001883	0.008472	-0.001255	-1.162231	0.127319	-0.102539	554	16_15_07_4750000
0.974151	-0.030976	-0.193762	-0.005020	0.002824	0.001569	-1.162231	0.127319	-0.102661	555	16_15_07_4830000
0.974151	-0.030976	-0.193762	-0.003138	0.010668	0.002824	-1.162231	0.127319	-0.102661	556	16_15_07_4910000
0.974151	-0.030976	-0.193762	0.003138	0.000314	0.000941	-1.162231	0.127319	-0.102661	557	16_15_07_4990000
0.974151	-0.030976	-0.193762	-0.002824	0.005020	0.003452	-1.162231	0.127319	-0.102661	558	16_15_07_5070000
0.974151	-0.030976	-0.193762	0.000941	0.010355	-0.008158	-1.162231	0.127319	-0.102783	559	16_15_07_5150000
0.974151	-0.030976	-0.193762	0.007217	0.011923	-0.014120	-1.162231	0.127197	-0.102783	560	16_15_07_5230000
0.974151	-0.030763	-0.193548	-0.009727	0.006903	-0.002510	-1.162231	0.127075	-0.102905	561	16_15_07_5310000
0.974151	-0.030763	-0.193762	0.004393	-0.009099	0.000000	-1.162231	0.127075	-0.102905	562	16_15_07_5390000
0.974151	-0.030763	-0.193762	0.003765	-0.000941	0.001255	-1.162231	0.127075	-0.102783	563	16_15_07_5470000
0.974151	-0.030763	-0.193762	0.002510	-0.004707	-0.003765	-1.162231	0.127075	-0.102783	564	16_15_07_5550000
0.974151	-0.030763	-0.193762	-0.007217	-0.001883	0.007844	-1.162231	0.127075	-0.102783	565	16_15_07_5630000
0.974151	-0.030976	-0.193762	-0.015689	0.010041	0.003138	-1.162231	0.127075	-0.102783	566	16_15_07_5710000
0.974151	-0.030976	-0.193762	-0.018199	0.006903	0.003765	-1.162231	0.127075	-0.102783	567	16_15_07_5790000
0.974151	-0.030976	-0.193762	-0.011296	0.008786	0.007217	-1.162231	0.127197	-0.102783	568	16_15_07_5870000
0.974151	-0.030976	-0.193762	-0.014120	0.005020	0.010041	-1.162231	0.127197	-0.102905	569	16_15_07_5950000
0.974151	-0.030976	-0.193548	-0.012237	0.015689	0.006903	-1.162231	0.127319	-0.102905	570	16_15_07_6030000
0.974151	-0.030976	-0.193548	-0.010668	0.011923	-0.000314	-1.162109	0.127319	-0.103027	571	16_15_07_6110000
0.974151	-0.030976	-0.193335	0.000000	0.027926	0.009413	-1.162109	0.127441	-0.103149	572	16_15_07_6190000
0.974151	-0.031190	-0.193121	0.008472	0.031691	0.001255	-1.162109	0.127441	-0.103394	573	16_15_07_6270000
0.974364	-0.031190	-0.193121	0.023533	0.023847	0.006903	-1.162109	0.127441	-0.103638	574	16_15_07_6350000
0.974364	-0.031190	-0.192907	0.020395	0.013492	0.012237	-1.162109	0.127441	-0.103882	575	16_15_07_6430000
0.974364	-0.031404	-0.192694	0.006275	0.023847	0.005334	-1.162109	0.127563	-0.104004	576	16_15_07_6510000
0.974364	-0.031404	-0.192694	0.001883	0.025416	-0.000628	-1.161987	0.127563	-0.104248	577	16_15_07_6590000
0.974364	-0.031404	-0.192480	0.009727	0.030122	-0.009413	-1.161987	0.127563	-0.104492	578	16_15_07_6670000
0.974364	-0.031404	-0.192267	0.006275	0.025730	-0.008472	-1.161987	0.127441	-0.104736	579	16_15_07_6750000
0.974364	-0.031190	-0.192053	0.007217	0.025730	-0.002510	-1.161987	0.127319	-0.104980	580	16_15_07_6830000
0.974578	-0.031404	-0.191839	-0.005334	0.034515	0.005962	-1.161987	0.127319	-0.105225	581	16_15_07_6910000
0.974578	-0.031404	-0.191626	0.002510	0.045497	-0.009413	-1.161987	0.127319	-0.105469	582	16_15_07_6990000
0.974578	-0.031190	-0.191198	0.002196	0.034515	0.002824	-1.161865	0.127319	-0.105835	583	16_15_07_7070000
0.974578	-0.031404	-0.190985	-0.016316	0.041418	0.006903	-1.161865	0.127319	-0.106201	584	16_15_07_7150000
0.974792	-0.031404	-0.190771	-0.006589	0.040163	0.003138	-1.161865	0.127319	-0.106567	585	16_15_07_7230000
0.974792	-0.031404	-0.190558	-0.004393	0.039222	0.004079	-1.161865	0.127441	-0.106812	586	16_15_07_7310000
0.974792	-0.031404	-0.190130	0.015061	0.045497	0.004079	-1.161743	0.127441	-0.107178	587	16_15_07_7390000
0.974792	-0.031404	-0.189703	0.005020	0.058990	0.001255	-1.161743	0.127441	-0.107666	588	16_15_07_7470000
0.975005	-0.031404	-0.189276	0.006903	0.065265	0.001569	-1.161743	0.127441	-0.108276	589	16_15_07_7550000
0.975005	-0.031617	-0.188849	0.004393	0.063696	0.010355	-1.161621	0.127441	-0.108765	590	16_15_07_7630000
0.975219	-0.031617	-0.188421	-0.003138	0.068717	0.002196	-1.161621	0.127441	-0.109375	591	16_15_07_7710000
0.975219	-0.031617	-0.187994	-0.009413	0.062127	0.006589	-1.161499	0.127563	-0.109985	592	16_15_07_7790000
0.975219	-0.031617	-0.187567	0.006275	0.032005	0.006275	-1.161499	0.127563	-0.110352	593	16_15_07_7870000
0.975433	-0.031831	-0.187353	0.008158	0.003765	0.005334	-1.161499	0.127563	-0.110596	594	16_15_07_7950000
0.975433	-0.031831	-0.187353	0.005020	-0.004707	0.008158	-1.161499	0.127686	-0.110474	595	16_15_07_8030000
0.975433	-0.031831	-0.187567	-0.004079	0.001569	0.007531	-1.161499	0.127686	-0.110474	596	16_15_07_8110000
0.975433	-0.032044	-0.187567	-0.003138	0.001883	0.006903	-1.161499	0.127808	-0.110474	597	16_15_07_8190000
0.975433	-0.032044	-0.187353	0.011296	0.026043	0.007531	-1.161377	0.127808	-0.110596	598	16_15_07_8270000
0.975433	-0.032044	-0.187139	0.005020	0.048008	0.000314	-1.161377	0.127808	-0.110962	599	16_15_07_8350000
0.975433	-0.032044	-0.186712	0.000314	0.087229	0.012865	-1.161377	0.127930	-0.111572	600	16_15_07_8430000
0.975646	-0.032258	-0.186071	0.001569	0.093819	-0.003138	-1.161255	0.127930	-0.112305	601	16_15_07_8510000
0.975860	-0.032258	-0.185217	0.002196	0.105742	-0.002510	-1.161133	0.127930	-0.113159	602	16_15_07_8590000
0.975860	-0.032258	-0.184576	0.014747	0.102918	0.005962	-1.161133	0.127930	-0.114136	603	16_15_07_8670000
0.976074	-0.032258	-0.183935	0.005334	0.077189	-0.000941	-1.161011	0.127930	-0.114990	604	16_15_07_8750000
0.976074	-0.032258	-0.183294	0.000000	0.061500	0.005962	-1.160889	0.127930	-0.115601	605	16_15_07_8830000
0.976287	-0.032258	-0.182867	0.003138	0.036712	-0.000941	-1.160889	0.127930	-0.115967	606	16_15_07_8910000
0.976287	-0.032258	-0.182867	0.005334	0.015689	0.015375	-1.160889	0.127930	-0.116211	607	16_15_07_8990000
0.976287	-0.032472	-0.182653	-0.016944	0.019454	0.009727	-1.160889	0.128052	-0.116333	608	16_15_07_9070000
0.976287	-0.032472	-0.182440	-0.016003	0.035143	0.001883	-1.160767	0.128174	-0.116577	609	16_15_07_9150000
0.976287	-0.032472	-0.182226	-0.012551	0.039222	0.010668	-1.160767	0.128174	-0.116821	610	16_15_07_9230000
0.976287	-0.032472	-0.182012	-0.006589	0.030122	0.003138	-1.160767	0.128296	-0.117188	611	16_15_07_9310000
0.976501	-0.032472	-0.181799	-0.011610	0.032319	-0.010041	-1.160767	0.128174	-0.117432	612	16_15_07_9390000
0.976501	-0.032472	-0.181585	-0.006275	0.039536	0.000000	-1.160645	0.128174	-0.117676	613	16_15_07_9470000
0.976501	-0.032472	-0.181158	-0.010041	0.043301	-0.011296	-1.160645	0.128052	-0.118042	614	16_15_07_9550000
0.976501	-0.032472	-0.180944	0.001569	0.051773	-0.001569	-1.160645	0.128052	-0.118408	615	16_15_07_9630000
0.976714	-0.032472	-0.180517	0.017571	0.054283	-0.002824	-1.160522	0.128052	-0.118896	616	16_15_07_9710000
0.976714	-0.032472	-0.180090	0.005648	0.068717	-0.005020	-1.160522	0.127930	-0.119507	617	16_15_07_9790000
0.976928	-0.032258	-0.179449	0.015689	0.079071	-0.009099	-1.160522	0.127808	-0.120117	618	16_15_07_9870000
0.976928	-0.032258	-0.178808	0.010355	0.082837	-0.010355	-1.160400	0.127808	-0.120850	619	16_15_07_9950000
0.977142	-0.032258	-0.178381	0.010355	0.085974	-0.006903	-1.160278	0.127686	-0.121582	620	16_15_08_0030000
0.977142	-0.032258	-0.177740	0.001883	0.073737	-0.013179	-1.160278	0.127563	-0.122314	621	16_15_08_0110000
0.977355	-0.032044	-0.177099	-0.004393	0.080640	-0.008158	-1.160156	0.127441	-0.123047	622	16_15_08_0190000
0.977355	-0.032044	-0.176458	-0.002196	0.080640	-0.000628	-1.160156	0.127441	-0.123657	623	16_15_08_0270000
0.977569	-0.032044	-0.176031	-0.007844	0.058676	0.004393	-1.160034	0.127441	-0.124268	624	16_15_08_0350000
0.977569	-0.032044	-0.175604	-0.006903	0.055224	-0.004079	-1.160034	0.127441	-0.124756	625	16_15_08_0430000
0.977569	-0.032044	-0.175390	-0.004707	0.043615	0.002824	-1.160034	0.127441	-0.125244	626	16_15_08_0510000
0.977783	-0.032044	-0.174963	-0.006275	0.050518	0.007844	-1.159912	0.127441	-0.125610	627	16_15_08_0590000
0.977783	-0.032044	-0.174535	-0.005962	0.053028	-0.004079	-1.159912	0.127441	-0.126099	628	16_15_08_0670000
0.977783	-0.032044	-0.174322	-0.005020	0.048635	-0.000314	-1.159790	0.127441	-0.126465	629	16_15_08_0750000
0.977996	-0.032044	-0.173894	-0.005020	0.061186	-0.004393	-1.159790	0.127441	-0.126953	630	16_15_08_0830000
0.977996	-0.032044	-0.173254	0.013806	0.068403	0.002196	-1.159668	0.127319	-0.127563	631	16_15_08_0910000
0.977996	-0.032044	-0.172826	0.003452	0.074051	-0.000314	-1.159668	0.127319	-0.128174	632	16_15_08_0990000
0.978210	-0.032044	-0.172185	0.012237	0.070286	-0.009727	-1.159546	0.127319	-0.128784	633	16_15_08_1070000
0.978210	-0.032044	-0.171758	0.016630	0.057421	0.001255	-1.159546	0.127197	-0.129395	634	16_15_08_1150000
0.978423	-0.032044	-0.171331	0.005020	0.069030	-0.003452	-1.159424	0.127197	-0.130005	635	16_15_08_1230000
0.978423	-0.032044	-0.170904	0.005648	0.063696	0.006275	-1.159424	0.127197	-0.130493	636	16_15_08_1310000
0.978423	-0.032258	-0.170476	0.018199	0.048008	0.008158	-1.159302	0.127197	-0.130981	637	16_15_08_1390000
0.978637	-0.032258	-0.170049	-0.000314	0.049890	-0.001883	-1.159302	0.127197	-0.131470	638	16_15_08_1470000
0.978637	-0.032258	-0.169622	0.017571	0.048321	0.006275	-1.159302	0.127197	-0.131958	639	16_15_08_1550000
0.978637	-0.032258	-0.169408	0.018199	0.050204	-0.000941	-1.159180	0.127197	-0.132324	640	16_15_08_1630000
0.978637	-0.032258	-0.168981	0.016316	0.055538	0.002510	-1.159180	0.127197	-0.132813	641	16_15_08_1710000
0.978851	-0.032472	-0.168554	-0.020395	0.048949	0.002824	-1.159058	0.127197	-0.133301	642	16_15_08_1790000
0.978851	-0.032472	-0.168126	-0.024161	0.062127	0.001569	-1.159058	0.127319	-0.133789	643	16_15_08_1870000
0.978851	-0.032258	-0.167699	-0.021337	0.059931	-0.009099	-1.158936	0.127197	-0.134277	644	16_15_08_1950000
0.979064	-0.032258	-0.167272	-0.017571	0.058676	0.004079	-1.158936	0.127197	-0.134766	645	16_15_08_2030000
0.979064	-0.032258	-0.166845	-0.010668	0.059617	0.005962	-1.158813	0.127319	-0.135254	646	16_15_08_2110000
0.979064	-0.032258	-0.166417	0.006903	0.051145	-0.000941	-1.158813	0.127319	-0.135742	647	16_15_08_2190000
0.979278	-0.032258	-0.165990	0.008158	0.058990	0.000000	-1.158813	0.127319	-0.136230	648	16_15_08_2270000
0.979278	-0.032258	-0.165563	0.027298	0.058990	-0.005648	-1.158691	0.127197	-0.136719	649	16_15_08_2350000
0.979278	-0.032258	-0.165349	0.022592	0.049890	-0.009099	-1.158691	0.127075	-0.137207	650	16_15_08_2430000
0.979492	-0.032258	-0.164922	0.011610	0.049890	0.008472	-1.158569	0.127075	-0.137695	651	16_15_08_2510000
0.979492	-0.032472	-0.164495	0.019454	0.045497	-0.004079	-1.158569	0.127075	-0.138062	652	16_15_08_2590000
0.979492	-0.032258	-0.164068	0.002510	0.054283	-0.012865	-1.158569	0.126953	-0.138550	653	16_15_08_2670000
0.979705	-0.032258	-0.163854	0.003138	0.041104	0.009727	-1.158447	0.126953	-0.138916	654	16_15_08_2750000
0.979705	-0.032472	-0.163427	0.012551	0.038594	0.003138	-1.158447	0.126953	-0.139282	655	16_15_08_2830000
0.979705	-0.032472	-0.163213	0.010355	0.036398	0.008472	-1.158325	0.127075	-0.139648	656	16_15_08_2910000
0.979705	-0.032472	-0.162999	0.006903	0.027612	0.009727	-1.158325	0.127075	-0.139893	657	16_15_08_2990000
0.979705	-0.032685	-0.162786	0.010668	0.038594	0.012865	-1.158325	0.127197	-0.140259	658	16_15_08_3070000
0.979919	-0.032899	-0.162358	0.023847	0.049576	0.010668	-1.158203	0.127197	-0.140625	659	16_15_08_3150000
0.979919	-0.032899	-0.162145	0.010041	0.039222	0.008158	-1.158203	0.127319	-0.140991	660	16_15_08_3230000
0.979919	-0.032899	-0.161931	0.013806	0.031064	0.000000	-1.158081	0.127319	-0.141357	661	16_15_08_3310000
0.979919	-0.032899	-0.161504	0.012865	0.044242	0.003452	-1.158081	0.127319	-0.141602	662	16_15_08_3390000
0.979919	-0.032899	-0.161290	0.010041	0.033888	-0.004393	-1.158081	0.127319	-0.141968	663	16_15_08_3470000
0.980132	-0.032899	-0.161077	0.013179	0.038908	0.000000	-1.158081	0.127197	-0.142334	664	16_15_08_3550000
0.980132	-0.033113	-0.160649	0.025102	0.051145	-0.000628	-1.157959	0.127197	-0.142700	665	16_15_08_3630000
0.980132	-0.033113	-0.160436	0.005020	0.037339	0.000000	-1.157959	0.127197	-0.143066	666	16_15_08_3710000
0.980132	-0.033113	-0.160222	0.002824	0.038281	0.010355	-1.157837	0.127197	-0.143433	667	16_15_08_3790000
0.980346	-0.033113	-0.159795	0.005648	0.041104	0.001883	-1.157837	0.127197	-0.143799	668	16_15_08_3870000
0.980346	-0.033113	-0.159581	0.012237	0.047380	0.012865	-1.157837	0.127319	-0.144165	669	16_15_08_3950000
0.980346	-0.033326	-0.159154	0.000628	0.043301	0.002824	-1.157715	0.127319	-0.144531	670	16_15_08_4030000
0.980346	-0.033326	-0.158940	0.005020	0.038908	0.004079	-1.157715	0.127319	-0.144897	671	16_15_08_4110000
0.980346	-0.033326	-0.158727	-0.004393	0.044242	-0.000628	-1.157593	0.127319	-0.145264	672	16_15_08_4190000
0.980560	-0.033326	-0.158300	-0.001883	0.037967	-0.006275	-1.157593	0.127319	-0.145630	673	16_15_08_4270000
0.980560	-0.033326	-0.158086	0.011296	0.036398	0.004393	-1.157593	0.127319	-0.145874	674	16_15_08_4350000
0.980560	-0.033326	-0.157872	0.011610	0.028553	-0.007217	-1.157471	0.127197	-0.146240	675	16_15_08_4430000
0.980560	-0.033326	-0.157659	0.012237	0.040477	-0.005648	-1.157471	0.127197	-0.146484	676	16_15_08_4510000
0.980560	-0.033326	-0.157445	-0.005020	0.020082	0.002824	-1.157471	0.127197	-0.146729	677	16_15_08_4590000
0.980560	-0.033326	-0.157231	-0.005334	0.023533	0.005962	-1.157471	0.127197	-0.146973	678	16_15_08_4670000
0.980773	-0.033326	-0.157018	0.016316	0.024474	0.007844	-1.157349	0.127197	-0.147095	679	16_15_08_4750000
0.980773	-0.033540	-0.156804	-0.009099	0.018826	0.008158	-1.157349	0.127319	-0.147339	680	16_15_08_4830000
0.980773	-0.033540	-0.156804	0.000314	0.014434	-0.000941	-1.157349	0.127319	-0.147461	681	16_15_08_4910000
0.980773	-0.033540	-0.156590	-0.002196	0.021023	-0.004393	-1.157349	0.127319	-0.147583	682	16_15_08_4990000
0.980773	-0.033540	-0.156590	-0.000628	0.020709	0.001883	-1.157349	0.127197	-0.147705	683	16_15_08_5070000
0.980773	-0.033540	-0.156377	-0.006275	0.011610	0.004079	-1.157349	0.127319	-0.147827	684	16_15_08_5150000
0.980773	-0.033540	-0.156377	0.002510	0.004707	0.001883	-1.157349	0.127319	-0.147949	685	16_15_08_5230000
0.980773	-0.033540	-0.156377	-0.015689	-0.004393	0.001569	-1.157349	0.127319	-0.147949	686	16_15_08_5310000
0.980773	-0.033540	-0.156590	-0.007844	-0.024161	0.012237	-1.157349	0.127319	-0.147705	687	16_15_08_5390000
0.980773	-0.033753	-0.156804	-0.017885	-0.026985	0.007844	-1.157349	0.127441	-0.147461	688	16_15_08_5470000
0.980773	-0.033753	-0.157018	-0.003138	-0.032946	0.007217	-1.157349	0.127563	-0.147217	689	16_15_08_5550000
0.980560	-0.033753	-0.157231	-0.005962	-0.031377	0.011923	-1.157349	0.127563	-0.146851	690	16_15_08_5630000
0.980560	-0.033967	-0.157445	-0.009413	-0.037025	0.011923	-1.157471	0.127686	-0.146484	691	16_15_08_5710000
0.980560	-0.033967	-0.157872	-0.007531	-0.029809	0.002510	-1.157471	0.127808	-0.146240	692	16_15_08_5790000
0.980560	-0.033967	-0.158086	-0.006275	-0.020709	-0.004393	-1.157471	0.127808	-0.145996	693	16_15_08_5870000
0.980560	-0.033753	-0.158300	-0.001569	-0.035770	-0.010982	-1.157471	0.127686	-0.145630	694	16_15_08_5950000
0.980346	-0.033753	-0.158513	-0.009727	-0.032946	-0.005020	-1.157593	0.127563	-0.145386	695	16_15_08_6030000
0.980346	-0.033753	-0.158727	0.007217	-0.040163	-0.010982	-1.157593	0.127563	-0.145020	696	16_15_08_6110000
0.980346	-0.033753	-0.159154	0.015689	-0.040163	0.006275	-1.157715	0.127441	-0.144653	697	16_15_08_6190000
0.980346	-0.033753	-0.159581	-0.005334	-0.039536	0.002510	-1.157715	0.127563	-0.144287	698	16_15_08_6270000
0.980132	-0.033753	-0.159795	-0.011923	-0.027612	-0.006903	-1.157715	0.127441	-0.143921	699	16_15_08_6350000
0.980132	-0.033753	-0.160009	-0.009099	-0.011610	-0.005020	-1.157837	0.127441	-0.143677	700	16_15_08_6430000
0.980132	-0.033540	-0.160009	-0.023533	-0.010982	-0.002196	-1.157837	0.127441	-0.143555	701	16_15_08_6510000
0.980132	-0.033540	-0.160222	-0.025102	-0.022592	0.003452	-1.157837	0.127441	-0.143311	702	16_15_08_6590000
0.980132	-0.033540	-0.160436	-0.023219	-0.020395	0.004079	-1.157837	0.127441	-0.143066	703	16_15_08_6670000
0.980132	-0.033540	-0.160649	-0.016944	-0.018513	-0.004393	-1.157837	0.127563	-0.142944	704	16_15_08_6750000
0.980132	-0.033540	-0.160863	-0.013806	-0.043928	-0.008786	-1.157959	0.127441	-0.142578	705	16_15_08_6830000
0.979919	-0.033540	-0.161290	0.005962	-0.059931	-0.000314	-1.157959	0.127441	-0.142090	706	16_15_08_6910000
0.979919	-0.033540	-0.161718	-0.018199	-0.064638	0.004393	-1.158081	0.127441	-0.141479	707	16_15_08_6990000
0.979919	-0.033540	-0.162358	-0.019454	-0.082209	-0.001569	-1.158203	0.127441	-0.140869	708	16_15_08_7070000
0.979705	-0.033540	-0.162999	0.001569	-0.073737	-0.008786	-1.158203	0.127441	-0.140137	709	16_15_08_7150000
0.979705	-0.033540	-0.163427	0.004707	-0.075620	-0.002824	-1.158325	0.127319	-0.139404	710	16_15_08_7230000
0.979492	-0.033540	-0.164068	-0.005334	-0.056166	0.008158	-1.158447	0.127319	-0.138794	711	16_15_08_7310000
0.979492	-0.033540	-0.164495	-0.005334	-0.039222	-0.007844	-1.158447	0.127319	-0.138306	712	16_15_08_7390000
0.979492	-0.033326	-0.164708	-0.015689	-0.035770	-0.004393	-1.158447	0.127319	-0.137939	713	16_15_08_7470000
0.979278	-0.033326	-0.164922	-0.014747	-0.029809	-0.007844	-1.158569	0.127197	-0.137573	714	16_15_08_7550000
0.979278	-0.033326	-0.165136	-0.038281	-0.031377	-0.016003	-1.158569	0.127197	-0.137329	715	16_15_08_7630000
0.979278	-0.033113	-0.165563	-0.040163	-0.037339	-0.008158	-1.158691	0.127075	-0.136963	716	16_15_08_7710000
0.979278	-0.033113	-0.165777	-0.015061	-0.040791	-0.004393	-1.158691	0.127075	-0.136597	717	16_15_08_7790000
0.979278	-0.032899	-0.166204	-0.020395	-0.039849	-0.007217	-1.158813	0.126953	-0.136108	718	16_15_08_7870000
0.979064	-0.032899	-0.166417	-0.014747	-0.033574	-0.002196	-1.158813	0.126953	-0.135742	719	16_15_08_7950000
0.979064	-0.032899	-0.166845	-0.014120	-0.025416	0.000314	-1.158813	0.126953	-0.135498	720	16_15_08_8030000
0.979064	-0.032899	-0.166845	-0.010041	-0.020395	0.003138	-1.158813	0.126953	-0.135254	721	16_15_08_8110000
0.979064	-0.032899	-0.167058	-0.018826	-0.010668	0.003138	-1.158936	0.126953	-0.135010	722	16_15_08_8190000
0.979064	-0.032899	-0.167272	-0.028553	0.000000	0.003765	-1.158936	0.127075	-0.135010	723	16_15_08_8270000
0.979064	-0.032899	-0.167272	-0.009099	0.005648	0.002196	-1.158936	0.127075	-0.134888	724	16_15_08_8350000
0.979064	-0.032899	-0.167272	0.010041	0.002510	-0.008786	-1.158936	0.127075	-0.135010	725	16_15_08_8430000
0.979064	-0.032899	-0.167272	-0.005962	-0.008786	0.000000	-1.158936	0.126953	-0.134888	726	16_15_08_8510000
0.979064	-0.032899	-0.167486	-0.023219	-0.033260	-0.000314	-1.158936	0.126953	-0.134644	727	16_15_08_8590000
0.978851	-0.032899	-0.167699	-0.020395	-0.041732	0.008158	-1.158936	0.127075	-0.134277	728	16_15_08_8670000
0.978851	-0.032899	-0.168126	-0.001569	-0.033888	-0.000314	-1.159058	0.127075	-0.133911	729	16_15_08_8750000
0.978851	-0.032899	-0.168340	0.003138	-0.026671	-0.005334	-1.159058	0.127075	-0.133667	730	16_15_08_8830000
0.978851	-0.032685	-0.168554	-0.009413	-0.032005	-0.015061	-1.159058	0.126953	-0.133301	731	16_15_08_8910000
0.978851	-0.032685	-0.168767	-0.012551	-0.027298	-0.005648	-1.159180	0.126831	-0.133057	732	16_15_08_8990000
0.978637	-0.032685	-0.168981	-0.019768	-0.023219	0.003138	-1.159180	0.126831	-0.132813	733	16_15_08_9070000
0.978637	-0.032685	-0.169195	0.011610	-0.034201	-0.004393	-1.159180	0.126831	-0.132568	734	16_15_08_9150000
0.978637	-0.032685	-0.169408	0.001255	-0.029809	-0.008786	-1.159180	0.126831	-0.132202	735	16_15_08_9230000
0.978637	-0.032472	-0.169622	0.017571	-0.016630	-0.010355	-1.159302	0.126709	-0.131958	736	16_15_08_9310000
0.978637	-0.032472	-0.169836	0.007217	-0.016630	0.000000	-1.159302	0.126587	-0.131836	737	16_15_08_9390000
0.978637	-0.032472	-0.170049	0.003452	-0.018513	-0.005334	-1.159302	0.126587	-0.131714	738	16_15_08_9470000
0.978637	-0.032472	-0.170263	-0.008158	-0.022592	-0.004393	-1.159302	0.126465	-0.131470	739	16_15_08_9550000
0.978423	-0.032472	-0.170476	-0.004707	-0.028867	-0.009099	-1.159424	0.126465	-0.131226	740	16_15_08_9630000
0.978423	-0.032472	-0.170690	-0.013492	-0.032005	-0.000314	-1.159424	0.126465	-0.130859	741	16_15_08_9710000
0.978423	-0.032472	-0.170904	-0.015375	-0.038594	0.002510	-1.159424	0.126465	-0.130493	742	16_15_08_9790000
0.978423	-0.032258	-0.171117	-0.004079	-0.033260	-0.009727	-1.159546	0.126343	-0.130127	743	16_15_08_9870000
0.978210	-0.032258	-0.171545	-0.017885	-0.038594	-0.006903	-1.159546	0.126343	-0.129883	744	16_15_08_9950000
0.978210	-0.032258	-0.171758	-0.010041	-0.031691	0.006275	-1.159546	0.126343	-0.129517	745	16_15_09_0030000
0.978210	-0.032258	-0.171972	-0.026043	-0.025416	0.003765	-1.159668	0.126343	-0.129150	746	16_15_09_0110000
0.978210	-0.032258	-0.172185	-0.011296	-0.028553	0.003765	-1.159668	0.126465	-0.128906	747	16_15_09_0190000
0.978210	-0.032258	-0.172399	-0.003452	-0.016630	-0.003452	-1.159668	0.126465	-0.128662	748	16_15_09_0270000
0.978210	-0.032258	-0.172613	-0.013492	-0.015061	0.001569	-1.159668	0.126465	-0.128540	749	16_15_09_0350000
0.977996	-0.032258	-0.172826	-0.013179	-0.013806	0.001569	-1.159668	0.126465	-0.128296	750	16_15_09_0430000
0.977996	-0.032258	-0.172826	-0.006903	-0.018826	0.000000	-1.159668	0.126465	-0.128174	751	16_15_09_0510000
0.977996	-0.032258	-0.173040	-0.014120	-0.024788	-0.006589	-1.159790	0.126343	-0.127930	752	16_15_09_0590000
0.977996	-0.032258	-0.173254	-0.013179	-0.023219	-0.008158	-1.159790	0.126343	-0.127686	753	16_15_09_0670000
0.977996	-0.032044	-0.173467	-0.016316	-0.029809	-0.007217	-1.159790	0.126221	-0.127441	754	16_15_09_0750000
0.977996	-0.032044	-0.173681	-0.003452	-0.030750	-0.002196	-1.159912	0.126221	-0.127075	755	16_15_09_0830000
0.977996	-0.032044	-0.174108	-0.005334	-0.029181	-0.000941	-1.159912	0.126221	-0.126831	756	16_15_09_0910000
0.977783	-0.032044	-0.174322	0.005020	-0.028553	-0.001255	-1.159912	0.126221	-0.126587	757	16_15_09_0990000
0.977783	-0.032044	-0.174535	0.005334	-0.037653	0.007217	-1.159912	0.126221	-0.126221	758	16_15_09_1070000
0.977783	-0.032044	-0.174963	0.019454	-0.044556	-0.000941	-1.160034	0.126221	-0.125854	759	16_15_09_1150000
0.977783	-0.032044	-0.175176	0.006589	-0.033574	-0.004393	-1.160034	0.126221	-0.125488	760	16_15_09_1230000
0.977569	-0.032044	-0.175390	-0.005334	-0.020082	-0.004393	-1.160034	0.126099	-0.125244	761	16_15_09_1310000
0.977569	-0.032044	-0.175604	-0.004393	-0.018826	-0.005648	-1.160156	0.126099	-0.125000	762	16_15_09_1390000
0.977569	-0.032044	-0.175817	0.007844	-0.020395	-0.001255	-1.160156	0.125977	-0.124878	763	16_15_09_1470000
0.977569	-0.032044	-0.176031	0.007531	-0.025102	0.004079	-1.160156	0.125977	-0.124634	764	16_15_09_1550000
0.977569	-0.032044	-0.176244	-0.018199	-0.017885	-0.000314	-1.160156	0.125977	-0.124390	765	16_15_09_1630000
0.977569	-0.032044	-0.176458	-0.009099	-0.028867	-0.008786	-1.160156	0.125977	-0.124146	766	16_15_09_1710000
0.977355	-0.032044	-0.176672	-0.007531	-0.018199	0.007844	-1.160278	0.125977	-0.123901	767	16_15_09_1790000
0.977355	-0.032044	-0.176672	-0.017571	-0.025416	0.008158	-1.160278	0.126099	-0.123657	768	16_15_09_1870000
0.977355	-0.032044	-0.176885	-0.011296	-0.023847	-0.006589	-1.160278	0.126099	-0.123413	769	16_15_09_1950000
0.977355	-0.032044	-0.177099	-0.002196	-0.020082	-0.000941	-1.160278	0.126099	-0.123169	770	16_15_09_2030000
0.977355	-0.032044	-0.177313	-0.000941	-0.013179	0.003138	-1.160278	0.125977	-0.123047	771	16_15_09_2110000
0.977355	-0.032044	-0.177313	0.018199	-0.010041	0.011923	-1.160278	0.126099	-0.122925	772	16_15_09_2190000
0.977355	-0.032044	-0.177526	0.013806	-0.022278	0.006275	-1.160278	0.126099	-0.122803	773	16_15_09_2270000
0.977142	-0.032044	-0.177740	-0.007217	-0.022906	-0.007217	-1.160400	0.126099	-0.122559	774	16_15_09_2350000
0.977142	-0.032044	-0.177953	-0.013806	-0.020082	-0.001883	-1.160400	0.126099	-0.122314	775	16_15_09_2430000
0.977142	-0.032044	-0.178167	-0.013179	-0.026671	-0.007531	-1.160400	0.126099	-0.122070	776	16_15_09_2510000
0.977142	-0.032044	-0.178381	-0.003765	-0.027612	-0.015375	-1.160400	0.125977	-0.121826	777	16_15_09_2590000
0.977142	-0.031831	-0.178594	-0.003138	-0.022592	0.005020	-1.160522	0.125854	-0.121582	778	16_15_09_2670000
0.977142	-0.032044	-0.178808	0.003452	-0.021023	-0.000314	-1.160522	0.125854	-0.121338	779	16_15_09_2750000
0.976928	-0.032044	-0.178808	0.003452	-0.017571	0.005020	-1.160522	0.125854	-0.121216	780	16_15_09_2830000
0.976928	-0.032044	-0.179022	-0.002824	-0.020082	0.005020	-1.160522	0.125977	-0.120972	781	16_15_09_2910000
0.976928	-0.032044	-0.179235	-0.009099	-0.009099	0.004079	-1.160522	0.125977	-0.120850	782	16_15_09_2990000
0.976928	-0.032044	-0.179235	-0.008786	-0.003138	0.004079	-1.160522	0.125977	-0.120728	783	16_15_09_3070000
0.976928	-0.032044	-0.179235	0.004707	-0.011610	0.006275	-1.160522	0.126099	-0.120605	784	16_15_09_3150000
0.976928	-0.032044	-0.179449	-0.010041	-0.011610	-0.010041	-1.160522	0.126099	-0.120483	785	16_15_09_3230000
0.976928	-0.032044	-0.179449	0.003765	-0.007531	-0.013179	-1.160645	0.125977	-0.120361	786	16_15_09_3310000
0.976928	-0.032044	-0.179662	-0.007217	-0.010668	-0.005648	-1.160645	0.125854	-0.120361	787	16_15_09_3390000
0.976928	-0.032044	-0.179662	-0.001255	-0.014120	-0.006903	-1.160645	0.125732	-0.120117	788	16_15_09_3470000
0.976928	-0.031831	-0.179876	0.000941	-0.002824	-0.000628	-1.160645	0.125732	-0.120117	789	16_15_09_3550000
0.976928	-0.031831	-0.179876	-0.010982	-0.001569	0.000000	-1.160645	0.125732	-0.119995	790	16_15_09_3630000
0.976714	-0.032044	-0.179876	-0.015375	-0.013806	0.007844	-1.160645	0.125732	-0.119873	791	16_15_09_3710000
0.976714	-0.032044	-0.180090	-0.023533	-0.002824	-0.005648	-1.160645	0.125732	-0.119873	792	16_15_09_3790000
0.976714	-0.031831	-0.180090	0.002824	-0.002510	-0.001255	-1.160645	0.125732	-0.119751	793	16_15_09_3870000
0.976714	-0.031831	-0.180090	-0.007531	-0.002824	0.010355	-1.160645	0.125732	-0.119751	794	16_15_09_3950000
0.976714	-0.032044	-0.180090	-0.010668	0.003452	0.001255	-1.160645	0.125854	-0.119751	795	16_15_09_4030000
0.976714	-0.032044	-0.180090	-0.006589	0.000941	-0.002510	-1.160645	0.125854	-0.119751	796	16_15_09_4110000
0.976714	-0.032044	-0.180090	-0.009727	-0.002510	0.005962	-1.160645	0.125854	-0.119629	797	16_15_09_4190000
0.976714	-0.032044	-0.180090	0.003138	-0.007844	-0.001255	-1.160645	0.125854	-0.119629	798	16_15_09_4270000
0.976714	-0.032044	-0.180303	0.005020	-0.010355	0.006275	-1.160767	0.125854	-0.119507	799	16_15_09_4350000
0.976714	-0.032044	-0.180303	-0.008472	-0.013806	-0.006589	-1.160767	0.125854	-0.119385	800	16_15_09_4430000
0.976714	-0.032044	-0.180517	-0.005020	-0.007844	0.000941	-1.160767	0.125854	-0.119263	801	16_15_09_4510000
0.976714	-0.032044	-0.180517	-0.006903	-0.014434	0.002824	-1.160767	0.125854	-0.119141	802	16_15_09_4590000
0.976714	-0.032044	-0.180731	-0.013179	-0.006903	-0.000314	-1.160767	0.125854	-0.119019	803	16_15_09_4670000
0.976714	-0.032044	-0.180731	-0.008786	-0.013806	0.001255	-1.160767	0.125854	-0.118896	804	16_15_09_4750000
0.976501	-0.032044	-0.180944	0.007217	-0.034515	0.001883	-1.160767	0.125854	-0.118652	805	16_15_09_4830000
0.976501	-0.032044	-0.181371	0.021964	-0.051459	-0.004079	-1.160889	0.125854	-0.118286	806	16_15_09_4910000
0.976501	-0.032044	-0.181799	0.012551	-0.065265	0.007531	-1.160889	0.125854	-0.117676	807	16_15_09_4990000
0.976287	-0.032044	-0.182226	-0.001255	-0.057421	0.008158	-1.160889	0.125854	-0.117188	808	16_15_09_5070000
0.976287	-0.032044	-0.182653	-0.007844	-0.048635	0.001883	-1.161011	0.125977	-0.116699	809	16_15_09_5150000
0.976287	-0.032258	-0.183081	-0.013806	-0.030122	0.006903	-1.161011	0.125977	-0.116211	810	16_15_09_5230000
0.976287	-0.032258	-0.183294	-0.014120	-0.000941	0.014120	-1.161011	0.126099	-0.116089	811	16_15_09_5310000
0.976287	-0.032258	-0.183081	-0.020395	0.023533	0.012237	-1.161011	0.126221	-0.116211	812	16_15_09_5390000
0.976287	-0.032472	-0.183081	-0.006589	0.018513	0.010982	-1.161011	0.126343	-0.116333	813	16_15_09_5470000
0.976287	-0.032472	-0.182867	-0.004707	0.011923	0.014120	-1.161011	0.126343	-0.116455	814	16_15_09_5550000
0.976287	-0.032472	-0.182867	0.018513	-0.005648	0.009099	-1.160889	0.126465	-0.116455	815	16_15_09_5630000
0.976287	-0.032685	-0.183081	0.031691	-0.011610	-0.000314	-1.160889	0.126465	-0.116333	816	16_15_09_5710000
0.976287	-0.032685	-0.183081	0.010982	-0.035457	-0.000941	-1.161011	0.126465	-0.116211	817	16_15_09_5790000
0.976074	-0.032685	-0.183508	-0.003138	-0.046752	0.012237	-1.161011	0.126465	-0.115723	818	16_15_09_5870000
0.976074	-0.032899	-0.183935	0.010668	-0.061814	0.011923	-1.161011	0.126587	-0.115234	819	16_15_09_5950000
0.975860	-0.032899	-0.184362	0.010668	-0.055538	0.014434	-1.161133	0.126709	-0.114746	820	16_15_09_6030000
0.975860	-0.033113	-0.184790	0.015689	-0.040163	0.005334	-1.161133	0.126831	-0.114258	821	16_15_09_6110000
0.975860	-0.033113	-0.185003	-0.000628	-0.032946	0.006589	-1.161133	0.126831	-0.113892	822	16_15_09_6190000
0.975860	-0.033113	-0.185430	-0.006275	-0.034515	0.007531	-1.161133	0.126831	-0.113647	823	16_15_09_6270000
0.975646	-0.033113	-0.185644	-0.017885	-0.032319	0.011923	-1.161255	0.126953	-0.113281	824	16_15_09_6350000
0.975646	-0.033326	-0.185858	0.003138	-0.024161	0.000314	-1.161255	0.127075	-0.113037	825	16_15_09_6430000
0.975646	-0.033326	-0.186071	-0.019140	-0.004707	0.001255	-1.161255	0.127075	-0.112793	826	16_15_09_6510000
0.975646	-0.033326	-0.186071	-0.015375	-0.015375	0.009099	-1.161255	0.127075	-0.112671	827	16_15_09_6590000
0.975646	-0.033326	-0.186285	-0.018513	-0.009727	0.015689	-1.161255	0.127197	-0.112549	828	16_15_09_6670000
0.975646	-0.033540	-0.186285	-0.013806	-0.003452	0.025416	-1.161255	0.127441	-0.112427	829	16_15_09_6750000
0.975646	-0.033753	-0.186285	-0.011296	-0.023533	0.016630	-1.161255	0.127563	-0.112305	830	16_15_09_6830000
0.975433	-0.033753	-0.186499	-0.009413	-0.016003	0.014747	-1.161255	0.127686	-0.112061	831	16_15_09_6910000
0.975433	-0.033967	-0.186712	-0.004707	-0.007844	0.013492	-1.161255	0.127808	-0.111938	832	16_15_09_6990000
0.975433	-0.033967	-0.186712	-0.005648	-0.014120	0.015689	-1.161255	0.127930	-0.111816	833	16_15_09_7070000
0.975433	-0.034181	-0.186926	-0.010041	-0.007217	0.001883	-1.161255	0.128052	-0.111694	834	16_15_09_7150000
0.975433	-0.034181	-0.186926	-0.003765	-0.002196	0.003452	-1.161255	0.128052	-0.111694	835	16_15_09_7230000
0.975433	-0.034181	-0.186926	-0.005962	0.007531	0.011296	-1.161255	0.128174	-0.111694	836	16_15_09_7310000
0.975433	-0.034181	-0.186926	-0.003138	0.005962	0.008472	-1.161255	0.128174	-0.111694	837	16_15_09_7390000
0.975433	-0.034394	-0.186926	-0.011610	-0.003765	0.007844	-1.161255	0.128296	-0.111694	838	16_15_09_7470000
0.975433	-0.034394	-0.186926	-0.010982	-0.003452	-0.006903	-1.161255	0.128296	-0.111694	839	16_15_09_7550000
0.975433	-0.034394	-0.186926	-0.012551	0.009727	-0.001569	-1.161255	0.128296	-0.111694	840	16_15_09_7630000
0.975433	-0.034394	-0.186926	-0.017571	0.007844	-0.000314	-1.161255	0.128296	-0.111694	841	16_15_09_7710000
0.975433	-0.034181	-0.186926	-0.018513	0.005334	-0.010041	-1.161255	0.128174	-0.111694	842	16_15_09_7790000
0.975433	-0.034181	-0.186712	0.000628	0.008158	-0.014120	-1.161255	0.128174	-0.111694	843	16_15_09_7870000
0.975433	-0.033967	-0.186712	0.004707	-0.003765	-0.015061	-1.161255	0.127930	-0.111816	844	16_15_09_7950000
0.975433	-0.033967	-0.186926	0.002196	-0.002510	-0.018199	-1.161255	0.127808	-0.111694	845	16_15_09_8030000
0.975433	-0.033753	-0.186926	0.000000	0.001883	-0.021964	-1.161255	0.127563	-0.111694	846	16_15_09_8110000
0.975433	-0.033753	-0.186926	0.006903	-0.001883	-0.017571	-1.161255	0.127441	-0.111694	847	16_15_09_8190000
0.975433	-0.033540	-0.186926	0.009727	0.006903	-0.017571	-1.161377	0.127197	-0.111694	848	16_15_09_8270000
0.975433	-0.033540	-0.186926	0.012551	0.016316	-0.021964	-1.161377	0.127075	-0.111816	849	16_15_09_8350000
0.975433	-0.033326	-0.186712	-0.003138	0.000941	-0.021337	-1.161377	0.126831	-0.111816	850	16_15_09_8430000
0.975433	-0.033113	-0.186712	-0.021650	0.016944	-0.026043	-1.161377	0.126587	-0.111938	851	16_15_09_8510000
0.975433	-0.032899	-0.186712	-0.015061	0.007531	-0.031377	-1.161377	0.126343	-0.111938	852	16_15_09_8590000
0.975433	-0.032685	-0.186712	-0.029181	0.000941	-0.020395	-1.161377	0.126099	-0.111938	853	16_15_09_8670000
0.975433	-0.032472	-0.186712	-0.017258	0.014434	-0.019454	-1.161377	0.125977	-0.111938	854	16_15_09_8750000
0.975433	-0.032258	-0.186499	-0.029495	0.008158	-0.032005	-1.161499	0.125732	-0.112061	855	16_15_09_8830000
0.975646	-0.032044	-0.186499	-0.000941	0.005962	-0.021337	-1.161499	0.125488	-0.112061	856	16_15_09_8910000
0.975646	-0.031831	-0.186499	-0.017885	0.001569	-0.025730	-1.161499	0.125366	-0.112061	857	16_15_09_8990000
0.975646	-0.031617	-0.186499	-0.017885	0.015061	-0.017258	-1.161499	0.125122	-0.112183	858	16_15_09_9070000
0.975646	-0.031404	-0.186499	-0.002510	0.000941	-0.024161	-1.161499	0.125000	-0.112183	859	16_15_09_9150000
0.975646	-0.031404	-0.186499	-0.005962	-0.011296	-0.017258	-1.161621	0.124756	-0.112061	860	16_15_09_9230000
0.975646	-0.031190	-0.186712	-0.002196	-0.014434	-0.021337	-1.161621	0.124512	-0.111938	861	16_15_09_9310000
0.975433	-0.030976	-0.186926	-0.000628	-0.021964	-0.039536	-1.161621	0.124268	-0.111816	862	16_15_09_9390000
0.975433	-0.030763	-0.186926	0.011296	-0.018199	-0.030122	-1.161743	0.124023	-0.111572	863	16_15_09_9470000
0.975433	-0.030549	-0.187139	0.005648	-0.008158	-0.026671	-1.161743	0.123657	-0.111450	864	16_15_09_9550000
0.975433	-0.030335	-0.187139	0.009727	-0.007531	-0.018826	-1.161743	0.123413	-0.111450	865	16_15_09_9630000
0.975433	-0.030122	-0.187353	0.010355	-0.006589	-0.025730	-1.161743	0.123291	-0.111328	866	16_15_09_9710000
0.975433	-0.029908	-0.187353	-0.013179	-0.002510	-0.017885	-1.161865	0.123047	-0.111206	867	16_15_09_9790000
0.975433	-0.029908	-0.187353	-0.017258	-0.005648	-0.017885	-1.161865	0.122925	-0.111206	868	16_15_09_9870000
0.975433	-0.029695	-0.187353	-0.005962	0.005334	-0.027926	-1.161865	0.122681	-0.111206	869	16_15_09_9950000
0.975433	-0.029481	-0.187353	-0.009413	0.011923	-0.021337	-1.161865	0.122437	-0.111206	870	16_15_10_0030000
0.975433	-0.029267	-0.187353	0.015689	0.007844	-0.017571	-1.161865	0.122314	-0.111328	871	16_15_10_0110000
0.975433	-0.029054	-0.187353	0.002510	0.003138	-0.039849	-1.161987	0.121948	-0.111328	872	16_15_10_0190000
0.975433	-0.028840	-0.187353	0.010982	0.014120	-0.017885	-1.161987	0.121704	-0.111450	873	16_15_10_0270000
0.975646	-0.028840	-0.187139	0.006903	0.007217	-0.019140	-1.161987	0.121582	-0.111450	874	16_15_10_0350000
0.975646	-0.028626	-0.187139	0.019140	0.008786	-0.019140	-1.161987	0.121338	-0.111572	875	16_15_10_0430000
0.975646	-0.028413	-0.187139	-0.005648	-0.005334	-0.025730	-1.161987	0.121094	-0.111572	876	16_15_10_0510000
0.975646	-0.028413	-0.187139	0.003452	0.009413	-0.013492	-1.161987	0.120972	-0.111572	877	16_15_10_0590000
0.975646	-0.028199	-0.187139	0.000000	0.006903	-0.013492	-1.161987	0.120850	-0.111572	878	16_15_10_0670000
0.975646	-0.028199	-0.187139	-0.000314	0.009727	-0.012865	-1.161987	0.120728	-0.111694	879	16_15_10_0750000
0.975646	-0.027985	-0.186926	0.008472	0.010668	-0.001255	-1.161987	0.120605	-0.111694	880	16_15_10_0830000
0.975646	-0.027985	-0.186926	-0.012865	0.018513	-0.002510	-1.161987	0.120605	-0.111816	881	16_15_10_0910000
0.975646	-0.027985	-0.186712	-0.008472	0.018513	0.000941	-1.161987	0.120605	-0.111938	882	16_15_10_0990000
0.975646	-0.027985	-0.186712	-0.007217	0.013806	-0.001255	-1.161987	0.120605	-0.112061	883	16_15_10_1070000
0.975646	-0.027985	-0.186499	-0.006903	0.021337	-0.013806	-1.161987	0.120483	-0.112305	884	16_15_10_1150000
0.975646	-0.027772	-0.186499	0.011296	0.018199	-0.008786	-1.161987	0.120361	-0.112427	885	16_15_10_1230000
0.975646	-0.027772	-0.186285	-0.004393	0.012237	-0.002196	-1.161987	0.120361	-0.112549	886	16_15_10_1310000
0.975860	-0.027772	-0.186285	-0.002510	0.021964	0.008786	-1.161987	0.120361	-0.112671	887	16_15_10_1390000
0.975860	-0.027985	-0.186071	-0.013492	0.009413	0.015375	-1.161987	0.120483	-0.112793	888	16_15_10_1470000
0.975860	-0.027985	-0.186071	-0.013492	0.018513	0.028240	-1.161987	0.120728	-0.112915	889	16_15_10_1550000
0.975860	-0.028199	-0.185858	-0.007217	0.012237	0.020082	-1.161865	0.120850	-0.113037	890	16_15_10_1630000
0.975860	-0.028413	-0.185858	-0.006589	0.018513	0.005020	-1.161865	0.120972	-0.113159	891	16_15_10_1710000
0.975860	-0.028413	-0.185644	0.011296	0.015061	0.015689	-1.161865	0.121094	-0.113281	892	16_15_10_1790000
0.975860	-0.028626	-0.185644	0.007217	0.016630	0.012237	-1.161865	0.121216	-0.113403	893	16_15_10_1870000
0.975860	-0.028626	-0.185430	0.012237	0.026985	0.016944	-1.161743	0.121338	-0.113525	894	16_15_10_1950000
0.975860	-0.028840	-0.185217	0.012865	0.031691	0.012551	-1.161743	0.121460	-0.113892	895	16_15_10_2030000
0.975860	-0.028840	-0.185217	0.016316	0.019454	0.000000	-1.161743	0.121460	-0.114014	896	16_15_10_2110000
0.976074	-0.028840	-0.185003	-0.001255	0.022592	0.001883	-1.161743	0.121460	-0.114258	897	16_15_10_2190000
0.976074	-0.028840	-0.184790	0.010355	0.010668	0.009727	-1.161743	0.121460	-0.114380	898	16_15_10_2270000
0.976074	-0.029054	-0.184790	0.037967	0.005648	0.004707	-1.161743	0.121582	-0.114502	899	16_15_10_2350000
0.976074	-0.029054	-0.184790	0.037967	-0.012551	0.011923	-1.161743	0.121582	-0.114502	900	16_15_10_2430000
0.976074	-0.029267	-0.185003	0.037653	-0.010355	0.003452	-1.161743	0.121582	-0.114380	901	16_15_10_2510000
0.975860	-0.029267	-0.185003	0.031691	-0.032319	-0.005020	-1.161743	0.121582	-0.114136	902	16_15_10_2590000
0.975860	-0.029267	-0.185217	0.043615	-0.028240	-0.000628	-1.161743	0.121460	-0.113892	903	16_15_10_2670000
0.975860	-0.029481	-0.185430	0.039222	-0.021650	0.004079	-1.161743	0.121460	-0.113770	904	16_15_10_2750000
0.975860	-0.029481	-0.185644	0.040477	0.005334	0.011296	-1.161743	0.121460	-0.113647	905	16_15_10_2830000
0.975860	-0.029695	-0.185430	0.054283	0.031377	0.001255	-1.161743	0.121460	-0.113892	906	16_15_10_2910000
0.975860	-0.029908	-0.185217	0.074051	0.037967	0.012551	-1.161743	0.121460	-0.114258	907	16_15_10_2990000
0.976074	-0.029908	-0.185003	0.065893	0.042987	0.001883	-1.161743	0.121460	-0.114624	908	16_15_10_3070000
0.976074	-0.030122	-0.184576	0.059617	0.041104	0.010982	-1.161621	0.121460	-0.114990	909	16_15_10_3150000
0.976074	-0.030335	-0.184362	0.038281	0.030750	0.005020	-1.161621	0.121460	-0.115356	910	16_15_10_3230000
0.976074	-0.030335	-0.184149	0.048008	0.042987	0.005962	-1.161621	0.121460	-0.115723	911	16_15_10_3310000
0.976287	-0.030549	-0.183721	0.040477	0.057735	0.016003	-1.161499	0.121582	-0.116211	912	16_15_10_3390000
0.976287	-0.030763	-0.183294	0.038908	0.067775	0.010041	-1.161499	0.121582	-0.116821	913	16_15_10_3470000
0.976287	-0.030976	-0.182653	0.034515	0.088798	0.027612	-1.161377	0.121704	-0.117554	914	16_15_10_3550000
0.976501	-0.031190	-0.182012	0.037025	0.093505	0.021337	-1.161255	0.121948	-0.118408	915	16_15_10_3630000
0.976501	-0.031404	-0.181371	0.033574	0.103546	0.018199	-1.161133	0.122070	-0.119263	916	16_15_10_3710000
0.976714	-0.031617	-0.180517	0.030436	0.095701	0.014434	-1.161011	0.122192	-0.120239	917	16_15_10_3790000
0.976714	-0.031617	-0.179876	0.021650	0.062127	0.006903	-1.161011	0.122314	-0.120972	918	16_15_10_3870000
0.976928	-0.031831	-0.179662	0.003765	0.027298	0.001883	-1.160889	0.122314	-0.121338	919	16_15_10_3950000
0.976928	-0.031831	-0.179662	0.005962	-0.005020	-0.006275	-1.160889	0.122192	-0.121460	920	16_15_10_4030000
0.976928	-0.031617	-0.179662	0.014434	-0.027926	-0.015689	-1.161011	0.122070	-0.121216	921	16_15_10_4110000
0.976714	-0.031617	-0.180090	0.037339	-0.046752	-0.005334	-1.161011	0.121948	-0.120972	922	16_15_10_4190000
0.976714	-0.031617	-0.180303	0.032633	-0.042360	-0.011296	-1.161011	0.121826	-0.120605	923	16_15_10_4270000
0.976714	-0.031617	-0.180731	0.016944	-0.028553	-0.015375	-1.161133	0.121704	-0.120239	924	16_15_10_4350000
0.976714	-0.031404	-0.180731	0.017258	0.000628	-0.015689	-1.161133	0.121582	-0.120117	925	16_15_10_4430000
0.976714	-0.031404	-0.180731	-0.000314	0.027612	-0.012865	-1.161133	0.121460	-0.120239	926	16_15_10_4510000
0.976714	-0.031404	-0.180517	-0.000314	0.047380	-0.013806	-1.161133	0.121338	-0.120605	927	16_15_10_4590000
0.976928	-0.031404	-0.179876	-0.009413	0.069972	0.000941	-1.161011	0.121216	-0.121094	928	16_15_10_4670000
0.976928	-0.031190	-0.179449	-0.021650	0.072796	-0.007531	-1.161011	0.121216	-0.121704	929	16_15_10_4750000
0.977142	-0.031190	-0.178808	-0.017571	0.075933	-0.010982	-1.160889	0.121094	-0.122314	930	16_15_10_4830000
0.977142	-0.030976	-0.178381	-0.040791	0.074051	-0.026671	-1.160889	0.120972	-0.122925	931	16_15_10_4910000
0.977355	-0.030763	-0.177740	-0.038908	0.089112	-0.023533	-1.160889	0.120850	-0.123657	932	16_15_10_4990000
0.977355	-0.030549	-0.177099	-0.034829	0.089740	-0.012865	-1.160767	0.120605	-0.124390	933	16_15_10_5070000
0.977569	-0.030549	-0.176458	-0.051459	0.099467	-0.003138	-1.160645	0.120605	-0.125122	934	16_15_10_5150000
0.977569	-0.030335	-0.175817	-0.045184	0.087229	-0.013806	-1.160645	0.120605	-0.125977	935	16_15_10_5230000
0.977783	-0.030335	-0.175176	-0.018199	0.076875	-0.016003	-1.160522	0.120483	-0.126709	936	16_15_10_5310000
0.977783	-0.030122	-0.174535	-0.020709	0.066834	-0.008786	-1.160522	0.120361	-0.127319	937	16_15_10_5390000
0.977996	-0.030122	-0.174108	-0.014747	0.054597	-0.020395	-1.160400	0.120239	-0.127808	938	16_15_10_5470000
0.977996	-0.029908	-0.173681	-0.026985	0.066834	-0.026043	-1.160400	0.120117	-0.128296	939	16_15_10_5550000
0.977996	-0.029695	-0.173254	-0.016316	0.049890	-0.031377	-1.160400	0.119873	-0.128784	940	16_15_10_5630000
0.978210	-0.029481	-0.173040	-0.008158	0.053655	-0.027926	-1.160400	0.119507	-0.129272	941	16_15_10_5710000
0.978210	-0.029267	-0.172613	-0.002824	0.052087	-0.036398	-1.160400	0.119263	-0.129639	942	16_15_10_5790000
0.978210	-0.028840	-0.172185	0.004079	0.039222	-0.039222	-1.160400	0.118896	-0.130127	943	16_15_10_5870000
0.978423	-0.028626	-0.171972	-0.001255	0.037025	-0.055538	-1.160400	0.118530	-0.130371	944	16_15_10_5950000
0.978423	-0.028199	-0.171758	0.009413	0.029495	-0.052400	-1.160400	0.117920	-0.130737	945	16_15_10_6030000
0.978423	-0.027772	-0.171545	0.004079	0.038908	-0.047066	-1.160400	0.117554	-0.130981	946	16_15_10_6110000
0.978423	-0.027345	-0.171117	-0.018513	0.037653	-0.045497	-1.160400	0.117065	-0.131348	947	16_15_10_6190000
0.978637	-0.027131	-0.170904	-0.026985	0.049263	-0.043301	-1.160400	0.116699	-0.131714	948	16_15_10_6270000
0.978637	-0.026704	-0.170476	0.000314	0.053655	-0.046439	-1.160400	0.116333	-0.132080	949	16_15_10_6350000
0.978851	-0.026276	-0.170049	-0.010982	0.069658	-0.040477	-1.160400	0.115967	-0.132690	950	16_15_10_6430000
0.978851	-0.026063	-0.169408	-0.001255	0.086916	-0.042673	-1.160278	0.115479	-0.133301	951	16_15_10_6510000
0.979064	-0.025849	-0.168767	-0.012237	0.091936	-0.033888	-1.160278	0.115234	-0.134155	952	16_15_10_6590000
0.979064	-0.025422	-0.168126	-0.001255	0.082837	-0.055224	-1.160278	0.114746	-0.134888	953	16_15_10_6670000
0.979278	-0.024995	-0.167486	-0.017258	0.081268	-0.051145	-1.160156	0.114258	-0.135620	954	16_15_10_6750000
0.979278	-0.024567	-0.166845	-0.030436	0.094446	-0.054283	-1.160156	0.113892	-0.136353	955	16_15_10_6830000
0.979492	-0.024140	-0.166204	-0.045811	0.101349	-0.061186	-1.160156	0.113403	-0.137207	956	16_15_10_6910000
0.979705	-0.023713	-0.165349	-0.038281	0.105115	-0.042987	-1.160034	0.112915	-0.138062	957	16_15_10_6990000
0.979705	-0.023286	-0.164708	-0.024788	0.111076	-0.050204	-1.159912	0.112549	-0.139038	958	16_15_10_7070000
0.979919	-0.023072	-0.163854	-0.015061	0.115469	-0.047066	-1.159912	0.112061	-0.140015	959	16_15_10_7150000
0.980132	-0.022645	-0.162999	-0.040791	0.127079	-0.057421	-1.159790	0.111694	-0.140991	960	16_15_10_7230000
0.980346	-0.022004	-0.161931	-0.045811	0.149671	-0.057421	-1.159668	0.111206	-0.142212	961	16_15_10_7310000
0.980560	-0.021577	-0.160649	-0.049263	0.183244	-0.067148	-1.159546	0.110718	-0.143677	962	16_15_10_7390000
0.980773	-0.020936	-0.159154	-0.072168	0.208974	-0.065579	-1.159424	0.110107	-0.145386	963	16_15_10_7470000
0.980987	-0.020508	-0.157445	-0.090995	0.219956	-0.059303	-1.159180	0.109619	-0.147217	964	16_15_10_7550000
0.981414	-0.020081	-0.155950	-0.101977	0.218073	-0.053342	-1.159058	0.109253	-0.149048	965	16_15_10_7630000
0.981628	-0.019440	-0.154241	-0.092564	0.190461	-0.039536	-1.158813	0.108887	-0.150879	966	16_15_10_7710000
0.981842	-0.019227	-0.152959	-0.060245	0.168497	-0.037967	-1.158691	0.108643	-0.152344	967	16_15_10_7790000
0.982055	-0.018799	-0.151891	-0.032319	0.139002	-0.033888	-1.158569	0.108398	-0.153687	968	16_15_10_7870000
0.982055	-0.018586	-0.151036	-0.008158	0.101035	-0.050832	-1.158447	0.108032	-0.154785	969	16_15_10_7950000
0.982269	-0.018159	-0.150395	0.004079	0.063696	-0.046752	-1.158325	0.107544	-0.155518	970	16_15_10_8030000
0.982269	-0.017731	-0.149968	-0.004393	0.060872	-0.065893	-1.158325	0.107056	-0.156006	971	16_15_10_8110000
0.982482	-0.017090	-0.149327	-0.022906	0.083778	-0.091308	-1.158325	0.106323	-0.156616	972	16_15_10_8190000
0.982696	-0.016449	-0.148473	-0.038908	0.144336	-0.102291	-1.158203	0.105469	-0.157593	973	16_15_10_8270000
0.982910	-0.015381	-0.146977	-0.078757	0.230624	-0.144964	-1.158081	0.104492	-0.159302	974	16_15_10_8350000
0.983123	-0.014100	-0.144841	-0.127079	0.346407	-0.146533	-1.157837	0.103271	-0.161743	975	16_15_10_8430000
0.983551	-0.012818	-0.142064	-0.176655	0.428302	-0.166301	-1.157471	0.102051	-0.165161	976	16_15_10_8510000
0.984191	-0.011536	-0.138432	-0.226545	0.484468	-0.166928	-1.157104	0.100830	-0.169067	977	16_15_10_8590000
0.984619	-0.010041	-0.134587	-0.278632	0.539693	-0.156574	-1.156494	0.099731	-0.173462	978	16_15_10_8670000
0.985260	-0.008545	-0.130314	-0.271415	0.563226	-0.154063	-1.155884	0.098633	-0.178223	979	16_15_10_8750000
0.985687	-0.007263	-0.126041	-0.273925	0.551616	-0.133040	-1.155151	0.097778	-0.182983	980	16_15_10_8830000
0.986328	-0.005982	-0.121982	-0.244744	0.524945	-0.119234	-1.154541	0.096924	-0.187622	981	16_15_10_8910000
0.986755	-0.005127	-0.118351	-0.193913	0.434578	-0.096956	-1.153931	0.096313	-0.191772	982	16_15_10_8990000
0.986969	-0.004273	-0.115574	-0.136492	0.299027	-0.071854	-1.153442	0.095825	-0.194946	983	16_15_10_9070000
0.987182	-0.003632	-0.113865	-0.074678	0.159084	-0.044556	-1.153076	0.095459	-0.196899	984	16_15_10_9150000
0.987396	-0.003204	-0.113010	-0.070913	0.048635	-0.047066	-1.152954	0.095093	-0.197754	985	16_15_10_9230000
0.987396	-0.002777	-0.113010	-0.078757	-0.012237	-0.061186	-1.153076	0.094727	-0.197754	986	16_15_10_9310000
0.987396	-0.002136	-0.113224	-0.060872	-0.018513	-0.082209	-1.153076	0.094238	-0.197632	987	16_15_10_9390000
0.987396	-0.001282	-0.113224	-0.061814	0.014434	-0.090053	-1.153198	0.093506	-0.197510	988	16_15_10_9470000
0.987396	-0.000427	-0.113010	-0.087543	0.081895	-0.103232	-1.153198	0.092773	-0.197876	989	16_15_10_9550000
0.987396	0.000427	-0.111942	-0.120803	0.163477	-0.085974	-1.153076	0.092041	-0.198853	990	16_15_10_9630000
0.987610	0.001282	-0.110660	-0.151553	0.217132	-0.079071	-1.152832	0.091553	-0.200439	991	16_15_10_9710000
0.987823	0.001923	-0.108737	-0.193913	0.259178	-0.070913	-1.152466	0.091187	-0.202515	992	16_15_10_9790000
0.988037	0.002564	-0.106601	-0.248196	0.294634	-0.055224	-1.152100	0.090942	-0.204834	993	16_15_10_9870000
0.988250	0.003204	-0.104251	-0.235959	0.313775	-0.053969	-1.151733	0.090820	-0.207275	994	16_15_10_9950000
0.988464	0.003845	-0.101901	-0.208346	0.313461	-0.048635	-1.151245	0.090698	-0.209961	995	16_15_11_0030000
0.988678	0.004273	-0.099765	-0.165045	0.275180	-0.035770	-1.150757	0.090576	-0.212402	996	16_15_11_0110000
0.988891	0.004700	-0.097842	-0.130844	0.193913	-0.031377	-1.150391	0.090576	-0.214478	997	16_15_11_0190000
0.989105	0.004913	-0.096774	-0.076247	0.091622	-0.016003	-1.150146	0.090454	-0.215576	998	16_15_11_0270000
0.989105	0.005127	-0.096347	-0.044242	0.015061	-0.005648	-1.150146	0.090454	-0.216064	999	16_15_11_0350000
0.989105	0.005127	-0.096347	-0.015689	-0.013492	-0.013179	-1.150146	0.090454	-0.215942	1000	16_15_11_0430000
0.989105	0.005341	-0.096561	0.006275	-0.001569	-0.020395	-1.150146	0.090332	-0.215942	1001	16_15_11_0510000
0.989105	0.005554	-0.096347	-0.004393	0.037339	-0.031377	-1.150146	0.090088	-0.216064	1002	16_15_11_0590000
0.989105	0.005768	-0.095920	-0.041104	0.099780	-0.022592	-1.150024	0.089844	-0.216675	1003	16_15_11_0670000
0.989105	0.006195	-0.095065	-0.069972	0.128961	-0.029809	-1.149902	0.089722	-0.217529	1004	16_15_11_0750000
0.989319	0.006409	-0.093997	-0.081895	0.142140	-0.031691	-1.149658	0.089600	-0.218750	1005	16_15_11_0830000
0.989319	0.006836	-0.092929	-0.102604	0.114214	-0.040477	-1.149536	0.089355	-0.219849	1006	16_15_11_0910000
0.989532	0.007263	-0.092288	-0.107311	0.093505	-0.047380	-1.149414	0.089111	-0.220581	1007	16_15_11_0990000
0.989532	0.007691	-0.091647	-0.095701	0.042987	-0.056479	-1.149292	0.088867	-0.221191	1008	16_15_11_1070000
0.989532	0.008332	-0.091220	-0.114214	0.061500	-0.057735	-1.149292	0.088501	-0.221558	1009	16_15_11_1150000
0.989532	0.008759	-0.090793	-0.114214	0.074992	-0.045811	-1.149170	0.088257	-0.222046	1010	16_15_11_1230000
0.989532	0.009186	-0.090152	-0.109821	0.084719	-0.032319	-1.149048	0.088135	-0.222656	1011	16_15_11_1310000
0.989746	0.009400	-0.089511	-0.094760	0.086916	-0.027612	-1.148926	0.088013	-0.223389	1012	16_15_11_1390000
0.989746	0.009613	-0.088870	-0.084405	0.065265	-0.018513	-1.148804	0.087891	-0.223877	1013	16_15_11_1470000
0.989746	0.009827	-0.088656	-0.064951	0.040791	-0.020395	-1.148804	0.087891	-0.224365	1014	16_15_11_1550000
0.989746	0.010041	-0.088229	-0.080640	0.032946	-0.015061	-1.148682	0.087891	-0.224609	1015	16_15_11_1630000
0.989746	0.010254	-0.088015	-0.097898	0.027298	-0.010982	-1.148682	0.087891	-0.224731	1016	16_15_11_1710000
0.989746	0.010468	-0.087802	-0.141826	0.031064	-0.016003	-1.148682	0.088013	-0.224976	1017	16_15_11_1790000
0.989746	0.010681	-0.087588	-0.115469	0.041732	-0.027926	-1.148560	0.088013	-0.225220	1018	16_15_11_1870000
0.989959	0.010895	-0.087161	-0.090367	0.055224	-0.021650	-1.148560	0.087891	-0.225464	1019	16_15_11_1950000
0.989959	0.011109	-0.086734	-0.068089	0.069658	-0.005962	-1.148438	0.087891	-0.225952	1020	16_15_11_2030000
0.989959	0.011109	-0.086306	-0.057421	0.072168	-0.004707	-1.148315	0.088013	-0.226563	1021	16_15_11_2110000
0.989959	0.011109	-0.085665	-0.032633	0.064638	0.019768	-1.148193	0.088135	-0.227173	1022	16_15_11_2190000
0.989959	0.010895	-0.085238	-0.048635	0.050204	0.012551	-1.148071	0.088379	-0.227539	1023	16_15_11_2270000
0.989959	0.010895	-0.085025	-0.053969	0.022278	0.007844	-1.148071	0.088501	-0.227905	1024	16_15_11_2350000
0.989959	0.010895	-0.084811	-0.059931	0.031377	0.005962	-1.147949	0.088623	-0.228027	1025	16_15_11_2430000
0.989959	0.010895	-0.084597	-0.048321	0.027298	-0.006903	-1.147949	0.088745	-0.228271	1026	16_15_11_2510000
0.990173	0.010895	-0.084597	-0.037025	0.012865	-0.004707	-1.147949	0.088745	-0.228394	1027	16_15_11_2590000
0.990173	0.010895	-0.084384	-0.038908	0.008472	0.011610	-1.147949	0.088867	-0.228394	1028	16_15_11_2670000
0.990173	0.010895	-0.084384	-0.028867	0.021964	0.014747	-1.147949	0.088989	-0.228516	1029	16_15_11_2750000
0.990173	0.010895	-0.084170	-0.027926	0.029181	0.003452	-1.147827	0.089111	-0.228638	1030	16_15_11_2830000
0.990173	0.010681	-0.083956	-0.027926	0.032633	0.008472	-1.147827	0.089233	-0.228882	1031	16_15_11_2910000
0.990173	0.010681	-0.083743	-0.032633	0.024788	0.000628	-1.147705	0.089355	-0.229126	1032	16_15_11_2990000
0.990173	0.010681	-0.083529	-0.035770	0.009413	0.001255	-1.147705	0.089355	-0.229248	1033	16_15_11_3070000
0.990173	0.010681	-0.083529	-0.049576	0.016003	0.010982	-1.147705	0.089478	-0.229370	1034	16_15_11_3150000
0.990173	0.010681	-0.083316	-0.037653	0.022906	0.010041	-1.147705	0.089722	-0.229492	1035	16_15_11_3230000
0.990173	0.010681	-0.083102	-0.006275	0.026985	0.016316	-1.147583	0.089844	-0.229614	1036	16_15_11_3310000
0.990173	0.010468	-0.083102	0.009727	0.020395	0.024788	-1.147583	0.089966	-0.229858	1037	16_15_11_3390000
0.990173	0.010254	-0.082888	-0.019768	-0.010041	0.025416	-1.147583	0.090210	-0.229858	1038	16_15_11_3470000
0.990173	0.010041	-0.083102	-0.003452	-0.015061	0.018513	-1.147583	0.090454	-0.229736	1039	16_15_11_3550000
0.990173	0.010041	-0.083316	-0.021023	-0.013179	0.005648	-1.147583	0.090576	-0.229614	1040	16_15_11_3630000
0.990173	0.010041	-0.083316	-0.015689	0.000628	0.010355	-1.147583	0.090698	-0.229492	1041	16_15_11_3710000
0.990173	0.010041	-0.083316	-0.042987	-0.003765	-0.008786	-1.147583	0.090698	-0.229370	1042	16_15_11_3790000
0.990173	0.010041	-0.083529	-0.017571	-0.028553	0.005334	-1.147705	0.090698	-0.229248	1043	16_15_11_3870000
0.990173	0.010041	-0.083743	-0.007217	-0.062127	-0.004707	-1.147705	0.090698	-0.228760	1044	16_15_11_3950000
0.989959	0.010041	-0.084384	-0.013179	-0.067775	-0.009413	-1.147827	0.090698	-0.228149	1045	16_15_11_4030000
0.989959	0.010041	-0.084811	0.004707	-0.050832	0.005962	-1.147949	0.090698	-0.227661	1046	16_15_11_4110000
0.989959	0.010041	-0.085238	0.035770	-0.040163	0.010668	-1.148071	0.090698	-0.227295	1047	16_15_11_4190000
0.989959	0.009827	-0.085452	0.055538	-0.016003	0.012551	-1.148071	0.090698	-0.227051	1048	16_15_11_4270000
0.989959	0.009827	-0.085452	0.046752	-0.021023	0.007844	-1.148193	0.090698	-0.226807	1049	16_15_11_4350000
0.989959	0.009613	-0.085879	0.022906	-0.049576	0.027612	-1.148193	0.090820	-0.226563	1050	16_15_11_4430000
0.989959	0.009400	-0.086306	0.002196	-0.058990	0.019768	-1.148315	0.090942	-0.226074	1051	16_15_11_4510000
0.989746	0.009186	-0.086947	-0.024788	-0.103859	0.029181	-1.148438	0.091187	-0.225342	1052	16_15_11_4590000
0.989746	0.008972	-0.087588	-0.033888	-0.105115	0.022906	-1.148560	0.091553	-0.224365	1053	16_15_11_4670000
0.989746	0.008972	-0.088229	-0.045811	-0.055224	0.008786	-1.148804	0.091675	-0.223511	1054	16_15_11_4750000
0.989746	0.008972	-0.088656	-0.047694	-0.019140	0.002824	-1.148804	0.091797	-0.223145	1055	16_15_11_4830000
0.989532	0.008759	-0.088656	-0.044242	0.018199	0.011923	-1.148804	0.091919	-0.223145	1056	16_15_11_4910000
0.989532	0.008759	-0.088443	-0.037025	0.025102	0.012551	-1.148804	0.092163	-0.223267	1057	16_15_11_4990000
0.989746	0.008545	-0.088443	-0.013806	-0.001569	0.014120	-1.148804	0.092285	-0.223389	1058	16_15_11_5070000
0.989532	0.008545	-0.088443	-0.017571	-0.030122	0.017885	-1.148804	0.092407	-0.223145	1059	16_15_11_5150000
0.989532	0.008332	-0.088870	-0.021337	-0.076561	0.022592	-1.148926	0.092651	-0.222656	1060	16_15_11_5230000
0.989532	0.008118	-0.089724	0.002510	-0.098525	0.029181	-1.149048	0.092896	-0.221802	1061	16_15_11_5310000
0.989532	0.007904	-0.090365	-0.005020	-0.100408	0.020709	-1.149170	0.093140	-0.220947	1062	16_15_11_5390000
0.989319	0.007691	-0.091006	0.005648	-0.047380	0.035143	-1.149292	0.093384	-0.220215	1063	16_15_11_5470000
0.989319	0.007477	-0.091220	0.005334	0.009727	0.012551	-1.149292	0.093506	-0.220093	1064	16_15_11_5550000
0.989532	0.007477	-0.091006	-0.006903	0.036084	0.016944	-1.149292	0.093750	-0.220337	1065	16_15_11_5630000
0.989532	0.007263	-0.090793	-0.006903	0.032319	0.018513	-1.149170	0.093872	-0.220581	1066	16_15_11_5710000
0.989532	0.007050	-0.090579	-0.010355	0.025102	0.020082	-1.149170	0.093994	-0.220825	1067	16_15_11_5790000
0.989532	0.007050	-0.090579	-0.018199	-0.006903	0.013492	-1.149170	0.094238	-0.220825	1068	16_15_11_5870000
0.989532	0.006836	-0.090579	-0.005334	0.000628	0.014434	-1.149170	0.094360	-0.220825	1069	16_15_11_5950000
0.989532	0.006836	-0.090579	-0.026357	-0.002510	-0.000628	-1.149170	0.094360	-0.220703	1070	16_15_11_6030000
0.989532	0.006836	-0.090579	-0.035457	-0.014747	0.005962	-1.149170	0.094482	-0.220581	1071	16_15_11_6110000
0.989319	0.006623	-0.090793	-0.025730	-0.029181	0.029495	-1.149170	0.094727	-0.220337	1072	16_15_11_6190000
0.989319	0.006409	-0.091220	-0.021023	-0.034829	0.025102	-1.149170	0.094971	-0.220093	1073	16_15_11_6270000
0.989319	0.006195	-0.091433	-0.014747	-0.058676	0.026985	-1.149292	0.095215	-0.219604	1074	16_15_11_6350000
0.989319	0.006195	-0.092074	-0.004079	-0.076561	0.023533	-1.149414	0.095459	-0.218994	1075	16_15_11_6430000
0.989319	0.005982	-0.092715	0.015061	-0.073423	0.028240	-1.149536	0.095703	-0.218262	1076	16_15_11_6510000
0.989319	0.005554	-0.093142	0.016630	-0.030750	0.031691	-1.149536	0.095947	-0.217896	1077	16_15_11_6590000
0.989319	0.005554	-0.093142	0.019768	-0.016630	0.016630	-1.149658	0.096069	-0.217651	1078	16_15_11_6670000
0.989105	0.005341	-0.093356	0.004393	0.013806	0.015689	-1.149658	0.096191	-0.217651	1079	16_15_11_6750000
0.989105	0.005127	-0.093142	-0.005334	0.016316	0.022278	-1.149536	0.096313	-0.217773	1080	16_15_11_6830000
0.989105	0.004913	-0.093142	-0.012865	0.004393	0.017885	-1.149536	0.096558	-0.217773	1081	16_15_11_6910000
0.989105	0.004913	-0.093142	-0.003452	-0.016630	0.031064	-1.149536	0.096802	-0.217651	1082	16_15_11_6990000
0.989105	0.004486	-0.093356	0.010355	-0.034829	0.031377	-1.149536	0.097046	-0.217407	1083	16_15_11_7070000
0.989105	0.004273	-0.093570	0.011923	-0.041104	0.033574	-1.149658	0.097290	-0.217163	1084	16_15_11_7150000
0.989105	0.004059	-0.093997	0.016003	-0.039222	0.033574	-1.149658	0.097534	-0.216797	1085	16_15_11_7230000
0.989105	0.003845	-0.094211	0.026043	-0.022906	0.025102	-1.149658	0.097778	-0.216431	1086	16_15_11_7310000
0.989105	0.003418	-0.094424	0.032005	-0.005334	0.031691	-1.149658	0.098022	-0.216309	1087	16_15_11_7390000
0.989105	0.003204	-0.094211	0.051773	0.035770	0.019140	-1.149658	0.098145	-0.216553	1088	16_15_11_7470000
0.989105	0.003204	-0.093997	0.050204	0.063069	0.010355	-1.149536	0.098145	-0.216919	1089	16_15_11_7550000
0.989105	0.002991	-0.093356	0.056166	0.077502	0.006275	-1.149414	0.098145	-0.217651	1090	16_15_11_7630000
0.989105	0.002991	-0.092929	0.063069	0.067775	0.000000	-1.149292	0.098022	-0.218262	1091	16_15_11_7710000
0.989319	0.002777	-0.092502	0.026671	0.032633	0.018513	-1.149292	0.098022	-0.218750	1092	16_15_11_7790000
0.989319	0.002564	-0.092288	0.009413	0.016944	0.025730	-1.149170	0.098267	-0.218994	1093	16_15_11_7870000
0.989319	0.002350	-0.092288	-0.019140	0.002510	0.021964	-1.149170	0.098389	-0.219116	1094	16_15_11_7950000
0.989319	0.002136	-0.092288	-0.022906	0.007217	0.023219	-1.149170	0.098633	-0.219116	1095	16_15_11_8030000
0.989319	0.001923	-0.092288	-0.024161	0.006275	0.031377	-1.149170	0.098999	-0.219116	1096	16_15_11_8110000
0.989319	0.001709	-0.092288	-0.008786	-0.018826	0.037653	-1.149170	0.099243	-0.218994	1097	16_15_11_8190000
0.989319	0.001495	-0.092502	0.001883	-0.034829	0.031064	-1.149170	0.099609	-0.218750	1098	16_15_11_8270000
0.989319	0.001282	-0.092929	0.029181	-0.042673	0.026985	-1.149170	0.099854	-0.218384	1099	16_15_11_8350000
0.989319	0.001068	-0.093142	0.030122	-0.046125	0.025730	-1.149292	0.099976	-0.218018	1100	16_15_11_8430000
0.989105	0.000855	-0.093570	0.050518	-0.026043	0.019454	-1.149292	0.100098	-0.217651	1101	16_15_11_8510000
0.989105	0.000641	-0.093570	0.054597	0.000628	0.016630	-1.149292	0.100220	-0.217651	1102	16_15_11_8590000
0.989105	0.000427	-0.093570	0.055852	0.015061	0.010041	-1.149292	0.100220	-0.217773	1103	16_15_11_8670000
0.989105	0.000214	-0.093356	0.045184	0.026671	0.024474	-1.149292	0.100220	-0.217896	1104	16_15_11_8750000
0.989105	0.000000	-0.093356	0.053969	0.005334	0.026043	-1.149292	0.100342	-0.218140	1105	16_15_11_8830000
0.989105	-0.000214	-0.093356	0.040791	-0.001569	0.028867	-1.149292	0.100586	-0.218140	1106	16_15_11_8910000
0.989105	-0.000427	-0.093356	0.037967	-0.029495	0.028553	-1.149292	0.100708	-0.218018	1107	16_15_11_8990000
0.989105	-0.000641	-0.093570	0.032319	-0.037025	0.024788	-1.149292	0.100952	-0.217773	1108	16_15_11_9070000
0.989105	-0.000855	-0.093997	0.029495	-0.033888	0.019768	-1.149292	0.101074	-0.217407	1109	16_15_11_9150000
0.989105	-0.001068	-0.094211	0.047380	-0.021650	0.023533	-1.149414	0.101196	-0.217163	1110	16_15_11_9230000
0.989105	-0.001282	-0.094424	0.045811	-0.017258	0.016630	-1.149414	0.101196	-0.217041	1111	16_15_11_9310000
0.989105	-0.001495	-0.094424	0.038281	0.015061	0.014120	-1.149414	0.101318	-0.217041	1112	16_15_11_9390000
0.989105	-0.001709	-0.094211	0.036712	0.024474	0.039222	-1.149414	0.101440	-0.217163	1113	16_15_11_9470000
0.989105	-0.001923	-0.093997	0.033260	0.032633	0.032633	-1.149292	0.101685	-0.217529	1114	16_15_11_9550000
