sensor_ID	2796
Accel_X	Accel_Y	Accel_Z	Roll	Pitch	Yaw	Mag_X	Mag_Y	Mag_Z	Count	SysTime
0.872890	0.396069	0.287759	-0.001883	0.007217	0.008472	-0.804565	-0.605591	-0.292969	0	16_15_03_0270000
0.872677	0.396069	0.287759	-0.004707	0.006903	-0.006589	-0.804565	-0.605591	-0.292969	1	16_15_03_0350000
0.872677	0.396069	0.287759	-0.017258	0.004393	-0.004707	-0.804443	-0.605591	-0.293091	2	16_15_03_0430000
0.872677	0.396069	0.287973	-0.030750	0.003452	-0.010982	-0.804443	-0.605591	-0.293213	3	16_15_03_0510000
0.872677	0.396069	0.287973	-0.020709	0.001569	-0.008158	-0.804443	-0.605591	-0.293335	4	16_15_03_0590000
0.872677	0.396069	0.288186	-0.024788	-0.012237	-0.002824	-0.804443	-0.605591	-0.293335	5	16_15_03_0670000
0.872677	0.396069	0.287973	-0.021964	-0.015061	-0.002824	-0.804443	-0.605591	-0.293335	6	16_15_03_0750000
0.872677	0.396069	0.287973	-0.005334	0.005334	-0.010668	-0.804443	-0.605591	-0.293335	7	16_15_03_0830000
0.872677	0.396069	0.287973	-0.010041	-0.017258	0.003452	-0.804443	-0.605591	-0.293335	8	16_15_03_0910000
0.872677	0.396069	0.287973	-0.016316	-0.001255	-0.009099	-0.804443	-0.605591	-0.293335	9	16_15_03_0990000
0.872677	0.396069	0.288186	-0.021650	0.000941	-0.003138	-0.804443	-0.605469	-0.293457	10	16_15_03_1070000
0.872677	0.396069	0.288186	-0.000314	-0.008158	-0.004079	-0.804443	-0.605469	-0.293457	11	16_15_03_1150000
0.872677	0.396069	0.288186	-0.005962	-0.001255	-0.010355	-0.804321	-0.605591	-0.293335	12	16_15_03_1230000
0.872677	0.396069	0.288186	-0.024161	-0.003452	0.005334	-0.804321	-0.605591	-0.293457	13	16_15_03_1310000
0.872677	0.396069	0.288186	-0.013806	-0.010041	-0.008158	-0.804443	-0.605469	-0.293457	14	16_15_03_1390000
0.872677	0.396069	0.288186	-0.008472	-0.009099	-0.002824	-0.804443	-0.605469	-0.293457	15	16_15_03_1470000
0.872677	0.396069	0.287973	-0.026357	-0.019140	-0.012237	-0.804443	-0.605469	-0.293335	16	16_15_03_1550000
0.872677	0.396069	0.287973	-0.015689	-0.015061	-0.006589	-0.804443	-0.605591	-0.293335	17	16_15_03_1630000
0.872677	0.396069	0.287973	-0.027926	-0.012551	0.003452	-0.804443	-0.605469	-0.293335	18	16_15_03_1710000
0.872677	0.396069	0.287973	-0.008158	-0.009099	-0.004393	-0.804443	-0.605469	-0.293335	19	16_15_03_1790000
0.872677	0.396069	0.287973	-0.002510	0.002196	0.002196	-0.804443	-0.605469	-0.293335	20	16_15_03_1870000
0.872677	0.396069	0.287973	-0.002824	0.002196	0.000628	-0.804443	-0.605469	-0.293335	21	16_15_03_1950000
0.872677	0.396069	0.287973	0.001883	-0.012237	0.004079	-0.804565	-0.605469	-0.293335	22	16_15_03_2030000
0.872890	0.396069	0.287973	0.007531	0.000941	0.001883	-0.804565	-0.605469	-0.293213	23	16_15_03_2110000
0.872890	0.396069	0.287973	-0.019140	0.003452	-0.006589	-0.804565	-0.605469	-0.293213	24	16_15_03_2190000
0.872677	0.396069	0.287973	-0.004079	0.009099	-0.002824	-0.804565	-0.605469	-0.293335	25	16_15_03_2270000
0.872677	0.395856	0.288186	-0.018199	-0.001255	-0.000941	-0.804443	-0.605469	-0.293335	26	16_15_03_2350000
0.872677	0.395856	0.288186	-0.011610	0.005648	-0.000628	-0.804443	-0.605347	-0.293457	27	16_15_03_2430000
0.872677	0.395856	0.288186	-0.008472	0.006275	0.009413	-0.804565	-0.605347	-0.293457	28	16_15_03_2510000
0.872677	0.395856	0.288186	-0.006589	-0.009099	0.000000	-0.804565	-0.605225	-0.293457	29	16_15_03_2590000
0.872677	0.395856	0.288186	-0.010982	-0.005648	-0.004393	-0.804565	-0.605225	-0.293457	30	16_15_03_2670000
0.872677	0.395856	0.288186	-0.012865	-0.008158	-0.008158	-0.804565	-0.605347	-0.293457	31	16_15_03_2750000
0.872677	0.395856	0.288186	-0.005648	-0.001255	-0.008158	-0.804565	-0.605347	-0.293457	32	16_15_03_2830000
0.872677	0.395856	0.288186	-0.006275	-0.010355	-0.006903	-0.804565	-0.605347	-0.293457	33	16_15_03_2910000
0.872677	0.395856	0.288186	-0.008472	-0.008158	-0.004393	-0.804565	-0.605347	-0.293335	34	16_15_03_2990000
0.872677	0.395856	0.288186	-0.003452	-0.014434	-0.003138	-0.804565	-0.605347	-0.293335	35	16_15_03_3070000
0.872677	0.395856	0.288186	-0.002196	-0.002824	-0.006275	-0.804565	-0.605347	-0.293213	36	16_15_03_3150000
0.872677	0.396069	0.288186	-0.005334	-0.003138	-0.008786	-0.804565	-0.605469	-0.293213	37	16_15_03_3230000
0.872677	0.396069	0.287973	-0.010668	-0.012551	-0.015689	-0.804443	-0.605469	-0.293213	38	16_15_03_3310000
0.872677	0.396069	0.287973	-0.013179	-0.005962	-0.012551	-0.804443	-0.605591	-0.293213	39	16_15_03_3390000
0.872677	0.396069	0.287973	-0.005962	-0.009099	-0.011923	-0.804443	-0.605591	-0.293091	40	16_15_03_3470000
0.872677	0.396283	0.287973	-0.004707	-0.004707	-0.015689	-0.804321	-0.605713	-0.293091	41	16_15_03_3550000
0.872677	0.396283	0.287973	-0.011296	-0.004079	-0.022906	-0.804321	-0.605835	-0.293091	42	16_15_03_3630000
0.872677	0.396496	0.287973	-0.000314	-0.011610	-0.014434	-0.804199	-0.605957	-0.293091	43	16_15_03_3710000
0.872677	0.396496	0.287973	-0.005334	-0.018826	-0.000314	-0.804199	-0.605957	-0.292969	44	16_15_03_3790000
0.872677	0.396496	0.287759	-0.014434	-0.020082	0.009727	-0.804321	-0.605835	-0.292847	45	16_15_03_3870000
0.872677	0.396496	0.287759	-0.013806	-0.010982	-0.016944	-0.804321	-0.605835	-0.292847	46	16_15_03_3950000
0.872677	0.396496	0.287759	-0.026671	-0.010668	-0.010982	-0.804321	-0.605957	-0.292847	47	16_15_03_4030000
0.872677	0.396496	0.287759	-0.016944	-0.008786	-0.003452	-0.804321	-0.605957	-0.292847	48	16_15_03_4110000
0.872677	0.396496	0.287759	-0.018199	-0.005962	-0.008158	-0.804321	-0.605957	-0.292847	49	16_15_03_4190000
0.872677	0.396496	0.287759	-0.016944	-0.004393	-0.004393	-0.804321	-0.605957	-0.292847	50	16_15_03_4270000
0.872677	0.396496	0.287759	-0.007531	0.005334	-0.009099	-0.804199	-0.605957	-0.292969	51	16_15_03_4350000
0.872677	0.396496	0.287759	-0.009413	0.001569	-0.010982	-0.804199	-0.605957	-0.292969	52	16_15_03_4430000
0.872463	0.396496	0.287759	-0.008786	-0.004707	0.005020	-0.804199	-0.605957	-0.292969	53	16_15_03_4510000
0.872677	0.396496	0.287759	-0.000941	-0.009099	-0.004393	-0.804199	-0.605957	-0.292969	54	16_15_03_4590000
0.872677	0.396496	0.287759	-0.010982	-0.011923	-0.003765	-0.804199	-0.605957	-0.292847	55	16_15_03_4670000
0.872677	0.396496	0.287759	0.004707	-0.004707	-0.015689	-0.804199	-0.605957	-0.292847	56	16_15_03_4750000
0.872463	0.396710	0.287759	-0.007217	-0.007531	-0.008158	-0.804199	-0.606079	-0.292725	57	16_15_03_4830000
0.872463	0.396710	0.287545	-0.001883	-0.009099	-0.003452	-0.804199	-0.606079	-0.292725	58	16_15_03_4910000
0.872463	0.396710	0.287545	-0.007844	-0.002824	0.001883	-0.804199	-0.606079	-0.292725	59	16_15_03_4990000
0.872677	0.396710	0.287545	-0.012551	-0.005020	0.001883	-0.804199	-0.606079	-0.292725	60	16_15_03_5070000
0.872677	0.396710	0.287759	-0.013179	0.002196	-0.002510	-0.804199	-0.606079	-0.292725	61	16_15_03_5150000
0.872677	0.396710	0.287759	-0.014120	-0.005020	-0.001255	-0.804199	-0.605957	-0.292725	62	16_15_03_5230000
0.872677	0.396710	0.287759	-0.008472	-0.011296	-0.008158	-0.804199	-0.605957	-0.292725	63	16_15_03_5310000
0.872463	0.396710	0.287759	0.004707	0.002196	-0.010668	-0.804199	-0.606079	-0.292725	64	16_15_03_5390000
0.872463	0.396710	0.287759	0.005334	-0.000941	0.000628	-0.804199	-0.606079	-0.292603	65	16_15_03_5470000
0.872463	0.396710	0.287759	-0.002196	0.000941	-0.005962	-0.804199	-0.606079	-0.292603	66	16_15_03_5550000
0.872463	0.396710	0.287545	-0.000314	-0.008786	-0.008158	-0.804199	-0.606201	-0.292603	67	16_15_03_5630000
0.872463	0.396924	0.287545	-0.009099	-0.005020	-0.009413	-0.804199	-0.606201	-0.292603	68	16_15_03_5710000
0.872463	0.396924	0.287545	-0.012865	-0.004707	-0.004707	-0.804199	-0.606201	-0.292603	69	16_15_03_5790000
0.872463	0.396924	0.287545	-0.006589	-0.004707	0.001883	-0.804199	-0.606201	-0.292480	70	16_15_03_5870000
0.872463	0.396710	0.287545	-0.019140	-0.016944	0.002196	-0.804199	-0.606201	-0.292480	71	16_15_03_5950000
0.872677	0.396710	0.287545	-0.006275	-0.013492	-0.006589	-0.804199	-0.606201	-0.292480	72	16_15_03_6030000
0.872677	0.396710	0.287545	-0.006275	-0.005020	-0.003452	-0.804199	-0.606201	-0.292358	73	16_15_03_6110000
0.872677	0.396710	0.287545	-0.004079	-0.009727	-0.002824	-0.804199	-0.606201	-0.292358	74	16_15_03_6190000
0.872677	0.396924	0.287332	-0.021023	-0.004707	-0.014434	-0.804199	-0.606201	-0.292358	75	16_15_03_6270000
0.872463	0.396924	0.287545	-0.004707	0.003765	0.000314	-0.804199	-0.606201	-0.292358	76	16_15_03_6350000
0.872463	0.396924	0.287545	-0.002196	-0.007531	-0.000314	-0.804199	-0.606201	-0.292358	77	16_15_03_6430000
0.872463	0.396924	0.287332	-0.003765	-0.006275	-0.015375	-0.804199	-0.606201	-0.292358	78	16_15_03_6510000
0.872463	0.396924	0.287332	-0.019454	-0.007217	-0.015375	-0.804199	-0.606323	-0.292358	79	16_15_03_6590000
0.872463	0.396924	0.287332	-0.011296	-0.013179	-0.000314	-0.804077	-0.606323	-0.292358	80	16_15_03_6670000
0.872463	0.396924	0.287332	-0.004079	0.005962	-0.005962	-0.804077	-0.606323	-0.292358	81	16_15_03_6750000
0.872463	0.396924	0.287545	-0.019454	0.003452	0.001883	-0.804077	-0.606323	-0.292358	82	16_15_03_6830000
0.872463	0.396924	0.287545	-0.001569	-0.003138	-0.009413	-0.804077	-0.606323	-0.292358	83	16_15_03_6910000
0.872463	0.396924	0.287545	-0.012551	-0.010041	-0.003452	-0.804077	-0.606323	-0.292358	84	16_15_03_6990000
0.872463	0.396924	0.287545	-0.025102	-0.018826	0.004079	-0.804199	-0.606323	-0.292358	85	16_15_03_7070000
0.872463	0.396924	0.287545	-0.021023	-0.006903	-0.001883	-0.804199	-0.606201	-0.292358	86	16_15_03_7150000
0.872677	0.396924	0.287545	-0.009413	0.003138	0.008472	-0.804199	-0.606201	-0.292358	87	16_15_03_7230000
0.872677	0.396710	0.287545	-0.022906	-0.013179	0.003765	-0.804321	-0.606079	-0.292358	88	16_15_03_7310000
0.872677	0.396710	0.287545	0.001569	-0.011610	0.000000	-0.804321	-0.606079	-0.292358	89	16_15_03_7390000
0.872677	0.396710	0.287332	-0.019768	-0.016316	0.005648	-0.804321	-0.606079	-0.292358	90	16_15_03_7470000
0.872677	0.396710	0.287332	-0.004707	-0.021023	0.000000	-0.804443	-0.605957	-0.292236	91	16_15_03_7550000
0.872677	0.396710	0.287332	-0.013492	-0.005020	0.000314	-0.804443	-0.605957	-0.292114	92	16_15_03_7630000
0.872677	0.396496	0.287332	0.000628	-0.001569	0.005020	-0.804443	-0.605957	-0.292114	93	16_15_03_7710000
0.872890	0.396496	0.287332	-0.008472	-0.003765	0.007531	-0.804565	-0.605835	-0.292114	94	16_15_03_7790000
0.872890	0.396496	0.287332	-0.008472	-0.003138	-0.005962	-0.804565	-0.605835	-0.292114	95	16_15_03_7870000
0.872890	0.396496	0.287332	-0.013179	-0.011923	0.002196	-0.804565	-0.605835	-0.292114	96	16_15_03_7950000
0.872890	0.396496	0.287332	0.012551	0.003138	-0.006903	-0.804565	-0.605835	-0.292114	97	16_15_03_8030000
0.872677	0.396496	0.287332	0.010668	0.017571	-0.000941	-0.804565	-0.605957	-0.292114	98	16_15_03_8110000
0.872677	0.396496	0.287332	-0.008158	0.011923	-0.006275	-0.804443	-0.605957	-0.292114	99	16_15_03_8190000
0.872677	0.396710	0.287545	-0.003765	0.011296	-0.008158	-0.804443	-0.605957	-0.292236	100	16_15_03_8270000
0.872677	0.396710	0.287545	-0.005962	-0.006589	0.000941	-0.804443	-0.605957	-0.292236	101	16_15_03_8350000
0.872677	0.396710	0.287545	0.003452	-0.007217	0.004079	-0.804443	-0.605957	-0.292114	102	16_15_03_8430000
0.872677	0.396710	0.287545	0.005020	0.003138	-0.002196	-0.804443	-0.605957	-0.292114	103	16_15_03_8510000
0.872677	0.396710	0.287332	-0.006903	-0.011923	-0.008472	-0.804443	-0.605957	-0.292114	104	16_15_03_8590000
0.872677	0.396710	0.287332	-0.003765	-0.015061	-0.006589	-0.804443	-0.606079	-0.291992	105	16_15_03_8670000
0.872677	0.396710	0.287332	-0.012237	-0.010982	-0.011923	-0.804443	-0.606079	-0.291870	106	16_15_03_8750000
0.872677	0.396710	0.287332	-0.014747	-0.009727	-0.008786	-0.804443	-0.606079	-0.291870	107	16_15_03_8830000
0.872677	0.396710	0.287332	-0.006275	-0.006275	-0.006903	-0.804443	-0.606079	-0.291870	108	16_15_03_8910000
0.872677	0.396924	0.287332	-0.012551	-0.014434	-0.008786	-0.804443	-0.606201	-0.291870	109	16_15_03_8990000
0.872677	0.396710	0.287118	-0.015061	-0.010668	0.004079	-0.804443	-0.606201	-0.291870	110	16_15_03_9070000
0.872677	0.396710	0.287118	-0.012237	-0.004079	-0.002196	-0.804443	-0.606079	-0.291870	111	16_15_03_9150000
0.872677	0.396710	0.287118	-0.015061	-0.005962	0.008786	-0.804565	-0.606079	-0.291870	112	16_15_03_9230000
0.872890	0.396710	0.287118	-0.006589	-0.004707	0.005648	-0.804565	-0.605957	-0.291870	113	16_15_03_9310000
0.872890	0.396496	0.287332	-0.023533	0.002510	0.003452	-0.804565	-0.605957	-0.291870	114	16_15_03_9390000
0.872890	0.396496	0.287332	-0.021650	-0.010041	0.001569	-0.804565	-0.605835	-0.291870	115	16_15_03_9470000
0.872890	0.396496	0.287332	-0.014434	-0.010982	0.001255	-0.804688	-0.605835	-0.291992	116	16_15_03_9550000
0.872890	0.396496	0.287118	-0.004393	-0.015061	0.001883	-0.804688	-0.605713	-0.291870	117	16_15_03_9630000
0.872890	0.396496	0.287118	-0.008786	-0.008472	-0.010041	-0.804688	-0.605835	-0.291870	118	16_15_03_9710000
0.872890	0.396496	0.287118	-0.003765	-0.001883	-0.007531	-0.804688	-0.605835	-0.291748	119	16_15_03_9790000
0.872890	0.396496	0.287118	0.001255	-0.003138	0.003765	-0.804688	-0.605835	-0.291748	120	16_15_03_9870000
0.872890	0.396496	0.287118	-0.003765	-0.011923	0.001569	-0.804688	-0.605835	-0.291748	121	16_15_03_9950000
0.872890	0.396496	0.287118	-0.006589	-0.010041	0.001255	-0.804810	-0.605835	-0.291626	122	16_15_04_0030000
0.872890	0.396496	0.286905	-0.001883	-0.010041	0.004079	-0.804810	-0.605713	-0.291626	123	16_15_04_0110000
0.872890	0.396496	0.286905	-0.009099	-0.008786	-0.002824	-0.804810	-0.605713	-0.291504	124	16_15_04_0190000
0.873104	0.396283	0.286905	-0.017885	-0.010355	0.006589	-0.804932	-0.605713	-0.291504	125	16_15_04_0270000
0.873104	0.396283	0.286905	-0.018513	-0.004707	-0.000628	-0.804932	-0.605591	-0.291504	126	16_15_04_0350000
0.873104	0.396283	0.286905	-0.011296	-0.010355	0.012237	-0.804932	-0.605591	-0.291504	127	16_15_04_0430000
0.873104	0.396069	0.286905	-0.012237	-0.012865	0.008158	-0.805054	-0.605469	-0.291504	128	16_15_04_0510000
0.873104	0.396069	0.286905	-0.016630	0.002824	0.006589	-0.805054	-0.605347	-0.291504	129	16_15_04_0590000
0.873104	0.396069	0.286905	-0.025102	-0.003452	-0.001569	-0.805054	-0.605347	-0.291626	130	16_15_04_0670000
0.873104	0.396069	0.286905	-0.017571	-0.007531	-0.006903	-0.805054	-0.605347	-0.291626	131	16_15_04_0750000
0.873104	0.396069	0.286905	-0.013492	-0.016944	-0.001569	-0.805176	-0.605347	-0.291626	132	16_15_04_0830000
0.873318	0.395856	0.286905	-0.009413	-0.012865	-0.001569	-0.805176	-0.605347	-0.291504	133	16_15_04_0910000
0.873318	0.395856	0.286905	-0.003452	-0.002824	-0.002824	-0.805176	-0.605347	-0.291504	134	16_15_04_0990000
0.873318	0.395856	0.286905	-0.003765	-0.005962	0.002510	-0.805176	-0.605347	-0.291504	135	16_15_04_1070000
0.873318	0.395856	0.286905	-0.006903	-0.003452	0.006275	-0.805176	-0.605225	-0.291504	136	16_15_04_1150000
0.873318	0.395856	0.286905	-0.007844	0.004393	0.009727	-0.805298	-0.605225	-0.291504	137	16_15_04_1230000
0.873318	0.395856	0.286905	-0.016003	-0.004393	-0.002196	-0.805298	-0.605103	-0.291504	138	16_15_04_1310000
0.873318	0.395856	0.286905	-0.014434	-0.016944	-0.001883	-0.805298	-0.605103	-0.291504	139	16_15_04_1390000
0.873318	0.395856	0.286905	0.002824	-0.016944	-0.008472	-0.805298	-0.605103	-0.291382	140	16_15_04_1470000
0.873318	0.395856	0.286691	0.004079	-0.006275	-0.008472	-0.805298	-0.605225	-0.291260	141	16_15_04_1550000
0.873318	0.395856	0.286691	-0.020082	-0.010355	-0.005334	-0.805298	-0.605225	-0.291260	142	16_15_04_1630000
0.873318	0.395856	0.286691	-0.015689	-0.006275	-0.000314	-0.805298	-0.605225	-0.291260	143	16_15_04_1710000
0.873318	0.395856	0.286691	-0.008472	-0.005648	0.008158	-0.805420	-0.605103	-0.291260	144	16_15_04_1790000
0.873318	0.395642	0.286691	-0.001883	-0.002196	0.002196	-0.805420	-0.605103	-0.291260	145	16_15_04_1870000
0.873318	0.395642	0.286691	-0.010668	0.004393	0.002196	-0.805420	-0.605103	-0.291260	146	16_15_04_1950000
0.873318	0.395642	0.286691	-0.009099	-0.006589	0.002510	-0.805420	-0.605103	-0.291260	147	16_15_04_2030000
0.873318	0.395642	0.286691	-0.018513	0.003452	0.002510	-0.805420	-0.604980	-0.291260	148	16_15_04_2110000
0.873531	0.395642	0.286691	-0.003452	-0.016003	0.006589	-0.805542	-0.604980	-0.291260	149	16_15_04_2190000
0.873531	0.395428	0.286691	-0.003452	-0.012865	0.001883	-0.805542	-0.604858	-0.291260	150	16_15_04_2270000
0.873531	0.395642	0.286691	-0.010041	-0.008472	-0.007844	-0.805542	-0.604858	-0.291138	151	16_15_04_2350000
0.873531	0.395642	0.286691	-0.012237	-0.011610	-0.007844	-0.805542	-0.604980	-0.291138	152	16_15_04_2430000
0.873531	0.395642	0.286691	-0.010668	-0.007844	0.003452	-0.805542	-0.604980	-0.291138	153	16_15_04_2510000
0.873531	0.395642	0.286691	-0.004393	-0.000314	-0.005020	-0.805542	-0.604980	-0.291138	154	16_15_04_2590000
0.873531	0.395642	0.286691	-0.014747	-0.008786	-0.001569	-0.805542	-0.604858	-0.291138	155	16_15_04_2670000
0.873531	0.395428	0.286691	-0.023219	-0.011923	-0.004079	-0.805664	-0.604858	-0.291138	156	16_15_04_2750000
0.873531	0.395428	0.286477	-0.025102	-0.018199	-0.008158	-0.805664	-0.604858	-0.291138	157	16_15_04_2830000
0.873531	0.395428	0.286477	-0.016316	-0.015689	-0.006275	-0.805664	-0.604858	-0.291016	158	16_15_04_2910000
0.873531	0.395642	0.286477	0.000000	-0.004393	-0.010668	-0.805664	-0.604858	-0.291016	159	16_15_04_2990000
0.873531	0.395642	0.286477	-0.015689	-0.013806	-0.008158	-0.805664	-0.604980	-0.291016	160	16_15_04_3070000
0.873531	0.395642	0.286477	-0.011296	-0.010668	0.003452	-0.805664	-0.604980	-0.290894	161	16_15_04_3150000
0.873531	0.395642	0.286477	-0.012865	-0.012865	0.001255	-0.805664	-0.604858	-0.290894	162	16_15_04_3230000
0.873531	0.395428	0.286264	0.004707	-0.002824	-0.000941	-0.805664	-0.604858	-0.290894	163	16_15_04_3310000
0.873531	0.395428	0.286264	0.000628	0.007531	0.008158	-0.805664	-0.604858	-0.290894	164	16_15_04_3390000
0.873531	0.395428	0.286477	0.001883	0.014434	0.002196	-0.805664	-0.604858	-0.290894	165	16_15_04_3470000
0.873531	0.395428	0.286477	-0.014434	-0.010355	-0.002824	-0.805664	-0.604858	-0.290894	166	16_15_04_3550000
0.873745	0.395428	0.286477	-0.019454	-0.006275	0.004079	-0.805786	-0.604736	-0.290894	167	16_15_04_3630000
0.873745	0.395428	0.286477	-0.011923	-0.004393	-0.008786	-0.805786	-0.604736	-0.290894	168	16_15_04_3710000
0.873531	0.395428	0.286477	0.009413	-0.008786	-0.006275	-0.805786	-0.604858	-0.290894	169	16_15_04_3790000
0.873531	0.395428	0.286477	0.005962	0.002510	0.003138	-0.805786	-0.604858	-0.290771	170	16_15_04_3870000
0.873745	0.395428	0.286477	0.001883	-0.004393	0.002196	-0.805786	-0.604858	-0.290771	171	16_15_04_3950000
0.873745	0.395428	0.286477	-0.004393	-0.002196	0.005020	-0.805786	-0.604858	-0.290771	172	16_15_04_4030000
0.873745	0.395428	0.286477	-0.009099	-0.006275	-0.004079	-0.805786	-0.604736	-0.290771	173	16_15_04_4110000
0.873745	0.395428	0.286264	-0.005648	-0.012865	-0.003138	-0.805786	-0.604736	-0.290649	174	16_15_04_4190000
0.873745	0.395428	0.286264	-0.006903	-0.007844	0.000628	-0.805908	-0.604736	-0.290649	175	16_15_04_4270000
0.873745	0.395428	0.286264	-0.002196	-0.014434	0.001255	-0.805908	-0.604736	-0.290527	176	16_15_04_4350000
0.873745	0.395428	0.286050	0.003765	-0.014120	-0.009413	-0.805908	-0.604736	-0.290405	177	16_15_04_4430000
0.873745	0.395428	0.286050	-0.006275	-0.021023	-0.014747	-0.805908	-0.604858	-0.290283	178	16_15_04_4510000
0.873745	0.395642	0.286050	-0.016630	-0.008158	-0.004393	-0.805908	-0.604858	-0.290283	179	16_15_04_4590000
0.873745	0.395642	0.286050	-0.008158	-0.007844	-0.007844	-0.805908	-0.604858	-0.290283	180	16_15_04_4670000
0.873745	0.395642	0.285836	-0.001569	-0.004707	-0.007531	-0.805908	-0.604980	-0.290161	181	16_15_04_4750000
0.873745	0.395642	0.285836	-0.015061	-0.010355	-0.002510	-0.805908	-0.604980	-0.290161	182	16_15_04_4830000
0.873745	0.395642	0.285836	-0.016316	-0.013806	0.000941	-0.805908	-0.604980	-0.290161	183	16_15_04_4910000
0.873745	0.395642	0.285836	-0.006589	-0.018513	-0.004707	-0.805908	-0.604980	-0.290161	184	16_15_04_4990000
0.873745	0.395642	0.285623	-0.008472	-0.014120	0.001569	-0.805908	-0.604980	-0.290039	185	16_15_04_5070000
0.873745	0.395642	0.285623	-0.020395	-0.006589	-0.000628	-0.806030	-0.604858	-0.290039	186	16_15_04_5150000
0.873959	0.395428	0.285623	-0.003765	-0.006589	0.001255	-0.806030	-0.604858	-0.290039	187	16_15_04_5230000
0.873959	0.395428	0.285623	-0.004707	-0.006903	-0.000314	-0.806030	-0.604858	-0.289917	188	16_15_04_5310000
0.873959	0.395428	0.285623	-0.008786	-0.010355	0.002510	-0.806030	-0.604858	-0.289917	189	16_15_04_5390000
0.873959	0.395428	0.285623	-0.006589	-0.002824	0.001569	-0.806152	-0.604858	-0.289917	190	16_15_04_5470000
0.873959	0.395428	0.285623	-0.014747	-0.004079	0.004079	-0.806152	-0.604736	-0.289917	191	16_15_04_5550000
0.873959	0.395428	0.285623	-0.014120	-0.014747	0.004393	-0.806152	-0.604736	-0.289917	192	16_15_04_5630000
0.873959	0.395215	0.285623	-0.019140	-0.008158	-0.006275	-0.806152	-0.604614	-0.289917	193	16_15_04_5710000
0.873959	0.395428	0.285623	-0.005962	0.001255	-0.008158	-0.806152	-0.604736	-0.289917	194	16_15_04_5790000
0.873959	0.395428	0.285623	-0.007531	-0.016630	0.000314	-0.806152	-0.604736	-0.289917	195	16_15_04_5870000
0.873959	0.395428	0.285623	-0.000628	-0.006275	-0.004393	-0.806152	-0.604736	-0.289795	196	16_15_04_5950000
0.873959	0.395428	0.285623	-0.014434	-0.003452	-0.006275	-0.806152	-0.604736	-0.289795	197	16_15_04_6030000
0.873959	0.395428	0.285623	-0.021650	-0.011923	-0.002510	-0.806152	-0.604736	-0.289795	198	16_15_04_6110000
0.873959	0.395428	0.285623	-0.023533	-0.014120	-0.002196	-0.806274	-0.604614	-0.289795	199	16_15_04_6190000
0.873959	0.395215	0.285623	-0.025416	-0.008786	-0.001569	-0.806274	-0.604614	-0.289795	200	16_15_04_6270000
0.874172	0.395215	0.285623	-0.020395	-0.005334	0.010668	-0.806274	-0.604492	-0.289917	201	16_15_04_6350000
0.874172	0.395215	0.285623	-0.003765	-0.014120	-0.006275	-0.806274	-0.604492	-0.289795	202	16_15_04_6430000
0.874172	0.395215	0.285409	-0.007217	-0.003452	-0.022906	-0.806274	-0.604614	-0.289795	203	16_15_04_6510000
0.873959	0.395428	0.285409	-0.007531	-0.008786	-0.014434	-0.806152	-0.604736	-0.289795	204	16_15_04_6590000
0.873959	0.395428	0.285409	-0.011610	0.003765	-0.015375	-0.806152	-0.604736	-0.289795	205	16_15_04_6670000
0.873959	0.395428	0.285623	-0.014434	-0.006589	-0.011296	-0.806152	-0.604858	-0.289795	206	16_15_04_6750000
0.873959	0.395642	0.285623	-0.017258	-0.001883	-0.011296	-0.806030	-0.604858	-0.289795	207	16_15_04_6830000
0.873959	0.395642	0.285623	-0.002196	-0.005020	-0.005962	-0.806030	-0.604858	-0.289917	208	16_15_04_6910000
0.873959	0.395642	0.285623	-0.006589	-0.002510	0.008472	-0.806030	-0.604858	-0.289795	209	16_15_04_6990000
0.873959	0.395428	0.285623	-0.003452	-0.006589	0.004393	-0.806152	-0.604858	-0.289795	210	16_15_04_7070000
0.873959	0.395428	0.285623	-0.015375	0.007531	0.000314	-0.806152	-0.604736	-0.289795	211	16_15_04_7150000
0.873959	0.395428	0.285623	-0.006903	0.008786	-0.004393	-0.806152	-0.604736	-0.289917	212	16_15_04_7230000
0.873959	0.395428	0.285836	-0.001569	0.009099	0.002510	-0.806030	-0.604736	-0.290039	213	16_15_04_7310000
0.873959	0.395428	0.285836	0.006589	0.009727	-0.002196	-0.806030	-0.604736	-0.290039	214	16_15_04_7390000
0.873745	0.395428	0.285836	-0.013492	0.001883	-0.010668	-0.806030	-0.604858	-0.290039	215	16_15_04_7470000
0.873745	0.395428	0.285836	-0.014434	-0.006589	-0.008472	-0.806030	-0.604858	-0.290039	216	16_15_04_7550000
0.873745	0.395428	0.285836	-0.010668	-0.009413	0.004707	-0.806030	-0.604858	-0.290039	217	16_15_04_7630000
0.873959	0.395428	0.285836	-0.003138	-0.014120	0.002510	-0.806030	-0.604736	-0.290039	218	16_15_04_7710000
0.873959	0.395428	0.285836	0.005020	-0.014434	0.008158	-0.806152	-0.604736	-0.289917	219	16_15_04_7790000
0.873959	0.395428	0.285623	-0.011610	-0.014747	0.000628	-0.806152	-0.604736	-0.289795	220	16_15_04_7870000
0.873959	0.395428	0.285623	-0.009727	-0.004393	0.004393	-0.806152	-0.604736	-0.289795	221	16_15_04_7950000
0.873959	0.395428	0.285623	-0.000941	0.003765	-0.000628	-0.806274	-0.604614	-0.289795	222	16_15_04_8030000
0.873959	0.395215	0.285623	-0.000941	0.000314	0.008786	-0.806274	-0.604614	-0.289795	223	16_15_04_8110000
0.873959	0.395215	0.285623	-0.016003	-0.007217	0.008158	-0.806274	-0.604614	-0.289795	224	16_15_04_8190000
0.873959	0.395215	0.285623	-0.013806	-0.018826	-0.003765	-0.806396	-0.604492	-0.289795	225	16_15_04_8270000
0.874172	0.395215	0.285623	-0.020709	-0.016944	-0.011610	-0.806396	-0.604492	-0.289673	226	16_15_04_8350000
0.874172	0.395215	0.285623	-0.016630	-0.007531	-0.006589	-0.806396	-0.604492	-0.289673	227	16_15_04_8430000
0.873959	0.395215	0.285623	-0.014120	-0.004707	-0.006275	-0.806274	-0.604492	-0.289673	228	16_15_04_8510000
0.873959	0.395215	0.285623	-0.011610	-0.004707	-0.012865	-0.806274	-0.604614	-0.289673	229	16_15_04_8590000
0.873959	0.395215	0.285623	-0.016003	-0.002510	-0.004393	-0.806274	-0.604614	-0.289795	230	16_15_04_8670000
0.873959	0.395215	0.285623	-0.003452	-0.010355	-0.002196	-0.806274	-0.604614	-0.289795	231	16_15_04_8750000
0.873959	0.395215	0.285623	-0.007531	-0.003452	0.006903	-0.806274	-0.604614	-0.289673	232	16_15_04_8830000
0.874172	0.395215	0.285623	-0.006275	-0.016316	-0.001883	-0.806396	-0.604492	-0.289673	233	16_15_04_8910000
0.874172	0.395215	0.285409	-0.011610	-0.014434	-0.001569	-0.806396	-0.604492	-0.289551	234	16_15_04_8990000
0.874172	0.395215	0.285409	-0.008472	-0.005962	0.005334	-0.806396	-0.604492	-0.289551	235	16_15_04_9070000
0.874172	0.395215	0.285409	-0.014434	-0.001883	-0.000941	-0.806396	-0.604492	-0.289551	236	16_15_04_9150000
0.874172	0.395215	0.285409	-0.005648	-0.008472	-0.001569	-0.806396	-0.604492	-0.289551	237	16_15_04_9230000
0.874172	0.395001	0.285409	-0.003138	-0.004393	0.006275	-0.806519	-0.604370	-0.289551	238	16_15_04_9310000
0.874172	0.395001	0.285409	-0.003138	-0.000314	0.004079	-0.806519	-0.604370	-0.289551	239	16_15_04_9390000
0.874172	0.395001	0.285409	-0.013806	-0.004079	0.007844	-0.806519	-0.604370	-0.289551	240	16_15_04_9470000
0.874172	0.395001	0.285409	-0.016003	-0.005962	0.002196	-0.806641	-0.604248	-0.289551	241	16_15_04_9550000
0.874172	0.395001	0.285409	-0.019140	-0.004079	-0.003765	-0.806641	-0.604248	-0.289551	242	16_15_04_9630000
0.874172	0.394787	0.285409	-0.016316	-0.004707	-0.001883	-0.806641	-0.604248	-0.289551	243	16_15_04_9710000
0.874172	0.394787	0.285409	-0.016003	-0.000314	-0.002824	-0.806641	-0.604126	-0.289673	244	16_15_04_9790000
0.874172	0.394787	0.285623	-0.010355	-0.003452	-0.010041	-0.806519	-0.604126	-0.289673	245	16_15_04_9870000
0.874172	0.395001	0.285623	-0.008472	-0.003765	-0.006903	-0.806519	-0.604248	-0.289673	246	16_15_04_9950000
0.874172	0.395001	0.285623	-0.012237	0.000941	0.000628	-0.806519	-0.604248	-0.289673	247	16_15_05_0030000
0.874172	0.395001	0.285623	-0.009413	0.000941	-0.002196	-0.806519	-0.604248	-0.289795	248	16_15_05_0110000
0.874172	0.395001	0.285623	-0.000941	-0.010668	-0.004707	-0.806519	-0.604248	-0.289673	249	16_15_05_0190000
0.874172	0.395001	0.285623	-0.010041	-0.005334	-0.001569	-0.806519	-0.604248	-0.289673	250	16_15_05_0270000
0.874172	0.394787	0.285623	-0.008158	-0.021337	0.003138	-0.806641	-0.604248	-0.289673	251	16_15_05_0350000
0.874172	0.394787	0.285409	-0.007531	-0.004079	-0.006589	-0.806641	-0.604248	-0.289551	252	16_15_05_0430000
0.874172	0.395001	0.285409	-0.011610	-0.008472	-0.010355	-0.806641	-0.604248	-0.289551	253	16_15_05_0510000
0.874172	0.395001	0.285409	-0.009727	-0.010041	0.001255	-0.806641	-0.604248	-0.289551	254	16_15_05_0590000
0.874172	0.395001	0.285409	-0.007217	-0.014120	-0.004707	-0.806641	-0.604248	-0.289429	255	16_15_05_0670000
0.874172	0.395001	0.285409	0.004707	-0.002824	-0.010355	-0.806641	-0.604248	-0.289429	256	16_15_05_0750000
0.874172	0.395001	0.285409	-0.010041	-0.005334	-0.004393	-0.806641	-0.604248	-0.289307	257	16_15_05_0830000
0.874172	0.395001	0.285409	-0.015689	0.001569	-0.006903	-0.806519	-0.604248	-0.289429	258	16_15_05_0910000
0.874172	0.395001	0.285409	-0.002824	-0.006275	-0.004707	-0.806519	-0.604370	-0.289429	259	16_15_05_0990000
0.874172	0.395001	0.285409	-0.009413	-0.008158	-0.007844	-0.806519	-0.604370	-0.289429	260	16_15_05_1070000
0.874172	0.395001	0.285409	-0.024474	-0.004079	-0.012865	-0.806519	-0.604370	-0.289429	261	16_15_05_1150000
0.874172	0.395215	0.285409	-0.011610	-0.010668	-0.004707	-0.806519	-0.604370	-0.289429	262	16_15_05_1230000
0.874172	0.395215	0.285409	-0.015689	-0.015375	-0.007844	-0.806519	-0.604370	-0.289429	263	16_15_05_1310000
0.874172	0.395001	0.285195	-0.017571	-0.009727	0.001883	-0.806519	-0.604370	-0.289307	264	16_15_05_1390000
0.874172	0.395215	0.285195	-0.018513	-0.012551	-0.014747	-0.806519	-0.604370	-0.289307	265	16_15_05_1470000
0.874172	0.395215	0.285195	-0.012551	-0.012551	-0.007844	-0.806519	-0.604370	-0.289307	266	16_15_05_1550000
0.874172	0.395215	0.285195	-0.032946	-0.002510	0.001883	-0.806519	-0.604370	-0.289429	267	16_15_05_1630000
0.874172	0.395001	0.285409	-0.030750	-0.011296	0.002824	-0.806519	-0.604248	-0.289429	268	16_15_05_1710000
0.874172	0.395001	0.285409	-0.017258	-0.016630	-0.001255	-0.806519	-0.604248	-0.289429	269	16_15_05_1790000
0.874172	0.395001	0.285195	-0.015689	-0.010041	-0.014120	-0.806519	-0.604248	-0.289429	270	16_15_05_1870000
0.874172	0.395001	0.285195	-0.015689	-0.008158	-0.006275	-0.806519	-0.604248	-0.289429	271	16_15_05_1950000
0.874172	0.395001	0.285195	-0.011923	-0.000314	0.002510	-0.806519	-0.604248	-0.289429	272	16_15_05_2030000
0.874172	0.395001	0.285409	-0.011296	0.000941	-0.005962	-0.806519	-0.604248	-0.289551	273	16_15_05_2110000
0.874172	0.395001	0.285409	-0.016630	-0.004393	-0.008786	-0.806519	-0.604248	-0.289551	274	16_15_05_2190000
0.874172	0.395001	0.285409	-0.010041	-0.001883	-0.020709	-0.806519	-0.604370	-0.289551	275	16_15_05_2270000
0.874172	0.395215	0.285409	-0.011923	-0.010041	-0.007531	-0.806396	-0.604370	-0.289551	276	16_15_05_2350000
0.874172	0.395215	0.285409	0.014120	0.015375	-0.004707	-0.806396	-0.604492	-0.289551	277	16_15_05_2430000
0.874172	0.395215	0.285409	-0.003138	0.009413	-0.004393	-0.806396	-0.604492	-0.289551	278	16_15_05_2510000
0.874172	0.395215	0.285623	-0.011296	0.000000	-0.002824	-0.806274	-0.604492	-0.289673	279	16_15_05_2590000
0.873959	0.395215	0.285623	-0.011296	0.000941	0.001569	-0.806274	-0.604492	-0.289673	280	16_15_05_2670000
0.874172	0.395215	0.285623	0.004079	-0.004393	0.003452	-0.806396	-0.604492	-0.289673	281	16_15_05_2750000
0.874172	0.395215	0.285623	0.008472	-0.005648	-0.005020	-0.806396	-0.604492	-0.289551	282	16_15_05_2830000
0.874172	0.395215	0.285409	0.012551	-0.018199	-0.004707	-0.806396	-0.604492	-0.289429	283	16_15_05_2910000
0.874172	0.395428	0.285409	-0.003765	-0.015375	-0.002196	-0.806396	-0.604492	-0.289307	284	16_15_05_2990000
0.874172	0.395428	0.285195	-0.008158	-0.008472	0.000000	-0.806396	-0.604492	-0.289307	285	16_15_05_3070000
0.874172	0.395428	0.285195	0.001569	-0.003765	-0.001569	-0.806396	-0.604492	-0.289185	286	16_15_05_3150000
0.874172	0.395215	0.285195	-0.009099	-0.016630	0.001255	-0.806519	-0.604492	-0.289185	287	16_15_05_3230000
0.874172	0.395428	0.284982	0.005962	-0.013492	-0.005648	-0.806519	-0.604492	-0.289063	288	16_15_05_3310000
0.874172	0.395428	0.284982	0.017885	-0.004707	-0.006903	-0.806519	-0.604614	-0.288940	289	16_15_05_3390000
0.874172	0.395428	0.284982	0.005962	-0.008472	-0.009727	-0.806519	-0.604736	-0.288818	290	16_15_05_3470000
0.874172	0.395428	0.284768	0.007531	-0.015061	-0.004079	-0.806519	-0.604736	-0.288696	291	16_15_05_3550000
0.874172	0.395642	0.284768	0.000941	-0.011610	-0.003138	-0.806519	-0.604736	-0.288574	292	16_15_05_3630000
0.874172	0.395642	0.284768	0.000314	-0.005020	-0.001569	-0.806519	-0.604858	-0.288452	293	16_15_05_3710000
0.874172	0.395642	0.284555	0.004707	0.003765	-0.005962	-0.806519	-0.604858	-0.288452	294	16_15_05_3790000
0.874172	0.395642	0.284768	-0.006275	-0.003765	-0.016003	-0.806396	-0.604858	-0.288452	295	16_15_05_3870000
0.874172	0.395856	0.284768	-0.009413	-0.005962	-0.023533	-0.806396	-0.604980	-0.288452	296	16_15_05_3950000
0.874172	0.395856	0.284768	-0.014434	-0.000314	-0.005648	-0.806274	-0.605103	-0.288452	297	16_15_05_4030000
0.873959	0.395856	0.284768	-0.005962	0.009099	-0.009727	-0.806274	-0.605103	-0.288452	298	16_15_05_4110000
0.873959	0.395856	0.284768	-0.005334	0.008786	-0.007217	-0.806152	-0.605103	-0.288574	299	16_15_05_4190000
0.873959	0.396069	0.284768	-0.003452	-0.011923	0.000314	-0.806152	-0.605103	-0.288574	300	16_15_05_4270000
0.873959	0.396069	0.284768	-0.009413	-0.011296	-0.003765	-0.806274	-0.605103	-0.288452	301	16_15_05_4350000
0.873959	0.395856	0.284768	-0.007217	-0.001883	0.005648	-0.806274	-0.605103	-0.288452	302	16_15_05_4430000
0.873959	0.395856	0.284768	-0.004707	-0.008158	0.004393	-0.806274	-0.605103	-0.288452	303	16_15_05_4510000
0.874172	0.395856	0.284768	0.005962	0.001255	0.002510	-0.806274	-0.605103	-0.288452	304	16_15_05_4590000
0.874172	0.395856	0.284768	0.012237	-0.004079	-0.004393	-0.806274	-0.605103	-0.288330	305	16_15_05_4670000
0.874172	0.395856	0.284768	-0.003452	-0.005334	0.006589	-0.806396	-0.605103	-0.288330	306	16_15_05_4750000
0.874172	0.395856	0.284555	-0.007844	-0.005962	0.007217	-0.806396	-0.604980	-0.288208	307	16_15_05_4830000
0.874172	0.395856	0.284555	-0.009099	-0.010982	-0.005962	-0.806396	-0.604980	-0.288208	308	16_15_05_4910000
0.874172	0.395856	0.284555	-0.006275	-0.019140	0.003452	-0.806396	-0.604980	-0.288086	309	16_15_05_4990000
0.874172	0.395856	0.284555	-0.009413	-0.012237	0.005648	-0.806519	-0.604980	-0.288086	310	16_15_05_5070000
0.874172	0.395642	0.284555	-0.012237	-0.005020	0.002196	-0.806519	-0.604858	-0.288086	311	16_15_05_5150000
0.874386	0.395642	0.284555	-0.026357	-0.012865	0.010041	-0.806641	-0.604858	-0.288086	312	16_15_05_5230000
0.874386	0.395642	0.284555	-0.005648	0.000941	0.003138	-0.806641	-0.604736	-0.288086	313	16_15_05_5310000
0.874386	0.395642	0.284555	0.002824	-0.008158	-0.000314	-0.806641	-0.604736	-0.288086	314	16_15_05_5390000
0.874386	0.395642	0.284341	0.009099	-0.009727	-0.002196	-0.806641	-0.604736	-0.287964	315	16_15_05_5470000
0.874386	0.395642	0.284341	0.009099	-0.005962	0.002196	-0.806763	-0.604736	-0.287842	316	16_15_05_5550000
0.874386	0.395642	0.284341	-0.006589	-0.014747	0.000941	-0.806763	-0.604736	-0.287720	317	16_15_05_5630000
0.874386	0.395642	0.284127	-0.008472	-0.004707	0.001255	-0.806763	-0.604736	-0.287720	318	16_15_05_5710000
0.874386	0.395428	0.284127	-0.003452	-0.011296	-0.003138	-0.806763	-0.604736	-0.287720	319	16_15_05_5790000
0.874386	0.395642	0.284127	0.006275	-0.004393	-0.014120	-0.806763	-0.604858	-0.287598	320	16_15_05_5870000
0.874386	0.395642	0.284127	0.010355	-0.005648	-0.005962	-0.806763	-0.604858	-0.287476	321	16_15_05_5950000
0.874386	0.395642	0.284127	-0.001255	-0.005648	-0.004079	-0.806763	-0.604980	-0.287476	322	16_15_05_6030000
0.874386	0.395642	0.283914	-0.007217	-0.007844	-0.001883	-0.806763	-0.604980	-0.287354	323	16_15_05_6110000
0.874386	0.395856	0.283914	0.001255	-0.010355	-0.006275	-0.806763	-0.604980	-0.287354	324	16_15_05_6190000
0.874386	0.395856	0.283914	-0.006903	-0.004707	-0.014120	-0.806763	-0.604980	-0.287354	325	16_15_05_6270000
0.874386	0.395856	0.283914	-0.017885	-0.011923	-0.008158	-0.806641	-0.605103	-0.287231	326	16_15_05_6350000
0.874386	0.395856	0.283914	-0.007844	-0.007531	-0.016003	-0.806641	-0.605103	-0.287231	327	16_15_05_6430000
0.874386	0.395856	0.283914	-0.021964	-0.007217	-0.007844	-0.806641	-0.605103	-0.287231	328	16_15_05_6510000
0.874386	0.396069	0.283914	-0.005648	-0.009727	-0.007844	-0.806641	-0.605225	-0.287231	329	16_15_05_6590000
0.874386	0.396069	0.283914	-0.005648	-0.008158	-0.009727	-0.806641	-0.605225	-0.287231	330	16_15_05_6670000
0.874386	0.396069	0.283914	-0.016630	-0.006903	-0.002196	-0.806641	-0.605225	-0.287231	331	16_15_05_6750000
0.874386	0.396069	0.283914	-0.009099	-0.010982	-0.014120	-0.806519	-0.605225	-0.287231	332	16_15_05_6830000
0.874386	0.396069	0.283700	-0.037653	-0.018513	0.006903	-0.806641	-0.605225	-0.287231	333	16_15_05_6910000
0.874386	0.395856	0.283700	-0.013492	-0.009099	0.010982	-0.806641	-0.605103	-0.287231	334	16_15_05_6990000
0.874386	0.395856	0.283700	-0.007844	-0.013492	0.013806	-0.806763	-0.604980	-0.287109	335	16_15_05_7070000
0.874386	0.395856	0.283700	-0.004079	-0.010041	0.002824	-0.806885	-0.604980	-0.287109	336	16_15_05_7150000
0.874386	0.395856	0.283700	0.000628	-0.016316	-0.011923	-0.806885	-0.604980	-0.286987	337	16_15_05_7230000
0.874599	0.395856	0.283486	-0.007844	-0.014120	0.000628	-0.806885	-0.604980	-0.286865	338	16_15_05_7310000
0.874599	0.395856	0.283486	-0.010982	-0.012237	-0.001569	-0.806885	-0.604980	-0.286865	339	16_15_05_7390000
0.874599	0.395642	0.283486	-0.018513	-0.012237	0.010982	-0.807007	-0.604858	-0.286865	340	16_15_05_7470000
0.874599	0.395642	0.283486	-0.004393	0.002510	0.002196	-0.807007	-0.604858	-0.286865	341	16_15_05_7550000
0.874599	0.395642	0.283486	-0.002510	-0.014434	-0.010041	-0.807007	-0.604858	-0.286865	342	16_15_05_7630000
0.874599	0.395642	0.283273	-0.009727	-0.010355	0.001255	-0.807007	-0.604858	-0.286743	343	16_15_05_7710000
0.874599	0.395642	0.283273	-0.007217	0.000000	-0.002824	-0.807007	-0.604858	-0.286743	344	16_15_05_7790000
0.874599	0.395642	0.283273	0.000628	-0.005648	0.010668	-0.807007	-0.604858	-0.286743	345	16_15_05_7870000
0.874599	0.395642	0.283273	-0.014434	-0.007217	0.006903	-0.807129	-0.604736	-0.286743	346	16_15_05_7950000
0.874599	0.395428	0.283486	-0.010982	0.008158	-0.000628	-0.807129	-0.604736	-0.286743	347	16_15_05_8030000
0.874599	0.395428	0.283486	-0.007844	-0.005334	-0.001569	-0.807129	-0.604736	-0.286743	348	16_15_05_8110000
0.874599	0.395428	0.283486	-0.005334	-0.004393	0.001569	-0.807129	-0.604614	-0.286743	349	16_15_05_8190000
0.874599	0.395428	0.283486	0.004079	0.008786	-0.006275	-0.807129	-0.604736	-0.286743	350	16_15_05_8270000
0.874599	0.395428	0.283486	-0.004393	0.008158	0.000628	-0.807129	-0.604736	-0.286743	351	16_15_05_8350000
0.874599	0.395428	0.283486	0.001255	-0.005962	0.005962	-0.807129	-0.604736	-0.286743	352	16_15_05_8430000
0.874599	0.395428	0.283486	0.005648	0.000941	0.001255	-0.807129	-0.604614	-0.286743	353	16_15_05_8510000
0.874599	0.395428	0.283486	-0.002510	-0.001569	0.002824	-0.807129	-0.604614	-0.286743	354	16_15_05_8590000
0.874599	0.395428	0.283486	-0.013806	-0.003138	0.005962	-0.807129	-0.604614	-0.286743	355	16_15_05_8670000
0.874599	0.395428	0.283700	-0.018199	0.000000	0.009099	-0.807251	-0.604492	-0.286743	356	16_15_05_8750000
0.874813	0.395215	0.283700	-0.004393	-0.003452	0.006275	-0.807251	-0.604492	-0.286865	357	16_15_05_8830000
0.874813	0.395215	0.283700	-0.009413	-0.006275	-0.002824	-0.807251	-0.604370	-0.286743	358	16_15_05_8910000
0.874813	0.395215	0.283486	0.007217	-0.006275	-0.007531	-0.807251	-0.604492	-0.286743	359	16_15_05_8990000
0.874813	0.395428	0.283486	0.004393	0.005962	-0.005962	-0.807251	-0.604492	-0.286743	360	16_15_05_9070000
0.874599	0.395428	0.283700	-0.008786	-0.003452	0.001255	-0.807251	-0.604492	-0.286743	361	16_15_05_9150000
0.874599	0.395428	0.283700	0.003452	0.000000	-0.006903	-0.807251	-0.604492	-0.286743	362	16_15_05_9230000
0.874599	0.395428	0.283486	-0.008472	-0.008158	-0.005962	-0.807251	-0.604614	-0.286621	363	16_15_05_9310000
0.874599	0.395428	0.283700	-0.018199	0.006589	0.002824	-0.807251	-0.604492	-0.286743	364	16_15_05_9390000
0.874599	0.395215	0.283700	-0.015689	0.004707	0.002196	-0.807251	-0.604492	-0.286743	365	16_15_05_9470000
0.874599	0.395215	0.283914	-0.019768	0.002824	-0.006275	-0.807251	-0.604492	-0.286865	366	16_15_05_9550000
0.874599	0.395215	0.283914	-0.010668	-0.011610	-0.005962	-0.807251	-0.604492	-0.286865	367	16_15_05_9630000
0.874599	0.395215	0.283914	-0.021023	0.005962	0.000628	-0.807251	-0.604492	-0.286987	368	16_15_05_9710000
0.874599	0.395215	0.283914	-0.007844	-0.001569	0.005648	-0.807251	-0.604370	-0.286987	369	16_15_05_9790000
0.874599	0.395215	0.283914	-0.010982	-0.005962	0.002824	-0.807251	-0.604370	-0.286987	370	16_15_05_9870000
0.874599	0.395215	0.283914	-0.007844	-0.003765	0.001883	-0.807251	-0.604370	-0.286987	371	16_15_05_9950000
0.874599	0.395215	0.283914	0.006589	0.010355	-0.002824	-0.807251	-0.604370	-0.286987	372	16_15_06_0030000
0.874599	0.395215	0.284127	-0.010668	-0.000941	-0.002510	-0.807251	-0.604370	-0.287109	373	16_15_06_0110000
0.874599	0.395215	0.284127	-0.006589	0.004707	0.000000	-0.807251	-0.604370	-0.287109	374	16_15_06_0190000
0.874599	0.395215	0.284127	-0.002196	-0.012865	-0.001569	-0.807251	-0.604370	-0.287109	375	16_15_06_0270000
0.874599	0.395215	0.284127	-0.004393	0.000000	-0.001569	-0.807251	-0.604370	-0.286987	376	16_15_06_0350000
0.874599	0.395215	0.284127	-0.009413	-0.007217	-0.012237	-0.807251	-0.604370	-0.286987	377	16_15_06_0430000
0.874599	0.395215	0.284127	-0.026043	-0.008158	-0.004079	-0.807251	-0.604370	-0.287109	378	16_15_06_0510000
0.874599	0.395215	0.284127	-0.011296	-0.006903	-0.001255	-0.807251	-0.604370	-0.287109	379	16_15_06_0590000
0.874599	0.395215	0.284127	-0.012237	0.006275	0.000628	-0.807251	-0.604370	-0.287109	380	16_15_06_0670000
0.874599	0.395215	0.284127	-0.003765	-0.010982	-0.009727	-0.807251	-0.604370	-0.287109	381	16_15_06_0750000
0.874599	0.395215	0.284127	-0.010668	0.010668	-0.003765	-0.807251	-0.604370	-0.287109	382	16_15_06_0830000
0.874599	0.395215	0.284341	-0.010982	0.010982	0.003452	-0.807129	-0.604370	-0.287231	383	16_15_06_0910000
0.874599	0.395001	0.284341	-0.022592	0.014434	0.002824	-0.807129	-0.604248	-0.287354	384	16_15_06_0990000
0.874599	0.395001	0.284555	0.001569	-0.002824	-0.003765	-0.807129	-0.604248	-0.287476	385	16_15_06_1070000
0.874599	0.395001	0.284555	0.000628	0.002510	-0.001569	-0.807129	-0.604248	-0.287476	386	16_15_06_1150000
0.874599	0.395215	0.284555	-0.015375	-0.002510	-0.005648	-0.807129	-0.604248	-0.287476	387	16_15_06_1230000
0.874599	0.395001	0.284555	-0.006275	0.002510	0.002510	-0.807129	-0.604248	-0.287476	388	16_15_06_1310000
0.874599	0.395001	0.284555	-0.012865	-0.007844	0.000628	-0.807129	-0.604248	-0.287476	389	16_15_06_1390000
0.874599	0.395001	0.284555	-0.015061	-0.004079	-0.000628	-0.807129	-0.604248	-0.287476	390	16_15_06_1470000
0.874599	0.395001	0.284555	-0.016944	0.008472	-0.006589	-0.807129	-0.604248	-0.287598	391	16_15_06_1550000
0.874599	0.395001	0.284768	-0.010668	0.000000	0.002824	-0.807129	-0.604126	-0.287720	392	16_15_06_1630000
0.874599	0.395001	0.284768	-0.006589	-0.008158	0.000628	-0.807129	-0.604126	-0.287720	393	16_15_06_1710000
0.874599	0.395001	0.284768	-0.006589	-0.006275	0.000314	-0.807129	-0.604126	-0.287598	394	16_15_06_1790000
0.874599	0.395001	0.284768	-0.010982	-0.002824	0.000314	-0.807251	-0.604126	-0.287598	395	16_15_06_1870000
0.874599	0.395001	0.284768	-0.010668	-0.019454	0.000000	-0.807251	-0.604126	-0.287598	396	16_15_06_1950000
0.874599	0.394787	0.284555	-0.002824	-0.013179	-0.000941	-0.807251	-0.604126	-0.287476	397	16_15_06_2030000
0.874599	0.394787	0.284555	-0.004079	-0.012865	0.003765	-0.807251	-0.604126	-0.287476	398	16_15_06_2110000
0.874599	0.394787	0.284555	-0.019140	-0.005648	0.000941	-0.807373	-0.604004	-0.287354	399	16_15_06_2190000
0.874599	0.394787	0.284555	-0.017571	-0.020395	0.000314	-0.807373	-0.604004	-0.287354	400	16_15_06_2270000
0.874813	0.394787	0.284341	-0.006275	-0.017571	0.007531	-0.807495	-0.603882	-0.287354	401	16_15_06_2350000
0.874813	0.394574	0.284341	-0.015689	-0.017258	0.003765	-0.807495	-0.603882	-0.287231	402	16_15_06_2430000
0.874813	0.394574	0.284341	-0.012237	0.003138	-0.001255	-0.807495	-0.603882	-0.287231	403	16_15_06_2510000
0.874813	0.394574	0.284341	-0.012237	0.004079	-0.001255	-0.807495	-0.603882	-0.287354	404	16_15_06_2590000
0.874813	0.394574	0.284341	-0.011296	-0.007844	0.002196	-0.807495	-0.603760	-0.287354	405	16_15_06_2670000
0.874813	0.394574	0.284341	0.002510	0.005648	-0.001255	-0.807495	-0.603760	-0.287354	406	16_15_06_2750000
0.874813	0.394574	0.284341	0.011923	-0.003452	-0.001569	-0.807495	-0.603760	-0.287231	407	16_15_06_2830000
0.874813	0.394574	0.284341	-0.002824	-0.010668	-0.007531	-0.807495	-0.603882	-0.287231	408	16_15_06_2910000
0.874813	0.394787	0.284341	0.008472	0.002510	-0.007217	-0.807495	-0.603882	-0.287109	409	16_15_06_2990000
0.874813	0.394787	0.284341	-0.001883	0.000314	-0.001255	-0.807495	-0.603882	-0.287109	410	16_15_06_3070000
0.874813	0.394787	0.284341	-0.004393	0.000941	0.008472	-0.807495	-0.603882	-0.287109	411	16_15_06_3150000
0.874813	0.394574	0.284341	0.004079	-0.010041	-0.007844	-0.807495	-0.603882	-0.287109	412	16_15_06_3230000
0.874813	0.394787	0.284341	-0.003765	-0.009413	-0.009727	-0.807495	-0.604004	-0.286987	413	16_15_06_3310000
0.874813	0.394787	0.284341	-0.006589	0.001255	0.000941	-0.807495	-0.604004	-0.286987	414	16_15_06_3390000
0.874813	0.394787	0.284341	-0.014747	-0.011923	0.004393	-0.807495	-0.604004	-0.286987	415	16_15_06_3470000
0.874813	0.394787	0.284127	-0.017885	-0.019140	-0.006589	-0.807617	-0.603882	-0.286987	416	16_15_06_3550000
0.874813	0.394787	0.284127	-0.007217	-0.011923	-0.005334	-0.807617	-0.603882	-0.286865	417	16_15_06_3630000
0.874813	0.394787	0.284127	-0.003138	-0.015689	-0.009727	-0.807617	-0.604004	-0.286865	418	16_15_06_3710000
0.874813	0.394787	0.283914	-0.013179	-0.022906	-0.002196	-0.807617	-0.604004	-0.286743	419	16_15_06_3790000
0.874813	0.394787	0.283914	-0.003138	-0.012551	-0.001255	-0.807617	-0.604004	-0.286621	420	16_15_06_3870000
0.875027	0.394787	0.283700	0.006275	-0.015689	0.004079	-0.807739	-0.604004	-0.286499	421	16_15_06_3950000
0.875027	0.394787	0.283700	0.008786	-0.023847	0.013179	-0.807739	-0.604004	-0.286377	422	16_15_06_4030000
0.875027	0.394574	0.283700	-0.012551	0.008472	-0.002510	-0.807861	-0.603882	-0.286255	423	16_15_06_4110000
0.875027	0.394574	0.283700	-0.024474	-0.015689	-0.008786	-0.807861	-0.603882	-0.286377	424	16_15_06_4190000
0.875027	0.394574	0.283700	-0.010355	-0.010041	-0.009099	-0.807739	-0.603882	-0.286377	425	16_15_06_4270000
0.875027	0.394787	0.283700	-0.011610	0.001255	-0.004079	-0.807739	-0.604004	-0.286377	426	16_15_06_4350000
0.875027	0.394787	0.283700	-0.013179	-0.004393	-0.001255	-0.807739	-0.603882	-0.286377	427	16_15_06_4430000
0.875027	0.394787	0.283700	-0.001883	-0.002196	-0.001255	-0.807739	-0.603882	-0.286377	428	16_15_06_4510000
0.875027	0.394787	0.283700	0.006589	-0.013492	-0.008472	-0.807739	-0.604004	-0.286255	429	16_15_06_4590000
0.875027	0.394787	0.283486	-0.005962	0.000314	-0.004393	-0.807739	-0.604004	-0.286255	430	16_15_06_4670000
0.875027	0.394787	0.283486	0.001569	-0.006275	0.005334	-0.807739	-0.604004	-0.286255	431	16_15_06_4750000
0.875027	0.394787	0.283486	-0.005334	-0.007844	-0.003452	-0.807861	-0.604004	-0.286133	432	16_15_06_4830000
0.875027	0.394787	0.283486	-0.005962	-0.002510	-0.006903	-0.807739	-0.604004	-0.286133	433	16_15_06_4910000
0.875027	0.394787	0.283486	0.004707	-0.005648	-0.001255	-0.807739	-0.604004	-0.286133	434	16_15_06_4990000
0.875027	0.394787	0.283486	-0.010355	-0.001569	0.001883	-0.807861	-0.604004	-0.286133	435	16_15_06_5070000
0.875027	0.394787	0.283486	-0.006275	-0.003765	0.000941	-0.807861	-0.604004	-0.286133	436	16_15_06_5150000
0.875027	0.394787	0.283486	0.000000	-0.003138	-0.018199	-0.807739	-0.604004	-0.286133	437	16_15_06_5230000
0.875027	0.394787	0.283486	0.000314	-0.004707	-0.003452	-0.807739	-0.604126	-0.286011	438	16_15_06_5310000
0.875027	0.394787	0.283486	0.003765	-0.005648	0.004393	-0.807739	-0.604126	-0.286011	439	16_15_06_5390000
0.875027	0.395001	0.283486	-0.002196	0.014120	-0.011296	-0.807739	-0.604126	-0.286011	440	16_15_06_5470000
0.875027	0.395001	0.283486	-0.021023	0.000314	0.000314	-0.807739	-0.604126	-0.286011	441	16_15_06_5550000
0.875027	0.394787	0.283700	-0.021650	0.006275	-0.001569	-0.807739	-0.604126	-0.286133	442	16_15_06_5630000
0.874813	0.394787	0.283700	-0.001883	0.006589	0.004079	-0.807739	-0.604126	-0.286255	443	16_15_06_5710000
0.874813	0.394787	0.283914	-0.001569	0.008472	-0.006903	-0.807739	-0.604126	-0.286255	444	16_15_06_5790000
0.874813	0.394787	0.283914	-0.000314	0.006275	-0.000314	-0.807617	-0.604126	-0.286377	445	16_15_06_5870000
0.874813	0.394787	0.283914	-0.010982	0.006275	-0.003452	-0.807617	-0.604126	-0.286377	446	16_15_06_5950000
0.874813	0.394787	0.283914	-0.004079	-0.009727	-0.005648	-0.807617	-0.604126	-0.286377	447	16_15_06_6030000
0.874813	0.395001	0.283914	-0.002510	0.003765	0.000628	-0.807617	-0.604126	-0.286377	448	16_15_06_6110000
0.874813	0.395001	0.283914	-0.001883	0.000628	-0.005962	-0.807617	-0.604126	-0.286377	449	16_15_06_6190000
0.874813	0.395001	0.283914	0.000314	-0.001255	0.000941	-0.807617	-0.604126	-0.286377	450	16_15_06_6270000
0.874813	0.395001	0.283914	-0.010355	-0.007217	0.001569	-0.807617	-0.604126	-0.286377	451	16_15_06_6350000
0.874813	0.394787	0.283914	-0.006275	-0.002510	-0.001255	-0.807617	-0.604126	-0.286377	452	16_15_06_6430000
0.874813	0.395001	0.283914	0.003765	-0.001255	-0.003452	-0.807617	-0.604126	-0.286377	453	16_15_06_6510000
0.874813	0.395001	0.283914	-0.020395	-0.005334	-0.003452	-0.807617	-0.604126	-0.286377	454	16_15_06_6590000
0.874813	0.395001	0.283914	-0.010668	-0.007844	-0.007217	-0.807617	-0.604126	-0.286377	455	16_15_06_6670000
0.874813	0.395001	0.283914	-0.015689	-0.007217	-0.002196	-0.807617	-0.604126	-0.286377	456	16_15_06_6750000
0.874813	0.394787	0.284127	-0.005962	-0.001569	0.002196	-0.807617	-0.604126	-0.286377	457	16_15_06_6830000
0.874813	0.394787	0.283914	0.002510	-0.013806	-0.001883	-0.807617	-0.604126	-0.286255	458	16_15_06_6910000
0.874813	0.395001	0.283914	-0.001883	-0.025416	-0.005020	-0.807739	-0.604126	-0.286133	459	16_15_06_6990000
0.874813	0.395001	0.283700	0.006903	-0.014747	-0.006903	-0.807739	-0.604248	-0.286011	460	16_15_06_7070000
0.874813	0.395001	0.283700	-0.002196	-0.011923	-0.021337	-0.807739	-0.604248	-0.285889	461	16_15_06_7150000
0.874813	0.395215	0.283486	-0.008472	-0.005648	-0.005334	-0.807617	-0.604370	-0.285889	462	16_15_06_7230000
0.874813	0.395215	0.283486	-0.004079	-0.004393	-0.000314	-0.807617	-0.604370	-0.285889	463	16_15_06_7310000
0.874813	0.395215	0.283486	0.001569	-0.004079	0.002824	-0.807617	-0.604370	-0.285767	464	16_15_06_7390000
0.874813	0.395001	0.283486	-0.013806	-0.005020	0.004707	-0.807739	-0.604370	-0.285767	465	16_15_06_7470000
0.875027	0.395001	0.283486	-0.011923	-0.006275	0.000314	-0.807739	-0.604248	-0.285767	466	16_15_06_7550000
0.875027	0.395001	0.283486	-0.008472	-0.010668	-0.002196	-0.807739	-0.604248	-0.285767	467	16_15_06_7630000
0.875027	0.395001	0.283486	-0.009413	-0.011610	-0.005334	-0.807739	-0.604248	-0.285767	468	16_15_06_7710000
0.875027	0.395001	0.283486	0.010041	-0.009099	-0.003765	-0.807739	-0.604248	-0.285645	469	16_15_06_7790000
0.875027	0.395001	0.283273	0.011296	-0.006903	0.006903	-0.807739	-0.604370	-0.285522	470	16_15_06_7870000
0.875027	0.395001	0.283273	-0.002824	-0.013806	0.002824	-0.807861	-0.604248	-0.285400	471	16_15_06_7950000
0.875027	0.395001	0.283273	-0.001569	-0.003765	-0.005334	-0.807861	-0.604248	-0.285400	472	16_15_06_8030000
0.875027	0.395001	0.283273	-0.013179	-0.002824	0.002510	-0.807861	-0.604248	-0.285400	473	16_15_06_8110000
0.875027	0.395001	0.283273	-0.010041	-0.011610	-0.004393	-0.807861	-0.604248	-0.285400	474	16_15_06_8190000
0.875027	0.395001	0.283273	-0.008158	-0.007844	0.000941	-0.807861	-0.604248	-0.285400	475	16_15_06_8270000
0.875027	0.395001	0.283273	-0.015375	-0.002196	-0.001255	-0.807861	-0.604248	-0.285400	476	16_15_06_8350000
0.875027	0.395001	0.283273	-0.001883	-0.002196	0.007217	-0.807983	-0.604248	-0.285400	477	16_15_06_8430000
0.875027	0.395001	0.283273	-0.006903	0.000314	-0.011296	-0.807861	-0.604248	-0.285400	478	16_15_06_8510000
0.875027	0.395001	0.283273	-0.023533	-0.008786	-0.008472	-0.807861	-0.604248	-0.285400	479	16_15_06_8590000
0.875027	0.395001	0.283273	-0.012551	0.000314	-0.007531	-0.807861	-0.604248	-0.285400	480	16_15_06_8670000
0.875027	0.395001	0.283273	-0.001569	-0.000941	-0.000628	-0.807861	-0.604248	-0.285400	481	16_15_06_8750000
0.875027	0.395001	0.283273	-0.004707	-0.005020	-0.001255	-0.807861	-0.604248	-0.285400	482	16_15_06_8830000
0.875027	0.395001	0.283273	-0.006589	-0.006589	-0.002196	-0.807861	-0.604248	-0.285400	483	16_15_06_8910000
0.875027	0.395001	0.283273	-0.013179	-0.005648	-0.006589	-0.807861	-0.604248	-0.285400	484	16_15_06_8990000
0.875027	0.395001	0.283273	-0.001883	-0.003452	-0.006275	-0.807861	-0.604248	-0.285400	485	16_15_06_9070000
0.875027	0.395001	0.283273	-0.008786	-0.005334	0.007531	-0.807861	-0.604248	-0.285400	486	16_15_06_9150000
0.875027	0.395001	0.283273	-0.012237	-0.003765	-0.001255	-0.807861	-0.604248	-0.285400	487	16_15_06_9230000
0.875027	0.395001	0.283273	-0.001569	-0.005962	0.000941	-0.807861	-0.604248	-0.285400	488	16_15_06_9310000
0.875027	0.395001	0.283273	-0.001569	-0.016630	0.000000	-0.807983	-0.604248	-0.285278	489	16_15_06_9390000
0.875027	0.395001	0.283273	0.002510	-0.005648	-0.011610	-0.807983	-0.604248	-0.285156	490	16_15_06_9470000
0.875027	0.395001	0.283273	-0.012237	0.002196	-0.012551	-0.807861	-0.604370	-0.285156	491	16_15_06_9550000
0.875027	0.395215	0.283273	-0.003765	0.003138	0.002510	-0.807861	-0.604370	-0.285278	492	16_15_06_9630000
0.875027	0.395001	0.283273	-0.003765	-0.001569	-0.002196	-0.807861	-0.604370	-0.285278	493	16_15_06_9710000
0.875027	0.395001	0.283273	-0.000314	-0.007531	0.010982	-0.807861	-0.604248	-0.285156	494	16_15_06_9790000
0.875027	0.395001	0.283273	-0.006589	-0.003452	0.002510	-0.807983	-0.604248	-0.285156	495	16_15_06_9870000
0.875027	0.395001	0.283273	-0.005648	0.003138	0.004393	-0.807983	-0.604248	-0.285156	496	16_15_06_9950000
0.875027	0.395001	0.283273	-0.021650	-0.012551	-0.002824	-0.807983	-0.604126	-0.285156	497	16_15_07_0030000
0.875027	0.395001	0.283273	-0.025730	0.000314	-0.006275	-0.807983	-0.604126	-0.285278	498	16_15_07_0110000
0.875027	0.395001	0.283273	-0.016316	0.000314	-0.008786	-0.807983	-0.604126	-0.285400	499	16_15_07_0190000
0.875027	0.395001	0.283486	-0.014120	0.008472	-0.015689	-0.807861	-0.604248	-0.285400	500	16_15_07_0270000
0.875027	0.395001	0.283486	-0.006275	-0.005020	-0.015061	-0.807861	-0.604248	-0.285522	501	16_15_07_0350000
0.875027	0.395215	0.283486	-0.010355	-0.013492	-0.001569	-0.807861	-0.604248	-0.285400	502	16_15_07_0430000
0.875027	0.395215	0.283486	-0.004393	-0.009099	-0.004079	-0.807861	-0.604370	-0.285400	503	16_15_07_0510000
0.875027	0.395001	0.283486	-0.014434	0.000314	0.000941	-0.807861	-0.604248	-0.285400	504	16_15_07_0590000
0.875027	0.395001	0.283486	-0.007531	-0.001883	0.002196	-0.807861	-0.604248	-0.285400	505	16_15_07_0670000
0.875027	0.395001	0.283486	-0.010668	-0.007217	0.000314	-0.807861	-0.604248	-0.285400	506	16_15_07_0750000
0.875027	0.395001	0.283486	-0.005648	-0.004079	-0.009413	-0.807861	-0.604248	-0.285400	507	16_15_07_0830000
0.875027	0.395001	0.283486	-0.019454	-0.006903	0.000941	-0.807861	-0.604248	-0.285400	508	16_15_07_0910000
0.875027	0.395001	0.283486	-0.018513	-0.003765	-0.014120	-0.807861	-0.604248	-0.285522	509	16_15_07_0990000
0.875027	0.395001	0.283486	-0.016316	-0.028867	-0.008472	-0.807861	-0.604248	-0.285400	510	16_15_07_1070000
0.875027	0.395001	0.283486	-0.021337	-0.011923	-0.005962	-0.807861	-0.604248	-0.285400	511	16_15_07_1150000
0.875027	0.395001	0.283486	-0.016944	0.004393	0.000000	-0.807861	-0.604248	-0.285400	512	16_15_07_1230000
0.875027	0.395001	0.283486	-0.015689	0.000314	-0.008786	-0.807861	-0.604248	-0.285522	513	16_15_07_1310000
0.875027	0.395001	0.283486	-0.008786	-0.009727	0.002196	-0.807861	-0.604248	-0.285522	514	16_15_07_1390000
0.875027	0.395001	0.283486	-0.014120	-0.003138	0.010668	-0.807861	-0.604248	-0.285522	515	16_15_07_1470000
0.875027	0.395001	0.283486	-0.005648	0.005962	0.003138	-0.807861	-0.604126	-0.285522	516	16_15_07_1550000
0.875027	0.395001	0.283700	-0.003452	-0.004707	-0.002196	-0.807861	-0.604126	-0.285522	517	16_15_07_1630000
0.875027	0.395001	0.283700	-0.001255	0.000628	-0.005648	-0.807861	-0.604126	-0.285522	518	16_15_07_1710000
0.875027	0.395001	0.283700	-0.015375	-0.007217	0.000628	-0.807861	-0.604126	-0.285522	519	16_15_07_1790000
0.875027	0.395001	0.283700	0.007217	0.007217	-0.001883	-0.807861	-0.604126	-0.285522	520	16_15_07_1870000
0.875027	0.395001	0.283700	0.009099	-0.002824	-0.003765	-0.807861	-0.604126	-0.285522	521	16_15_07_1950000
0.875027	0.395001	0.283486	0.009099	-0.007844	0.000000	-0.807861	-0.604248	-0.285400	522	16_15_07_2030000
0.875027	0.395001	0.283486	-0.008158	-0.009727	-0.001569	-0.807861	-0.604248	-0.285400	523	16_15_07_2110000
0.875027	0.395001	0.283486	-0.002510	-0.018513	-0.006589	-0.807983	-0.604248	-0.285278	524	16_15_07_2190000
0.875027	0.395001	0.283273	-0.007217	-0.014747	0.002510	-0.807983	-0.604248	-0.285156	525	16_15_07_2270000
0.875027	0.395001	0.283273	0.005020	-0.013179	0.001569	-0.807983	-0.604248	-0.285034	526	16_15_07_2350000
0.875027	0.395001	0.283273	0.005962	-0.004707	-0.001255	-0.807983	-0.604248	-0.285034	527	16_15_07_2430000
0.875240	0.395001	0.283059	-0.008786	-0.015061	0.010355	-0.808105	-0.604248	-0.284912	528	16_15_07_2510000
0.875240	0.395001	0.283059	0.007531	-0.010041	0.000941	-0.808105	-0.604126	-0.284790	529	16_15_07_2590000
0.875240	0.395001	0.283059	0.002510	-0.014434	-0.002510	-0.808105	-0.604126	-0.284668	530	16_15_07_2670000
0.875240	0.395001	0.282846	0.000000	-0.011610	0.002824	-0.808228	-0.604126	-0.284668	531	16_15_07_2750000
0.875240	0.395001	0.282846	0.006589	-0.008158	-0.001255	-0.808228	-0.604126	-0.284546	532	16_15_07_2830000
0.875240	0.395001	0.282846	-0.008158	-0.004707	0.006589	-0.808228	-0.604126	-0.284424	533	16_15_07_2910000
0.875240	0.395001	0.282846	-0.010982	-0.001883	-0.005962	-0.808228	-0.604126	-0.284424	534	16_15_07_2990000
0.875240	0.395001	0.282846	-0.005334	0.010041	0.000941	-0.808228	-0.604126	-0.284546	535	16_15_07_3070000
0.875240	0.395001	0.282846	-0.001883	0.001883	-0.017258	-0.808228	-0.604126	-0.284546	536	16_15_07_3150000
0.875240	0.395001	0.282846	-0.001255	-0.011610	-0.009727	-0.808105	-0.604248	-0.284546	537	16_15_07_3230000
0.875240	0.395001	0.282846	-0.009727	-0.005648	-0.003138	-0.808105	-0.604248	-0.284546	538	16_15_07_3310000
0.875240	0.395215	0.282846	0.010041	-0.010041	-0.000314	-0.808105	-0.604248	-0.284424	539	16_15_07_3390000
0.875240	0.395215	0.282846	0.003765	-0.004707	0.002824	-0.808105	-0.604370	-0.284302	540	16_15_07_3470000
0.875240	0.395215	0.282632	0.005334	-0.003138	0.005334	-0.808228	-0.604248	-0.284302	541	16_15_07_3550000
0.875240	0.395001	0.282632	-0.001569	-0.002824	0.002824	-0.808228	-0.604248	-0.284180	542	16_15_07_3630000
0.875240	0.395001	0.282632	0.003138	-0.007217	0.000000	-0.808228	-0.604248	-0.284180	543	16_15_07_3710000
0.875240	0.395001	0.282632	-0.011923	-0.004707	0.005020	-0.808228	-0.604248	-0.284180	544	16_15_07_3790000
0.875240	0.395001	0.282632	-0.016316	0.000628	-0.001569	-0.808228	-0.604248	-0.284180	545	16_15_07_3870000
0.875240	0.395001	0.282632	-0.005334	-0.010041	0.003138	-0.808350	-0.604126	-0.284180	546	16_15_07_3950000
0.875240	0.395001	0.282632	-0.011296	-0.008786	0.008472	-0.808350	-0.604126	-0.284180	547	16_15_07_4030000
0.875454	0.394787	0.282632	-0.012237	-0.017571	-0.005648	-0.808350	-0.604126	-0.284180	548	16_15_07_4110000
0.875454	0.394787	0.282632	0.003765	-0.007531	-0.001883	-0.808350	-0.604126	-0.284058	549	16_15_07_4190000
0.875454	0.394787	0.282632	-0.010668	-0.009099	0.003138	-0.808472	-0.604126	-0.284058	550	16_15_07_4270000
0.875454	0.394787	0.282418	0.015375	-0.020395	0.000314	-0.808472	-0.604126	-0.283936	551	16_15_07_4350000
0.875454	0.394787	0.282205	-0.009727	-0.019768	-0.001569	-0.808472	-0.604126	-0.283691	552	16_15_07_4430000
0.875454	0.395001	0.282205	-0.005962	-0.019454	-0.007531	-0.808594	-0.604126	-0.283569	553	16_15_07_4510000
0.875454	0.395001	0.282205	0.002510	-0.002510	0.002824	-0.808594	-0.604126	-0.283569	554	16_15_07_4590000
0.875454	0.395001	0.282205	-0.000314	0.010982	0.004393	-0.808594	-0.604126	-0.283569	555	16_15_07_4670000
0.875454	0.395001	0.282205	-0.001255	-0.003138	-0.005962	-0.808594	-0.604126	-0.283569	556	16_15_07_4750000
0.875454	0.395001	0.282205	-0.009727	-0.013492	-0.000314	-0.808594	-0.604126	-0.283569	557	16_15_07_4830000
0.875454	0.395001	0.282205	-0.001255	-0.008158	-0.000314	-0.808594	-0.604126	-0.283447	558	16_15_07_4910000
0.875454	0.394787	0.282205	0.006903	0.006903	0.005334	-0.808594	-0.604126	-0.283447	559	16_15_07_4990000
0.875454	0.394787	0.282205	-0.010041	0.013806	-0.005334	-0.808594	-0.604126	-0.283569	560	16_15_07_5070000
0.875454	0.394787	0.282205	-0.010355	-0.007217	0.005648	-0.808594	-0.604126	-0.283569	561	16_15_07_5150000
0.875454	0.394787	0.282205	-0.005334	-0.013492	0.000941	-0.808594	-0.604004	-0.283569	562	16_15_07_5230000
0.875668	0.394787	0.282205	-0.018199	-0.007531	0.003138	-0.808594	-0.604004	-0.283447	563	16_15_07_5310000
0.875668	0.394787	0.282205	-0.014747	-0.008786	0.006589	-0.808716	-0.603882	-0.283569	564	16_15_07_5390000
0.875668	0.394574	0.282205	-0.005648	-0.006589	0.000628	-0.808716	-0.603882	-0.283447	565	16_15_07_5470000
0.875668	0.394787	0.282205	-0.001255	-0.001883	-0.008158	-0.808716	-0.603882	-0.283447	566	16_15_07_5550000
0.875668	0.394787	0.282205	-0.011923	0.008786	0.002196	-0.808716	-0.603882	-0.283569	567	16_15_07_5630000
0.875668	0.394574	0.282418	-0.020709	0.017571	0.007217	-0.808716	-0.603882	-0.283691	568	16_15_07_5710000
0.875668	0.394574	0.282418	-0.016630	0.010668	0.005962	-0.808716	-0.603760	-0.283813	569	16_15_07_5790000
0.875668	0.394360	0.282632	-0.021337	-0.002196	0.003138	-0.808716	-0.603760	-0.283936	570	16_15_07_5870000
0.875668	0.394360	0.282632	-0.025102	-0.013179	0.009727	-0.808716	-0.603638	-0.283936	571	16_15_07_5950000
0.875668	0.394360	0.282632	-0.011923	-0.005334	0.002824	-0.808838	-0.603516	-0.283936	572	16_15_07_6030000
0.875668	0.394360	0.282632	-0.001883	-0.001883	-0.002196	-0.808838	-0.603516	-0.283936	573	16_15_07_6110000
0.875668	0.394360	0.282632	0.000000	0.001883	-0.000314	-0.808838	-0.603516	-0.283936	574	16_15_07_6190000
0.875668	0.394360	0.282632	0.014120	-0.006275	-0.013492	-0.808838	-0.603638	-0.283936	575	16_15_07_6270000
0.875668	0.394360	0.282632	-0.005334	-0.009413	-0.014434	-0.808716	-0.603638	-0.283813	576	16_15_07_6350000
0.875668	0.394574	0.282418	0.005020	-0.010982	0.004079	-0.808716	-0.603760	-0.283691	577	16_15_07_6430000
0.875668	0.394360	0.282418	-0.002196	-0.005020	-0.001569	-0.808838	-0.603760	-0.283691	578	16_15_07_6510000
0.875668	0.394360	0.282418	-0.011296	-0.003138	0.000941	-0.808838	-0.603760	-0.283691	579	16_15_07_6590000
0.875668	0.394360	0.282418	-0.010982	-0.003138	-0.003138	-0.808838	-0.603638	-0.283691	580	16_15_07_6670000
0.875668	0.394574	0.282418	-0.007531	0.005334	-0.013492	-0.808716	-0.603760	-0.283691	581	16_15_07_6750000
0.875454	0.394574	0.282632	-0.005648	0.004707	-0.015689	-0.808716	-0.603760	-0.283813	582	16_15_07_6830000
0.875454	0.394574	0.282632	-0.016003	0.000628	-0.003452	-0.808594	-0.603882	-0.283813	583	16_15_07_6910000
0.875454	0.394574	0.282632	-0.018826	0.000941	-0.005020	-0.808594	-0.603882	-0.283936	584	16_15_07_6990000
0.875454	0.394574	0.282632	-0.001569	-0.007217	-0.001255	-0.808594	-0.603882	-0.283936	585	16_15_07_7070000
0.875454	0.394574	0.282632	-0.000941	-0.004079	0.004079	-0.808594	-0.603760	-0.283813	586	16_15_07_7150000
0.875454	0.394574	0.282632	-0.018513	0.001883	-0.002196	-0.808594	-0.603760	-0.283936	587	16_15_07_7230000
0.875454	0.394574	0.282846	-0.018199	0.001255	-0.005020	-0.808594	-0.603760	-0.283936	588	16_15_07_7310000
0.875454	0.394574	0.282846	-0.011610	-0.008472	0.003138	-0.808594	-0.603760	-0.284058	589	16_15_07_7390000
0.875454	0.394360	0.282846	-0.021964	-0.004707	0.002510	-0.808716	-0.603638	-0.284058	590	16_15_07_7470000
0.875454	0.394360	0.282846	-0.010668	-0.005962	0.006903	-0.808716	-0.603638	-0.284058	591	16_15_07_7550000
0.875454	0.394360	0.282846	-0.009413	0.007217	-0.001569	-0.808716	-0.603638	-0.284058	592	16_15_07_7630000
0.875454	0.394360	0.283059	-0.011923	0.012865	-0.005648	-0.808716	-0.603638	-0.284180	593	16_15_07_7710000
0.875454	0.394360	0.283059	-0.010041	0.010355	-0.009727	-0.808594	-0.603638	-0.284302	594	16_15_07_7790000
0.875454	0.394360	0.283273	-0.006275	0.007531	0.002196	-0.808594	-0.603638	-0.284424	595	16_15_07_7870000
0.875454	0.394360	0.283273	-0.011610	-0.006589	0.001255	-0.808594	-0.603638	-0.284424	596	16_15_07_7950000
0.875454	0.394360	0.283273	-0.003138	-0.021337	-0.000314	-0.808594	-0.603516	-0.284302	597	16_15_07_8030000
0.875454	0.394360	0.283059	-0.000941	-0.018826	0.003138	-0.808716	-0.603516	-0.284180	598	16_15_07_8110000
0.875454	0.394360	0.283059	0.000314	-0.009099	0.015061	-0.808716	-0.603516	-0.284180	599	16_15_07_8190000
0.875668	0.394147	0.282846	0.004707	-0.005020	0.005648	-0.808838	-0.603394	-0.284058	600	16_15_07_8270000
0.875668	0.394147	0.282846	-0.008786	-0.008158	0.003765	-0.808838	-0.603394	-0.284058	601	16_15_07_8350000
0.875668	0.394147	0.282846	0.005334	-0.008786	0.009413	-0.808960	-0.603394	-0.283936	602	16_15_07_8430000
0.875668	0.393933	0.282846	-0.006589	0.003452	0.012551	-0.808960	-0.603271	-0.283936	603	16_15_07_8510000
0.875668	0.393933	0.282846	0.001569	0.010668	-0.005334	-0.808960	-0.603271	-0.283936	604	16_15_07_8590000
0.875668	0.393933	0.283059	-0.002824	-0.001255	0.005334	-0.808960	-0.603271	-0.283936	605	16_15_07_8670000
0.875668	0.393933	0.282846	-0.008472	-0.010668	-0.001255	-0.808960	-0.603271	-0.283936	606	16_15_07_8750000
0.875668	0.393933	0.282846	-0.016003	-0.011923	0.000941	-0.809082	-0.603271	-0.283936	607	16_15_07_8830000
0.875668	0.393933	0.282846	-0.017571	-0.008472	0.002196	-0.809082	-0.603149	-0.283936	608	16_15_07_8910000
0.875668	0.393933	0.282846	-0.001569	-0.001883	-0.000628	-0.809082	-0.603149	-0.283936	609	16_15_07_8990000
0.875668	0.393933	0.282846	0.011296	0.002824	-0.007217	-0.809082	-0.603149	-0.283936	610	16_15_07_9070000
0.875668	0.393933	0.282846	0.001255	0.012237	0.004393	-0.809082	-0.603271	-0.283936	611	16_15_07_9150000
0.875668	0.393933	0.283059	-0.000628	0.014120	0.003765	-0.809082	-0.603149	-0.283936	612	16_15_07_9230000
0.875668	0.393933	0.283059	0.003138	-0.003138	0.003138	-0.809082	-0.603149	-0.283936	613	16_15_07_9310000
0.875668	0.393933	0.283059	-0.003138	-0.000628	0.003765	-0.809082	-0.603149	-0.283936	614	16_15_07_9390000
0.875668	0.393933	0.283059	0.007531	-0.013179	-0.009413	-0.809082	-0.603149	-0.283936	615	16_15_07_9470000
0.875668	0.393933	0.282846	0.014434	-0.012551	-0.001255	-0.809082	-0.603271	-0.283813	616	16_15_07_9550000
0.875668	0.393933	0.282846	-0.002824	-0.013179	-0.001569	-0.809082	-0.603271	-0.283691	617	16_15_07_9630000
0.875668	0.393933	0.282846	-0.000628	-0.011296	-0.008786	-0.809082	-0.603271	-0.283569	618	16_15_07_9710000
0.875668	0.393933	0.282632	-0.005962	-0.006589	-0.002196	-0.809082	-0.603394	-0.283447	619	16_15_07_9790000
0.875668	0.394147	0.282632	-0.005020	-0.004707	-0.010982	-0.809082	-0.603394	-0.283447	620	16_15_07_9870000
0.875668	0.394147	0.282632	-0.019454	-0.007217	-0.013492	-0.809082	-0.603394	-0.283447	621	16_15_07_9950000
0.875668	0.394147	0.282632	0.000941	0.006589	-0.009413	-0.808960	-0.603516	-0.283447	622	16_15_08_0030000
0.875668	0.394360	0.282846	-0.005020	-0.002824	-0.013492	-0.808960	-0.603516	-0.283447	623	16_15_08_0110000
0.875668	0.394360	0.282846	0.002824	0.011923	-0.008472	-0.808838	-0.603638	-0.283569	624	16_15_08_0190000
0.875668	0.394360	0.282846	-0.009413	-0.003452	0.005648	-0.808838	-0.603638	-0.283569	625	16_15_08_0270000
0.875668	0.394360	0.282846	-0.017885	-0.008472	-0.001569	-0.808960	-0.603638	-0.283569	626	16_15_08_0350000
0.875668	0.394147	0.282846	-0.015689	-0.006275	-0.000314	-0.808960	-0.603516	-0.283569	627	16_15_08_0430000
0.875668	0.394147	0.282846	-0.003765	-0.001883	-0.003138	-0.808960	-0.603516	-0.283569	628	16_15_08_0510000
0.875668	0.394147	0.282846	-0.006903	-0.004707	-0.001883	-0.808960	-0.603516	-0.283569	629	16_15_08_0590000
0.875668	0.394147	0.282846	-0.005020	-0.004079	0.003138	-0.808960	-0.603516	-0.283569	630	16_15_08_0670000
0.875668	0.394147	0.282846	-0.010355	-0.002196	0.003138	-0.808960	-0.603516	-0.283569	631	16_15_08_0750000
0.875668	0.394147	0.282846	-0.012237	-0.007217	-0.003138	-0.808960	-0.603516	-0.283569	632	16_15_08_0830000
0.875668	0.394147	0.282846	0.002510	-0.004707	-0.003765	-0.808960	-0.603516	-0.283569	633	16_15_08_0910000
0.875668	0.394147	0.282846	0.011296	-0.003138	-0.005648	-0.808960	-0.603516	-0.283447	634	16_15_08_0990000
0.875668	0.394360	0.282846	0.006903	-0.006275	-0.005648	-0.808960	-0.603638	-0.283447	635	16_15_08_1070000
0.875668	0.394360	0.282632	0.008158	-0.009099	-0.007844	-0.808960	-0.603638	-0.283325	636	16_15_08_1150000
0.875668	0.394360	0.282632	0.020395	-0.010982	-0.009727	-0.808960	-0.603760	-0.283203	637	16_15_08_1230000
0.875668	0.394574	0.282632	-0.000628	-0.006275	-0.003452	-0.808960	-0.603760	-0.283081	638	16_15_08_1310000
0.875668	0.394574	0.282418	-0.002196	-0.002510	0.002196	-0.808960	-0.603760	-0.282959	639	16_15_08_1390000
0.875668	0.394574	0.282418	-0.005020	-0.006589	-0.006903	-0.808960	-0.603760	-0.282959	640	16_15_08_1470000
0.875668	0.394574	0.282418	0.004707	-0.009727	0.000314	-0.808960	-0.603882	-0.282959	641	16_15_08_1550000
0.875668	0.394574	0.282418	-0.004079	-0.015061	0.003138	-0.808960	-0.603882	-0.282837	642	16_15_08_1630000
0.875668	0.394574	0.282205	0.000941	-0.008158	0.000314	-0.808960	-0.603760	-0.282715	643	16_15_08_1710000
0.875668	0.394574	0.282205	0.004707	-0.007844	0.009413	-0.809082	-0.603760	-0.282715	644	16_15_08_1790000
0.875668	0.394574	0.282205	0.001255	-0.001883	-0.006275	-0.809082	-0.603760	-0.282593	645	16_15_08_1870000
0.875668	0.394574	0.282205	-0.008472	0.000941	0.000000	-0.809082	-0.603760	-0.282593	646	16_15_08_1950000
0.875668	0.394574	0.282205	-0.008472	0.001255	0.004707	-0.809082	-0.603760	-0.282593	647	16_15_08_2030000
0.875668	0.394360	0.282205	-0.000628	0.010355	0.010982	-0.809082	-0.603760	-0.282715	648	16_15_08_2110000
0.875668	0.394360	0.282418	-0.000314	0.008786	-0.002196	-0.809082	-0.603638	-0.282715	649	16_15_08_2190000
0.875668	0.394360	0.282418	0.003765	0.009727	-0.001883	-0.809082	-0.603760	-0.282837	650	16_15_08_2270000
0.875668	0.394360	0.282418	-0.006275	-0.002510	0.002510	-0.809082	-0.603760	-0.282837	651	16_15_08_2350000
0.875668	0.394360	0.282632	-0.007531	0.009099	0.001255	-0.809082	-0.603638	-0.282837	652	16_15_08_2430000
0.875668	0.394360	0.282632	-0.017885	0.002196	0.009099	-0.809082	-0.603638	-0.282959	653	16_15_08_2510000
0.875668	0.394360	0.282632	-0.003452	-0.001883	0.000628	-0.809082	-0.603516	-0.282959	654	16_15_08_2590000
0.875668	0.394360	0.282632	0.005648	-0.012551	-0.001255	-0.809082	-0.603516	-0.282837	655	16_15_08_2670000
0.875668	0.394360	0.282632	0.001255	-0.005334	0.004707	-0.809204	-0.603516	-0.282837	656	16_15_08_2750000
0.875668	0.394147	0.282632	0.007844	0.001255	0.002824	-0.809204	-0.603516	-0.282715	657	16_15_08_2830000
0.875668	0.394360	0.282632	-0.013492	-0.005020	-0.007217	-0.809204	-0.603516	-0.282715	658	16_15_08_2910000
0.875668	0.394360	0.282632	-0.017571	-0.009099	-0.013492	-0.809204	-0.603638	-0.282715	659	16_15_08_2990000
0.875668	0.394360	0.282632	-0.005334	0.000941	-0.004079	-0.809082	-0.603638	-0.282715	660	16_15_08_3070000
0.875668	0.394360	0.282632	-0.017258	-0.004707	-0.009099	-0.809082	-0.603638	-0.282837	661	16_15_08_3150000
0.875668	0.394360	0.282632	-0.013492	0.006589	0.002824	-0.809082	-0.603638	-0.282837	662	16_15_08_3230000
0.875668	0.394360	0.282632	-0.013179	-0.001883	-0.007844	-0.809082	-0.603638	-0.282959	663	16_15_08_3310000
0.875668	0.394360	0.282632	-0.007844	-0.010668	0.003452	-0.809082	-0.603638	-0.282959	664	16_15_08_3390000
0.875668	0.394360	0.282632	-0.009099	-0.011296	-0.015689	-0.809082	-0.603638	-0.282837	665	16_15_08_3470000
0.875668	0.394360	0.282632	-0.020082	0.003138	-0.007531	-0.809082	-0.603638	-0.282959	666	16_15_08_3550000
0.875668	0.394360	0.282846	-0.004707	0.004393	0.006275	-0.809082	-0.603638	-0.282959	667	16_15_08_3630000
0.875668	0.394360	0.282846	-0.005334	0.003765	0.003452	-0.809082	-0.603638	-0.283081	668	16_15_08_3710000
0.875668	0.394360	0.282846	-0.010355	-0.004393	-0.001883	-0.809082	-0.603638	-0.283081	669	16_15_08_3790000
0.875668	0.394360	0.282846	-0.018199	0.003452	-0.003765	-0.809082	-0.603638	-0.283081	670	16_15_08_3870000
0.875668	0.394360	0.283059	-0.026043	0.001569	-0.004707	-0.809082	-0.603516	-0.283203	671	16_15_08_3950000
0.875454	0.394360	0.283059	-0.010982	-0.000941	-0.003452	-0.808960	-0.603516	-0.283325	672	16_15_08_4030000
0.875454	0.394360	0.283059	-0.010982	-0.011296	-0.008158	-0.808960	-0.603516	-0.283325	673	16_15_08_4110000
0.875454	0.394360	0.283059	-0.006589	0.000941	-0.014747	-0.808960	-0.603638	-0.283325	674	16_15_08_4190000
0.875454	0.394360	0.283059	0.001569	-0.004079	0.000941	-0.808960	-0.603638	-0.283325	675	16_15_08_4270000
0.875454	0.394360	0.283059	-0.016316	0.009099	-0.004393	-0.808960	-0.603638	-0.283325	676	16_15_08_4350000
0.875454	0.394360	0.283273	0.005962	0.001569	0.003138	-0.808960	-0.603638	-0.283325	677	16_15_08_4430000
0.875454	0.394360	0.283273	-0.001569	-0.000941	0.003138	-0.808960	-0.603638	-0.283325	678	16_15_08_4510000
0.875454	0.394360	0.283273	-0.000628	0.006275	-0.006903	-0.808960	-0.603638	-0.283325	679	16_15_08_4590000
0.875454	0.394360	0.283273	-0.005020	-0.005648	-0.003765	-0.808838	-0.603638	-0.283325	680	16_15_08_4670000
0.875454	0.394360	0.283273	-0.018513	-0.006589	-0.007531	-0.808838	-0.603638	-0.283325	681	16_15_08_4750000
0.875454	0.394360	0.283273	-0.008786	-0.008158	-0.009413	-0.808838	-0.603760	-0.283325	682	16_15_08_4830000
0.875454	0.394360	0.283273	-0.005962	-0.007844	-0.002196	-0.808838	-0.603760	-0.283325	683	16_15_08_4910000
0.875454	0.394360	0.283273	-0.002824	0.006275	0.001569	-0.808838	-0.603760	-0.283325	684	16_15_08_4990000
0.875454	0.394360	0.283273	0.005962	-0.002196	-0.000941	-0.808838	-0.603760	-0.283325	685	16_15_08_5070000
0.875454	0.394574	0.283273	0.016944	-0.000628	-0.002510	-0.808838	-0.603760	-0.283203	686	16_15_08_5150000
0.875454	0.394574	0.283059	0.006589	-0.009413	0.002510	-0.808838	-0.603760	-0.283203	687	16_15_08_5230000
0.875454	0.394574	0.283059	0.001883	-0.005020	0.000000	-0.808838	-0.603760	-0.283081	688	16_15_08_5310000
0.875454	0.394574	0.283059	0.003765	-0.010668	-0.005020	-0.808838	-0.603760	-0.282959	689	16_15_08_5390000
0.875454	0.394574	0.283059	-0.001569	-0.006275	0.004079	-0.808960	-0.603882	-0.282959	690	16_15_08_5470000
0.875454	0.394574	0.282846	0.005962	-0.013179	-0.007531	-0.808960	-0.603882	-0.282837	691	16_15_08_5550000
0.875454	0.394574	0.282846	-0.007217	0.005334	-0.006275	-0.808960	-0.603882	-0.282837	692	16_15_08_5630000
0.875454	0.394574	0.282846	0.006275	0.003452	-0.001255	-0.808838	-0.603882	-0.282837	693	16_15_08_5710000
0.875454	0.394574	0.283059	-0.016003	0.001255	0.005020	-0.808838	-0.603882	-0.282837	694	16_15_08_5790000
0.875454	0.394574	0.283059	-0.013179	0.002196	-0.002824	-0.808838	-0.603882	-0.282959	695	16_15_08_5870000
0.875454	0.394574	0.283059	0.002824	-0.000314	0.002196	-0.808838	-0.603882	-0.282959	696	16_15_08_5950000
0.875454	0.394574	0.283059	-0.001883	0.004079	-0.005020	-0.808838	-0.603882	-0.282959	697	16_15_08_6030000
0.875454	0.394574	0.283059	-0.015061	-0.006903	-0.000314	-0.808838	-0.603882	-0.282959	698	16_15_08_6110000
0.875454	0.394574	0.283059	0.006589	0.002196	-0.000941	-0.808838	-0.603882	-0.282959	699	16_15_08_6190000
0.875454	0.394574	0.283059	0.000941	0.000314	-0.003765	-0.808838	-0.603882	-0.282959	700	16_15_08_6270000
0.875454	0.394574	0.283273	-0.010982	0.002196	-0.001569	-0.808838	-0.603882	-0.282959	701	16_15_08_6350000
0.875454	0.394574	0.283273	-0.002824	0.009413	-0.005334	-0.808838	-0.603882	-0.282959	702	16_15_08_6430000
0.875454	0.394574	0.283273	-0.015375	-0.001883	0.001255	-0.808838	-0.603882	-0.283081	703	16_15_08_6510000
0.875454	0.394574	0.283273	-0.008786	-0.008786	0.005962	-0.808838	-0.603760	-0.283081	704	16_15_08_6590000
0.875454	0.394574	0.283273	-0.010355	-0.006903	0.001883	-0.808838	-0.603760	-0.283081	705	16_15_08_6670000
0.875454	0.394360	0.283273	0.003138	-0.007844	0.001255	-0.808960	-0.603760	-0.282959	706	16_15_08_6750000
0.875454	0.394360	0.283273	0.005020	0.003452	0.007531	-0.808960	-0.603760	-0.282959	707	16_15_08_6830000
0.875454	0.394360	0.283273	-0.019454	-0.006903	0.000000	-0.808960	-0.603760	-0.282959	708	16_15_08_6910000
0.875454	0.394360	0.283273	-0.010355	-0.008472	0.000628	-0.808960	-0.603638	-0.282959	709	16_15_08_6990000
0.875454	0.394360	0.283273	-0.013806	-0.008158	-0.000941	-0.808960	-0.603638	-0.282959	710	16_15_08_7070000
0.875454	0.394360	0.283273	-0.018826	-0.005648	-0.006589	-0.808960	-0.603638	-0.282959	711	16_15_08_7150000
0.875454	0.394360	0.283273	0.000000	-0.009413	-0.000941	-0.808960	-0.603638	-0.282959	712	16_15_08_7230000
0.875454	0.394360	0.283273	-0.000628	-0.003452	-0.004079	-0.809082	-0.603638	-0.282959	713	16_15_08_7310000
0.875454	0.394360	0.283059	0.012865	-0.010041	-0.005962	-0.808960	-0.603638	-0.282837	714	16_15_08_7390000
0.875454	0.394360	0.283059	-0.007217	-0.003765	-0.007531	-0.808960	-0.603760	-0.282715	715	16_15_08_7470000
0.875454	0.394360	0.283059	0.006275	-0.008786	0.000000	-0.808960	-0.603760	-0.282715	716	16_15_08_7550000
0.875454	0.394574	0.283059	0.005020	-0.014434	-0.003452	-0.809082	-0.603760	-0.282593	717	16_15_08_7630000
0.875454	0.394574	0.282846	0.005648	-0.004707	-0.003765	-0.809082	-0.603882	-0.282471	718	16_15_08_7710000
0.875454	0.394574	0.282846	0.003765	0.004079	0.002824	-0.809082	-0.603882	-0.282471	719	16_15_08_7790000
0.875454	0.394574	0.283059	-0.015061	0.012865	0.005648	-0.809082	-0.603760	-0.282593	720	16_15_08_7870000
0.875454	0.394360	0.283059	-0.008786	0.002196	-0.001569	-0.809082	-0.603760	-0.282593	721	16_15_08_7950000
0.875454	0.394360	0.283059	-0.018826	0.001255	0.004707	-0.809082	-0.603760	-0.282715	722	16_15_08_8030000
0.875454	0.394360	0.283059	0.000000	-0.004707	0.005020	-0.809082	-0.603638	-0.282715	723	16_15_08_8110000
0.875454	0.394360	0.283059	-0.001255	-0.012865	0.005020	-0.809082	-0.603638	-0.282593	724	16_15_08_8190000
0.875454	0.394360	0.283059	0.006275	-0.004079	-0.001255	-0.809204	-0.603638	-0.282593	725	16_15_08_8270000
0.875454	0.394360	0.283059	-0.005334	-0.002196	0.002824	-0.809204	-0.603638	-0.282471	726	16_15_08_8350000
0.875454	0.394360	0.283059	-0.010668	-0.001569	-0.001883	-0.809204	-0.603638	-0.282593	727	16_15_08_8430000
0.875454	0.394360	0.283059	-0.004707	-0.001569	0.001255	-0.809204	-0.603638	-0.282593	728	16_15_08_8510000
0.875454	0.394147	0.283059	-0.005962	0.001255	0.000941	-0.809204	-0.603638	-0.282593	729	16_15_08_8590000
0.875454	0.394147	0.283059	0.003138	-0.004707	-0.005020	-0.809204	-0.603638	-0.282593	730	16_15_08_8670000
0.875454	0.394360	0.283059	-0.008786	-0.004079	-0.003452	-0.809204	-0.603638	-0.282471	731	16_15_08_8750000
0.875454	0.394360	0.283059	-0.018826	-0.001569	-0.009099	-0.809204	-0.603638	-0.282593	732	16_15_08_8830000
0.875454	0.394360	0.283059	-0.031064	-0.011923	-0.006275	-0.809082	-0.603638	-0.282593	733	16_15_08_8910000
0.875454	0.394360	0.283273	-0.032319	-0.005020	-0.009727	-0.809082	-0.603638	-0.282715	734	16_15_08_8990000
0.875454	0.394360	0.283273	-0.005648	-0.005648	-0.000941	-0.809082	-0.603638	-0.282715	735	16_15_08_9070000
0.875454	0.394360	0.283273	0.004393	0.006275	-0.000941	-0.809082	-0.603638	-0.282715	736	16_15_08_9150000
0.875454	0.394360	0.283273	-0.009727	-0.000628	-0.005334	-0.809082	-0.603638	-0.282715	737	16_15_08_9230000
0.875454	0.394360	0.283273	0.004393	-0.007844	-0.005962	-0.809082	-0.603638	-0.282715	738	16_15_08_9310000
0.875454	0.394360	0.283273	0.000628	0.001569	0.015375	-0.809082	-0.603638	-0.282715	739	16_15_08_9390000
0.875454	0.394147	0.283273	-0.016316	-0.009727	0.003452	-0.809204	-0.603638	-0.282715	740	16_15_08_9470000
0.875454	0.394147	0.283273	-0.004707	-0.012237	0.003452	-0.809204	-0.603516	-0.282593	741	16_15_08_9550000
0.875668	0.394147	0.283059	-0.003452	-0.009099	-0.003765	-0.809204	-0.603516	-0.282593	742	16_15_08_9630000
0.875668	0.394147	0.283059	-0.005962	-0.006589	-0.000941	-0.809204	-0.603516	-0.282593	743	16_15_08_9710000
0.875668	0.394147	0.283059	-0.002196	-0.014120	-0.004079	-0.809204	-0.603516	-0.282471	744	16_15_08_9790000
0.875668	0.394147	0.283059	-0.007844	-0.002824	0.005334	-0.809326	-0.603516	-0.282471	745	16_15_08_9870000
0.875668	0.394147	0.283059	0.004393	-0.014747	0.005020	-0.809326	-0.603516	-0.282349	746	16_15_08_9950000
0.875668	0.394147	0.282846	0.007217	-0.014434	-0.002196	-0.809326	-0.603516	-0.282227	747	16_15_09_0030000
0.875668	0.394147	0.282846	0.004393	-0.021023	-0.001883	-0.809448	-0.603516	-0.282104	748	16_15_09_0110000
0.875668	0.394147	0.282632	-0.009099	-0.011923	-0.010041	-0.809448	-0.603638	-0.281982	749	16_15_09_0190000
0.875668	0.394147	0.282632	-0.004079	-0.021650	-0.009099	-0.809448	-0.603638	-0.281982	750	16_15_09_0270000
0.875668	0.394360	0.282418	0.000000	-0.012865	0.001255	-0.809448	-0.603638	-0.281860	751	16_15_09_0350000
0.875668	0.394360	0.282418	0.004079	0.010668	-0.005962	-0.809448	-0.603638	-0.281738	752	16_15_09_0430000
0.875668	0.394360	0.282418	-0.003452	-0.000314	0.000000	-0.809448	-0.603638	-0.281860	753	16_15_09_0510000
0.875668	0.394360	0.282418	-0.006903	-0.010668	-0.001255	-0.809448	-0.603638	-0.281738	754	16_15_09_0590000
0.875668	0.394360	0.282418	-0.021023	-0.002824	0.004707	-0.809448	-0.603638	-0.281738	755	16_15_09_0670000
0.875668	0.394147	0.282418	-0.004079	-0.004079	-0.005334	-0.809448	-0.603638	-0.281860	756	16_15_09_0750000
0.875668	0.394360	0.282632	-0.009099	0.007531	-0.005020	-0.809448	-0.603638	-0.281860	757	16_15_09_0830000
0.875668	0.394360	0.282632	-0.004079	0.000628	-0.014434	-0.809326	-0.603638	-0.281860	758	16_15_09_0910000
0.875668	0.394360	0.282632	-0.008472	0.001883	-0.005020	-0.809326	-0.603760	-0.281982	759	16_15_09_0990000
0.875668	0.394360	0.282632	-0.008472	-0.006275	0.000000	-0.809326	-0.603760	-0.281982	760	16_15_09_1070000
0.875668	0.394360	0.282632	-0.012237	-0.005648	-0.005648	-0.809326	-0.603760	-0.281982	761	16_15_09_1150000
0.875668	0.394360	0.282632	-0.000941	0.004079	-0.010668	-0.809326	-0.603760	-0.281982	762	16_15_09_1230000
0.875668	0.394574	0.282632	0.001883	-0.003138	-0.012551	-0.809204	-0.603882	-0.281982	763	16_15_09_1310000
0.875454	0.394574	0.282632	0.005962	0.007844	-0.000941	-0.809204	-0.603882	-0.281982	764	16_15_09_1390000
0.875454	0.394574	0.282846	0.008472	0.005648	-0.003452	-0.809204	-0.603882	-0.281982	765	16_15_09_1470000
0.875454	0.394574	0.282846	0.000314	-0.004079	-0.006589	-0.809204	-0.604004	-0.281860	766	16_15_09_1550000
0.875454	0.394574	0.282846	-0.006275	0.003765	-0.007844	-0.809082	-0.604004	-0.281860	767	16_15_09_1630000
0.875454	0.394787	0.282846	-0.004707	0.001569	-0.006275	-0.809082	-0.604004	-0.281982	768	16_15_09_1710000
0.875454	0.394787	0.282846	-0.011296	-0.003765	-0.011923	-0.809082	-0.604126	-0.281982	769	16_15_09_1790000
0.875454	0.394787	0.282846	-0.000314	-0.007844	-0.005020	-0.808960	-0.604126	-0.281982	770	16_15_09_1870000
0.875454	0.394787	0.282846	0.004393	-0.001883	0.001255	-0.808960	-0.604126	-0.281860	771	16_15_09_1950000
0.875454	0.394787	0.282846	0.000314	-0.002196	-0.001883	-0.809082	-0.604126	-0.281860	772	16_15_09_2030000
0.875454	0.394787	0.282846	-0.011296	-0.002510	-0.009727	-0.808960	-0.604126	-0.281860	773	16_15_09_2110000
0.875454	0.394787	0.282846	-0.008786	0.007531	-0.005962	-0.808960	-0.604248	-0.281860	774	16_15_09_2190000
0.875240	0.395001	0.282846	0.008158	-0.004707	-0.011296	-0.808960	-0.604248	-0.281860	775	16_15_09_2270000
0.875240	0.395001	0.282846	-0.003138	-0.001883	-0.007531	-0.808838	-0.604370	-0.281860	776	16_15_09_2350000
0.875240	0.395001	0.282846	-0.010355	-0.005334	-0.014120	-0.808838	-0.604370	-0.281860	777	16_15_09_2430000
0.875240	0.395001	0.282846	-0.005020	0.000000	-0.000941	-0.808838	-0.604370	-0.281860	778	16_15_09_2510000
0.875240	0.395001	0.282846	-0.005020	-0.002510	-0.007844	-0.808838	-0.604370	-0.281860	779	16_15_09_2590000
0.875240	0.395001	0.282846	-0.012865	-0.002196	0.013179	-0.808838	-0.604370	-0.281860	780	16_15_09_2670000
0.875240	0.395001	0.282846	0.004079	-0.018826	0.007531	-0.808960	-0.604248	-0.281860	781	16_15_09_2750000
0.875454	0.395001	0.282846	-0.010041	-0.014747	0.005962	-0.808960	-0.604248	-0.281738	782	16_15_09_2830000
0.875454	0.394787	0.282632	-0.005020	-0.009099	0.006589	-0.809082	-0.604248	-0.281616	783	16_15_09_2910000
0.875454	0.394787	0.282632	-0.005020	0.002510	0.008472	-0.809082	-0.604126	-0.281616	784	16_15_09_2990000
0.875454	0.394787	0.282632	0.007844	-0.005334	0.007844	-0.809082	-0.604126	-0.281616	785	16_15_09_3070000
0.875454	0.394787	0.282632	-0.004707	-0.019454	0.001255	-0.809204	-0.604126	-0.281494	786	16_15_09_3150000
0.875454	0.394787	0.282632	-0.005962	-0.010668	0.003452	-0.809204	-0.604004	-0.281494	787	16_15_09_3230000
0.875454	0.394787	0.282418	-0.007531	-0.002510	-0.002824	-0.809204	-0.604004	-0.281372	788	16_15_09_3310000
0.875454	0.394787	0.282632	0.000314	0.001569	0.000628	-0.809204	-0.604004	-0.281494	789	16_15_09_3390000
0.875668	0.394787	0.282418	0.011296	-0.005020	0.006903	-0.809204	-0.604004	-0.281372	790	16_15_09_3470000
0.875668	0.394574	0.282418	0.001255	-0.002196	0.002196	-0.809326	-0.604004	-0.281372	791	16_15_09_3550000
0.875668	0.394574	0.282418	-0.000628	0.004707	-0.002196	-0.809326	-0.604004	-0.281372	792	16_15_09_3630000
0.875668	0.394574	0.282632	-0.029809	-0.001883	-0.001883	-0.809326	-0.604004	-0.281372	793	16_15_09_3710000
0.875668	0.394574	0.282632	-0.023219	0.001569	0.001569	-0.809326	-0.603882	-0.281494	794	16_15_09_3790000
0.875668	0.394574	0.282846	-0.020395	0.005648	0.000314	-0.809326	-0.603882	-0.281616	795	16_15_09_3870000
0.875454	0.394574	0.282846	-0.004079	0.008472	0.007531	-0.809326	-0.603882	-0.281738	796	16_15_09_3950000
0.875454	0.394360	0.282846	-0.013179	0.009727	-0.003765	-0.809326	-0.603760	-0.281738	797	16_15_09_4030000
0.875454	0.394360	0.283059	-0.004393	0.001569	-0.002824	-0.809204	-0.603760	-0.281860	798	16_15_09_4110000
0.875454	0.394574	0.283059	0.000000	-0.009413	-0.003765	-0.809204	-0.603760	-0.281860	799	16_15_09_4190000
0.875454	0.394574	0.282846	-0.000314	-0.019454	-0.002196	-0.809204	-0.603882	-0.281738	800	16_15_09_4270000
0.875454	0.394574	0.282846	0.002196	-0.006589	-0.010982	-0.809204	-0.603882	-0.281616	801	16_15_09_4350000
0.875454	0.394574	0.282846	-0.013179	-0.000628	-0.006275	-0.809204	-0.603882	-0.281616	802	16_15_09_4430000
0.875454	0.394574	0.282846	-0.001883	-0.009413	-0.001883	-0.809204	-0.603882	-0.281616	803	16_15_09_4510000
0.875454	0.394574	0.282846	-0.003765	-0.005020	0.000628	-0.809204	-0.603882	-0.281616	804	16_15_09_4590000
0.875454	0.394574	0.282846	-0.012551	-0.006589	0.003452	-0.809204	-0.603882	-0.281494	805	16_15_09_4670000
0.875454	0.394574	0.282846	0.002196	0.003138	-0.000941	-0.809326	-0.603882	-0.281494	806	16_15_09_4750000
0.875454	0.394574	0.282846	-0.009413	-0.010041	-0.003452	-0.809326	-0.603882	-0.281494	807	16_15_09_4830000
0.875454	0.394574	0.282846	-0.016003	-0.004707	-0.005020	-0.809326	-0.603882	-0.281494	808	16_15_09_4910000
0.875454	0.394574	0.282846	-0.016003	0.002824	-0.010355	-0.809204	-0.603882	-0.281616	809	16_15_09_4990000
0.875454	0.394574	0.282846	-0.016630	0.001569	-0.005020	-0.809204	-0.603882	-0.281616	810	16_15_09_5070000
0.875454	0.394574	0.283059	-0.015689	0.005648	-0.005020	-0.809204	-0.603882	-0.281738	811	16_15_09_5150000
0.875454	0.394574	0.283059	-0.012237	-0.004079	-0.000314	-0.809204	-0.603882	-0.281860	812	16_15_09_5230000
0.875454	0.394574	0.283059	-0.005962	0.005962	0.008158	-0.809204	-0.603882	-0.281860	813	16_15_09_5310000
0.875454	0.394574	0.283059	0.000314	0.000000	0.001255	-0.809204	-0.603760	-0.281860	814	16_15_09_5390000
0.875454	0.394574	0.283059	0.008158	0.005648	0.004707	-0.809204	-0.603760	-0.281860	815	16_15_09_5470000
0.875454	0.394574	0.283059	-0.014747	-0.005962	-0.006275	-0.809204	-0.603760	-0.281860	816	16_15_09_5550000
0.875454	0.394574	0.283059	-0.003765	0.006903	-0.009727	-0.809204	-0.603882	-0.281860	817	16_15_09_5630000
0.875454	0.394574	0.283273	-0.016944	0.007531	-0.005020	-0.809082	-0.603882	-0.281982	818	16_15_09_5710000
0.875454	0.394574	0.283273	-0.016630	-0.000628	-0.011923	-0.809082	-0.603882	-0.282104	819	16_15_09_5790000
0.875454	0.394574	0.283486	-0.016630	-0.004079	-0.005020	-0.809082	-0.603882	-0.282104	820	16_15_09_5870000
0.875240	0.394574	0.283486	-0.008786	-0.010041	-0.011923	-0.809082	-0.603882	-0.282104	821	16_15_09_5950000
0.875240	0.394574	0.283273	-0.010041	-0.006589	-0.005648	-0.808960	-0.604004	-0.282104	822	16_15_09_6030000
0.875240	0.394574	0.283273	0.002824	-0.001883	-0.002824	-0.808960	-0.604004	-0.282104	823	16_15_09_6110000
0.875240	0.394787	0.283273	0.001883	-0.005334	-0.002824	-0.808960	-0.604004	-0.281982	824	16_15_09_6190000
0.875240	0.394787	0.283273	0.000628	-0.010355	0.003452	-0.808960	-0.604004	-0.281982	825	16_15_09_6270000
0.875454	0.394574	0.283273	-0.000314	0.000941	-0.000628	-0.809082	-0.604004	-0.281982	826	16_15_09_6350000
0.875240	0.394787	0.283273	-0.012237	0.001883	-0.008472	-0.808960	-0.604004	-0.281982	827	16_15_09_6430000
0.875240	0.394787	0.283273	-0.005020	-0.002510	-0.013179	-0.808960	-0.604004	-0.281982	828	16_15_09_6510000
0.875240	0.394787	0.283273	-0.003765	0.002510	0.001255	-0.808960	-0.604126	-0.281982	829	16_15_09_6590000
0.875240	0.394787	0.283486	-0.000941	0.014120	0.007217	-0.808960	-0.604004	-0.282104	830	16_15_09_6670000
0.875240	0.394787	0.283486	-0.008472	0.006903	-0.006903	-0.808960	-0.604004	-0.282104	831	16_15_09_6750000
0.875240	0.394787	0.283486	-0.015061	0.006275	-0.001883	-0.808838	-0.604004	-0.282227	832	16_15_09_6830000
0.875240	0.394787	0.283700	-0.010041	-0.001883	-0.005020	-0.808838	-0.604004	-0.282227	833	16_15_09_6910000
0.875240	0.394787	0.283700	-0.002196	-0.008158	-0.009099	-0.808838	-0.604126	-0.282227	834	16_15_09_6990000
0.875240	0.394787	0.283700	-0.003765	0.001569	-0.008786	-0.808838	-0.604126	-0.282227	835	16_15_09_7070000
0.875027	0.394787	0.283700	0.002510	0.008786	-0.000941	-0.808838	-0.604126	-0.282227	836	16_15_09_7150000
0.875027	0.394787	0.283700	0.009099	-0.000941	0.001883	-0.808838	-0.604126	-0.282227	837	16_15_09_7230000
0.875027	0.394787	0.283700	0.000628	0.006903	-0.007217	-0.808716	-0.604248	-0.282227	838	16_15_09_7310000
0.875027	0.394787	0.283700	-0.010041	0.005648	0.000941	-0.808716	-0.604248	-0.282227	839	16_15_09_7390000
0.875027	0.394787	0.283914	-0.008786	0.004393	0.007217	-0.808716	-0.604126	-0.282349	840	16_15_09_7470000
0.875027	0.394787	0.283914	-0.011610	-0.002824	-0.004079	-0.808716	-0.604126	-0.282349	841	16_15_09_7550000
0.875027	0.394787	0.283914	-0.003765	-0.006589	-0.002824	-0.808716	-0.604126	-0.282349	842	16_15_09_7630000
0.875027	0.394787	0.283914	-0.009099	-0.009413	-0.009099	-0.808716	-0.604126	-0.282349	843	16_15_09_7710000
0.875027	0.394787	0.283914	-0.011296	-0.017258	0.001569	-0.808716	-0.604126	-0.282349	844	16_15_09_7790000
0.875027	0.394787	0.283700	-0.002824	-0.016003	0.000000	-0.808838	-0.604126	-0.282227	845	16_15_09_7870000
0.875027	0.394787	0.283700	0.003765	-0.009413	-0.009413	-0.808838	-0.604126	-0.282104	846	16_15_09_7950000
0.875027	0.395001	0.283486	0.005020	-0.014434	-0.007531	-0.808838	-0.604248	-0.281982	847	16_15_09_8030000
0.875240	0.395001	0.283486	0.014434	-0.015061	-0.000941	-0.808838	-0.604248	-0.281860	848	16_15_09_8110000
0.875240	0.395001	0.283273	-0.004707	-0.018199	-0.001883	-0.808838	-0.604370	-0.281738	849	16_15_09_8190000
0.875240	0.395001	0.283273	-0.009099	-0.014434	-0.001569	-0.808838	-0.604370	-0.281616	850	16_15_09_8270000
0.875240	0.395001	0.283273	-0.001883	-0.012237	-0.001883	-0.808960	-0.604370	-0.281616	851	16_15_09_8350000
0.875240	0.395001	0.283273	-0.016630	-0.008786	0.007531	-0.808960	-0.604248	-0.281494	852	16_15_09_8430000
0.875240	0.394787	0.283059	-0.007844	-0.023219	0.002510	-0.809082	-0.604248	-0.281494	853	16_15_09_8510000
0.875454	0.394787	0.283059	0.000628	-0.024474	0.007531	-0.809082	-0.604248	-0.281372	854	16_15_09_8590000
0.875454	0.394787	0.282846	-0.000314	-0.008786	0.003452	-0.809204	-0.604126	-0.281250	855	16_15_09_8670000
0.875454	0.394787	0.282846	0.006275	-0.022592	0.007217	-0.809204	-0.604126	-0.281128	856	16_15_09_8750000
0.875454	0.394787	0.282632	-0.003765	-0.023847	-0.002196	-0.809326	-0.604126	-0.280884	857	16_15_09_8830000
0.875668	0.394787	0.282418	0.005962	-0.016316	0.000000	-0.809326	-0.604126	-0.280762	858	16_15_09_8910000
0.875668	0.394787	0.282418	0.022278	-0.011923	-0.004079	-0.809326	-0.604126	-0.280640	859	16_15_09_8990000
0.875668	0.394787	0.282205	0.010982	-0.016316	-0.000628	-0.809326	-0.604248	-0.280518	860	16_15_09_9070000
0.875668	0.394787	0.281991	0.000000	-0.018513	0.001255	-0.809448	-0.604248	-0.280273	861	16_15_09_9150000
0.875668	0.394787	0.281991	-0.015061	-0.021337	-0.001569	-0.809448	-0.604248	-0.280273	862	16_15_09_9230000
0.875668	0.394787	0.281777	0.005020	-0.019454	0.005334	-0.809570	-0.604248	-0.280151	863	16_15_09_9310000
0.875881	0.394787	0.281777	-0.005962	-0.009413	-0.000941	-0.809570	-0.604126	-0.280029	864	16_15_09_9390000
0.875881	0.394787	0.281777	0.023533	-0.002824	-0.005648	-0.809570	-0.604248	-0.279907	865	16_15_09_9470000
0.875881	0.395001	0.281564	0.000941	-0.013492	-0.010668	-0.809570	-0.604248	-0.279785	866	16_15_09_9550000
0.875881	0.395001	0.281564	-0.009099	-0.013179	0.004707	-0.809570	-0.604370	-0.279663	867	16_15_09_9630000
0.875881	0.395001	0.281564	0.007217	-0.016003	-0.005334	-0.809570	-0.604370	-0.279663	868	16_15_09_9710000
0.875881	0.395001	0.281350	0.000628	-0.012865	-0.011923	-0.809570	-0.604370	-0.279541	869	16_15_09_9790000
0.875881	0.395001	0.281137	-0.007217	-0.024161	0.001255	-0.809570	-0.604370	-0.279419	870	16_15_09_9870000
0.875881	0.395001	0.281137	-0.015689	-0.020395	-0.007217	-0.809692	-0.604370	-0.279297	871	16_15_09_9950000
0.875881	0.395001	0.281137	0.007217	-0.010355	-0.007217	-0.809692	-0.604492	-0.279175	872	16_15_10_0030000
0.875881	0.395215	0.280923	0.013179	-0.017258	-0.007217	-0.809692	-0.604492	-0.279053	873	16_15_10_0110000
0.875881	0.395215	0.280709	-0.004707	-0.012237	-0.007844	-0.809692	-0.604614	-0.278931	874	16_15_10_0190000
0.875881	0.395215	0.280709	-0.005020	-0.017885	-0.000941	-0.809692	-0.604614	-0.278809	875	16_15_10_0270000
0.875881	0.395215	0.280709	-0.005648	-0.019140	-0.007844	-0.809692	-0.604614	-0.278687	876	16_15_10_0350000
0.875881	0.395215	0.280496	-0.002510	-0.024788	-0.011296	-0.809692	-0.604614	-0.278564	877	16_15_10_0430000
0.875881	0.395428	0.280282	0.000941	-0.013806	-0.004707	-0.809692	-0.604736	-0.278442	878	16_15_10_0510000
0.876095	0.395428	0.280282	-0.006589	-0.000628	-0.000628	-0.809692	-0.604736	-0.278442	879	16_15_10_0590000
0.876095	0.395215	0.280282	-0.012237	-0.006903	0.007844	-0.809692	-0.604614	-0.278442	880	16_15_10_0670000
0.876095	0.395215	0.280282	-0.006589	-0.005020	0.000628	-0.809814	-0.604614	-0.278442	881	16_15_10_0750000
0.876095	0.395215	0.280282	-0.018513	-0.003765	-0.009099	-0.809814	-0.604614	-0.278442	882	16_15_10_0830000
0.876095	0.395215	0.280282	-0.003765	-0.016003	-0.008158	-0.809692	-0.604614	-0.278442	883	16_15_10_0910000
0.876095	0.395215	0.280282	-0.009727	-0.008472	0.001569	-0.809692	-0.604614	-0.278442	884	16_15_10_0990000
0.876095	0.395215	0.280282	-0.007844	0.004079	-0.007531	-0.809692	-0.604614	-0.278442	885	16_15_10_1070000
0.876095	0.395215	0.280282	-0.006589	0.007844	0.003452	-0.809692	-0.604614	-0.278442	886	16_15_10_1150000
0.876095	0.395215	0.280496	-0.004707	0.014120	0.002824	-0.809692	-0.604614	-0.278564	887	16_15_10_1230000
0.875881	0.395215	0.280496	0.005020	0.004393	0.002510	-0.809692	-0.604614	-0.278564	888	16_15_10_1310000
0.876095	0.395215	0.280496	-0.016316	-0.000941	0.005020	-0.809692	-0.604614	-0.278564	889	16_15_10_1390000
0.876095	0.395215	0.280496	-0.010982	0.004079	0.006589	-0.809814	-0.604492	-0.278687	890	16_15_10_1470000
0.875881	0.395215	0.280709	0.005334	0.013179	0.000000	-0.809692	-0.604492	-0.278687	891	16_15_10_1550000
0.875881	0.395215	0.280709	0.009413	0.006903	-0.001255	-0.809692	-0.604492	-0.278809	892	16_15_10_1630000
0.875881	0.395215	0.280709	-0.015061	0.005962	-0.003765	-0.809692	-0.604492	-0.278809	893	16_15_10_1710000
0.875881	0.395001	0.280923	-0.015375	0.014747	0.001255	-0.809692	-0.604492	-0.278931	894	16_15_10_1790000
0.875881	0.395001	0.280923	-0.009413	0.020395	0.006903	-0.809692	-0.604492	-0.279053	895	16_15_10_1870000
0.875881	0.395001	0.281137	-0.008786	0.010668	0.008158	-0.809692	-0.604370	-0.279175	896	16_15_10_1950000
0.875881	0.395001	0.281350	-0.005648	0.012551	-0.001569	-0.809692	-0.604370	-0.279297	897	16_15_10_2030000
0.875881	0.395001	0.281350	-0.006903	0.015375	-0.004079	-0.809570	-0.604370	-0.279419	898	16_15_10_2110000
0.875668	0.395001	0.281564	-0.005648	0.014747	-0.001569	-0.809570	-0.604370	-0.279541	899	16_15_10_2190000
0.875668	0.395001	0.281564	0.004079	0.012237	0.003452	-0.809570	-0.604370	-0.279663	900	16_15_10_2270000
0.875668	0.395001	0.281777	0.000941	0.021337	0.011610	-0.809570	-0.604248	-0.279663	901	16_15_10_2350000
0.875668	0.394787	0.281777	-0.013492	0.002510	0.003452	-0.809570	-0.604248	-0.279785	902	16_15_10_2430000
0.875668	0.394787	0.281991	-0.010355	0.002510	-0.005020	-0.809570	-0.604248	-0.279907	903	16_15_10_2510000
0.875668	0.394787	0.281991	-0.002196	0.005962	-0.002824	-0.809570	-0.604248	-0.279907	904	16_15_10_2590000
0.875668	0.394787	0.281991	-0.003138	0.022278	-0.002510	-0.809448	-0.604248	-0.280029	905	16_15_10_2670000
0.875668	0.394787	0.282205	-0.015061	0.019454	0.014747	-0.809448	-0.604126	-0.280151	906	16_15_10_2750000
0.875668	0.394787	0.282418	-0.005648	0.022906	0.005020	-0.809448	-0.604126	-0.280273	907	16_15_10_2830000
0.875454	0.394574	0.282632	0.009727	0.024474	0.008472	-0.809448	-0.604004	-0.280396	908	16_15_10_2910000
0.875454	0.394574	0.282632	-0.001883	0.012865	-0.004707	-0.809448	-0.604004	-0.280518	909	16_15_10_2990000
0.875454	0.394574	0.282846	0.004079	0.007217	-0.003138	-0.809448	-0.604126	-0.280640	910	16_15_10_3070000
0.875454	0.394787	0.282846	0.008472	0.012237	-0.007531	-0.809326	-0.604126	-0.280640	911	16_15_10_3150000
0.875454	0.394787	0.282846	0.002824	0.014434	-0.007531	-0.809326	-0.604248	-0.280640	912	16_15_10_3230000
0.875240	0.394787	0.283059	-0.001569	0.021023	-0.000941	-0.809204	-0.604248	-0.280762	913	16_15_10_3310000
0.875240	0.394787	0.283273	-0.005334	0.011923	0.004079	-0.809204	-0.604248	-0.280884	914	16_15_10_3390000
0.875240	0.394787	0.283273	-0.013492	0.010668	0.005020	-0.809204	-0.604126	-0.281006	915	16_15_10_3470000
0.875240	0.394787	0.283486	-0.014747	0.005020	-0.001883	-0.809204	-0.604126	-0.281128	916	16_15_10_3550000
0.875240	0.394574	0.283486	-0.001569	0.007217	0.005020	-0.809204	-0.604126	-0.281128	917	16_15_10_3630000
0.875240	0.394574	0.283486	-0.001569	0.005648	0.006903	-0.809204	-0.604004	-0.281250	918	16_15_10_3710000
0.875240	0.394574	0.283700	-0.011296	0.010041	0.005020	-0.809204	-0.604004	-0.281250	919	16_15_10_3790000
0.875240	0.394574	0.283700	0.000941	-0.003452	0.003765	-0.809204	-0.604004	-0.281250	920	16_15_10_3870000
0.875240	0.394574	0.283700	-0.005962	-0.005334	0.002196	-0.809326	-0.604004	-0.281250	921	16_15_10_3950000
0.875240	0.394574	0.283700	0.010355	-0.009727	0.007217	-0.809326	-0.603882	-0.281250	922	16_15_10_4030000
0.875240	0.394574	0.283700	0.014120	0.010982	0.000628	-0.809326	-0.603882	-0.281128	923	16_15_10_4110000
0.875240	0.394574	0.283700	-0.001569	0.012237	0.005962	-0.809326	-0.603882	-0.281128	924	16_15_10_4190000
0.875240	0.394360	0.283700	-0.007531	0.002510	0.008786	-0.809326	-0.603882	-0.281250	925	16_15_10_4270000
0.875240	0.394360	0.283914	-0.012551	0.011296	-0.000628	-0.809326	-0.603760	-0.281372	926	16_15_10_4350000
0.875240	0.394360	0.283914	-0.010355	-0.001569	-0.002824	-0.809326	-0.603760	-0.281372	927	16_15_10_4430000
0.875240	0.394360	0.283914	-0.002824	-0.005020	-0.004707	-0.809326	-0.603760	-0.281372	928	16_15_10_4510000
0.875240	0.394360	0.283914	-0.009099	-0.002510	-0.000941	-0.809326	-0.603760	-0.281372	929	16_15_10_4590000
0.875240	0.394360	0.283914	0.001883	-0.003765	-0.002824	-0.809326	-0.603760	-0.281372	930	16_15_10_4670000
0.875240	0.394360	0.283914	0.008472	0.002196	0.011610	-0.809326	-0.603760	-0.281372	931	16_15_10_4750000
0.875240	0.394360	0.283914	0.000941	0.001883	0.000628	-0.809448	-0.603760	-0.281372	932	16_15_10_4830000
0.875240	0.394360	0.283914	-0.004707	0.001883	0.000941	-0.809448	-0.603760	-0.281372	933	16_15_10_4910000
0.875240	0.394360	0.283914	-0.011923	0.001883	0.008158	-0.809448	-0.603760	-0.281372	934	16_15_10_4990000
0.875240	0.394147	0.284127	-0.026985	0.002510	-0.001569	-0.809448	-0.603638	-0.281494	935	16_15_10_5070000
0.875240	0.394147	0.284127	-0.002196	0.005020	-0.010041	-0.809448	-0.603638	-0.281494	936	16_15_10_5150000
0.875240	0.394147	0.284127	-0.006903	0.008472	0.000628	-0.809326	-0.603638	-0.281616	937	16_15_10_5230000
0.875240	0.394147	0.284341	-0.008786	-0.000941	-0.003765	-0.809326	-0.603638	-0.281616	938	16_15_10_5310000
0.875240	0.394147	0.284341	0.002196	-0.004707	0.008158	-0.809326	-0.603638	-0.281616	939	16_15_10_5390000
0.875240	0.394147	0.284341	-0.008472	-0.009099	0.006903	-0.809448	-0.603638	-0.281616	940	16_15_10_5470000
0.875240	0.394147	0.284341	-0.005334	-0.003765	0.003138	-0.809448	-0.603516	-0.281616	941	16_15_10_5550000
0.875240	0.394147	0.284341	-0.014434	-0.012237	-0.002510	-0.809448	-0.603516	-0.281616	942	16_15_10_5630000
0.875240	0.394147	0.284127	-0.016630	-0.009727	-0.009099	-0.809448	-0.603516	-0.281616	943	16_15_10_5710000
0.875240	0.394147	0.284127	-0.001569	-0.012237	0.000628	-0.809448	-0.603516	-0.281494	944	16_15_10_5790000
0.875454	0.394147	0.284127	-0.001255	-0.012551	-0.005334	-0.809448	-0.603638	-0.281494	945	16_15_10_5870000
0.875454	0.394147	0.284127	-0.002196	-0.018199	-0.000628	-0.809570	-0.603638	-0.281372	946	16_15_10_5950000
0.875454	0.394147	0.283914	-0.001569	-0.021964	-0.000628	-0.809570	-0.603638	-0.281250	947	16_15_10_6030000
0.875454	0.394147	0.283700	0.003452	-0.025102	-0.004707	-0.809570	-0.603638	-0.281006	948	16_15_10_6110000
0.875454	0.394147	0.283700	0.012865	-0.021650	-0.002196	-0.809692	-0.603638	-0.280884	949	16_15_10_6190000
0.875454	0.394147	0.283486	-0.016630	-0.022278	-0.004707	-0.809692	-0.603638	-0.280762	950	16_15_10_6270000
0.875668	0.394147	0.283273	0.002510	-0.030436	0.005648	-0.809692	-0.603638	-0.280518	951	16_15_10_6350000
0.875668	0.394147	0.283059	0.000941	-0.029809	0.002510	-0.809814	-0.603638	-0.280396	952	16_15_10_6430000
0.875668	0.394147	0.282846	0.011610	-0.024788	0.000628	-0.809937	-0.603638	-0.280151	953	16_15_10_6510000
0.875881	0.394147	0.282632	0.001255	-0.032946	0.007217	-0.809937	-0.603638	-0.279907	954	16_15_10_6590000
0.875881	0.394147	0.282418	0.005962	-0.033260	0.009413	-0.810059	-0.603638	-0.279663	955	16_15_10_6670000
0.876095	0.393933	0.282205	-0.001569	-0.031691	0.014120	-0.810181	-0.603516	-0.279419	956	16_15_10_6750000
0.876095	0.393933	0.281991	0.009413	-0.026043	0.018513	-0.810425	-0.603394	-0.279297	957	16_15_10_6830000
0.876095	0.393933	0.281991	0.002196	-0.015689	0.006275	-0.810425	-0.603394	-0.279053	958	16_15_10_6910000
0.876309	0.393719	0.281777	-0.015061	-0.014120	0.010041	-0.810547	-0.603271	-0.279053	959	16_15_10_6990000
0.876309	0.393719	0.281777	-0.012551	-0.027612	0.005648	-0.810669	-0.603271	-0.278931	960	16_15_10_7070000
0.876309	0.393719	0.281564	0.003765	-0.016003	0.011923	-0.810669	-0.603149	-0.278809	961	16_15_10_7150000
0.876522	0.393506	0.281564	-0.005648	-0.015689	0.006903	-0.810791	-0.603149	-0.278687	962	16_15_10_7230000
0.876522	0.393506	0.281350	0.014120	-0.012865	0.007844	-0.810913	-0.603027	-0.278564	963	16_15_10_7310000
0.876522	0.393506	0.281350	0.013806	-0.001569	-0.002510	-0.810913	-0.603027	-0.278442	964	16_15_10_7390000
0.876522	0.393506	0.281350	0.013492	0.002196	0.011923	-0.810913	-0.603027	-0.278442	965	16_15_10_7470000
0.876522	0.393506	0.281350	0.000628	0.008786	0.007531	-0.810913	-0.603027	-0.278442	966	16_15_10_7550000
0.876522	0.393506	0.281350	-0.000941	0.005962	-0.009099	-0.810913	-0.603027	-0.278442	967	16_15_10_7630000
0.876522	0.393506	0.281350	-0.011610	-0.003138	-0.004707	-0.810913	-0.603027	-0.278442	968	16_15_10_7710000
0.876522	0.393506	0.281350	-0.007217	0.004393	0.002196	-0.810913	-0.603027	-0.278442	969	16_15_10_7790000
0.876522	0.393506	0.281350	-0.003452	-0.001569	0.000628	-0.810913	-0.603027	-0.278564	970	16_15_10_7870000
0.876522	0.393506	0.281350	0.011610	-0.000314	-0.002510	-0.810913	-0.603027	-0.278442	971	16_15_10_7950000
0.876522	0.393506	0.281350	0.003138	-0.003138	-0.000941	-0.810913	-0.603027	-0.278442	972	16_15_10_8030000
0.876522	0.393506	0.281350	-0.008786	-0.001883	-0.002510	-0.810913	-0.603027	-0.278442	973	16_15_10_8110000
0.876522	0.393506	0.281350	-0.005962	-0.008786	-0.001569	-0.810913	-0.603027	-0.278442	974	16_15_10_8190000
0.876522	0.393506	0.281350	-0.003452	-0.003765	0.001255	-0.810913	-0.603027	-0.278320	975	16_15_10_8270000
0.876522	0.393506	0.281350	0.020395	0.000941	0.005020	-0.810913	-0.603027	-0.278320	976	16_15_10_8350000
0.876522	0.393506	0.281350	0.015689	-0.013806	0.004393	-0.811035	-0.603027	-0.278198	977	16_15_10_8430000
0.876522	0.393506	0.281137	0.001255	-0.016003	-0.003452	-0.811035	-0.603149	-0.278076	978	16_15_10_8510000
0.876522	0.393506	0.281137	-0.000941	-0.011610	-0.000314	-0.811035	-0.603149	-0.277954	979	16_15_10_8590000
0.876522	0.393506	0.280923	0.006589	-0.007844	-0.001883	-0.811035	-0.603149	-0.277832	980	16_15_10_8670000
0.876522	0.393506	0.280923	-0.005962	0.011296	-0.008472	-0.811035	-0.603149	-0.277832	981	16_15_10_8750000
0.876522	0.393506	0.281137	-0.006275	0.007217	-0.007844	-0.811035	-0.603149	-0.277954	982	16_15_10_8830000
0.876522	0.393719	0.281137	0.003765	0.005334	-0.004707	-0.810913	-0.603271	-0.277954	983	16_15_10_8910000
0.876522	0.393719	0.281137	-0.016630	0.028553	-0.005020	-0.810913	-0.603271	-0.278076	984	16_15_10_8990000
0.876309	0.393719	0.281350	-0.017571	0.016944	-0.008472	-0.810791	-0.603271	-0.278320	985	16_15_10_9070000
0.876309	0.393719	0.281564	0.004079	0.021650	-0.005962	-0.810791	-0.603271	-0.278442	986	16_15_10_9150000
0.876309	0.393719	0.281777	0.018826	0.029809	-0.002196	-0.810669	-0.603394	-0.278564	987	16_15_10_9230000
0.876095	0.393933	0.281991	0.024161	0.026671	0.009099	-0.810669	-0.603394	-0.278687	988	16_15_10_9310000
0.876095	0.393719	0.281991	0.023219	0.025730	0.011610	-0.810669	-0.603394	-0.278687	989	16_15_10_9390000
0.876095	0.393933	0.282205	0.025102	0.038908	0.003452	-0.810547	-0.603394	-0.278809	990	16_15_10_9470000
0.876095	0.393719	0.282418	0.021023	0.025730	0.020395	-0.810547	-0.603394	-0.278809	991	16_15_10_9550000
0.876095	0.393719	0.282418	0.018513	0.022906	0.019454	-0.810669	-0.603271	-0.278931	992	16_15_10_9630000
0.876095	0.393506	0.282632	0.019768	0.022906	0.024474	-0.810669	-0.603149	-0.278931	993	16_15_10_9710000
0.876095	0.393506	0.282632	0.022278	0.021650	0.030122	-0.810791	-0.603027	-0.278931	994	16_15_10_9790000
0.876095	0.393292	0.282846	0.016316	0.011923	0.032946	-0.810913	-0.602905	-0.278931	995	16_15_10_9870000
0.876309	0.393078	0.282846	0.031377	0.006589	0.028553	-0.811035	-0.602783	-0.278931	996	16_15_10_9950000
0.876309	0.393078	0.282632	0.054283	0.008158	0.021964	-0.811157	-0.602661	-0.278809	997	16_15_11_0030000
0.876309	0.393078	0.282632	0.039222	-0.001569	0.010982	-0.811157	-0.602661	-0.278564	998	16_15_11_0110000
0.876309	0.393078	0.282418	0.022278	-0.004707	0.011610	-0.811279	-0.602661	-0.278320	999	16_15_11_0190000
0.876309	0.393078	0.282418	0.014434	-0.011296	0.002824	-0.811279	-0.602661	-0.278198	1000	16_15_11_0270000
0.876522	0.393078	0.282205	0.016316	-0.016944	0.001569	-0.811279	-0.602661	-0.278076	1001	16_15_11_0350000
0.876522	0.393078	0.282205	0.017571	-0.017885	0.009413	-0.811401	-0.602661	-0.277832	1002	16_15_11_0430000
0.876522	0.393078	0.281991	0.008786	-0.007531	-0.003765	-0.811401	-0.602661	-0.277710	1003	16_15_11_0510000
0.876522	0.393078	0.281991	0.009099	-0.021023	-0.000941	-0.811523	-0.602783	-0.277588	1004	16_15_11_0590000
0.876522	0.393078	0.281777	0.017571	-0.022906	-0.002824	-0.811523	-0.602783	-0.277344	1005	16_15_11_0670000
0.876736	0.393078	0.281564	0.007531	-0.021964	-0.000941	-0.811523	-0.602783	-0.277100	1006	16_15_11_0750000
0.876736	0.393078	0.281350	0.011923	-0.027612	-0.010355	-0.811523	-0.602905	-0.276978	1007	16_15_11_0830000
0.876736	0.393292	0.281137	0.013806	-0.043615	-0.009413	-0.811646	-0.603027	-0.276611	1008	16_15_11_0910000
0.876736	0.393292	0.280709	0.001569	-0.033888	-0.013806	-0.811646	-0.603027	-0.276367	1009	16_15_11_0990000
0.876736	0.393506	0.280496	0.015061	-0.021964	-0.000628	-0.811646	-0.603149	-0.276123	1010	16_15_11_1070000
0.876736	0.393506	0.280282	0.009727	-0.017885	-0.007844	-0.811646	-0.603149	-0.275879	1011	16_15_11_1150000
0.876736	0.393506	0.280282	0.002824	-0.021650	-0.011296	-0.811646	-0.603271	-0.275757	1012	16_15_11_1230000
0.876736	0.393719	0.280068	0.005020	-0.009413	-0.023219	-0.811646	-0.603394	-0.275635	1013	16_15_11_1310000
0.876736	0.393719	0.280068	0.008158	-0.008786	-0.015061	-0.811646	-0.603516	-0.275513	1014	16_15_11_1390000
0.876736	0.393933	0.279855	0.001255	-0.011296	-0.005962	-0.811523	-0.603638	-0.275391	1015	16_15_11_1470000
0.876736	0.393933	0.279855	0.009727	-0.007844	0.000941	-0.811523	-0.603638	-0.275391	1016	16_15_11_1550000
0.876736	0.393933	0.279855	0.011923	0.016630	-0.001255	-0.811523	-0.603638	-0.275269	1017	16_15_11_1630000
0.876736	0.393933	0.279855	0.016003	-0.000628	-0.006589	-0.811523	-0.603760	-0.275269	1018	16_15_11_1710000
0.876736	0.394147	0.279855	-0.011296	0.006903	-0.014434	-0.811523	-0.603760	-0.275269	1019	16_15_11_1790000
0.876736	0.394147	0.279855	0.004079	0.016316	-0.010355	-0.811401	-0.603882	-0.275391	1020	16_15_11_1870000
0.876522	0.394147	0.280068	0.012237	0.025730	0.005334	-0.811401	-0.603882	-0.275513	1021	16_15_11_1950000
0.876522	0.394147	0.280282	-0.001569	0.031064	-0.006589	-0.811279	-0.603882	-0.275635	1022	16_15_11_2030000
0.876522	0.394147	0.280496	-0.005020	0.027612	0.010355	-0.811279	-0.603882	-0.275757	1023	16_15_11_2110000
0.876309	0.394147	0.280709	-0.006903	0.021023	0.006275	-0.811279	-0.603760	-0.276001	1024	16_15_11_2190000
0.876309	0.394147	0.280709	0.018826	0.028240	0.010982	-0.811157	-0.603760	-0.276123	1025	16_15_11_2270000
0.876309	0.393933	0.280923	0.008786	0.031691	0.020082	-0.811279	-0.603760	-0.276245	1026	16_15_11_2350000
0.876309	0.393933	0.281137	0.001569	0.035770	0.014120	-0.811279	-0.603638	-0.276367	1027	16_15_11_2430000
0.876309	0.393933	0.281350	-0.002824	0.037653	0.004707	-0.811157	-0.603516	-0.276611	1028	16_15_11_2510000
0.876095	0.393719	0.281777	-0.009727	0.034829	0.008786	-0.811157	-0.603516	-0.276855	1029	16_15_11_2590000
0.876095	0.393719	0.281991	0.004707	0.034829	0.009413	-0.811157	-0.603394	-0.277100	1030	16_15_11_2670000
0.876095	0.393719	0.282205	0.016003	0.021023	-0.000628	-0.811035	-0.603394	-0.277222	1031	16_15_11_2750000
0.876095	0.393719	0.282205	0.015375	0.029809	0.003452	-0.811035	-0.603394	-0.277344	1032	16_15_11_2830000
0.875881	0.393719	0.282418	-0.001883	0.035143	0.005020	-0.811035	-0.603394	-0.277466	1033	16_15_11_2910000
0.875881	0.393719	0.282632	0.015061	0.032946	-0.000941	-0.810913	-0.603394	-0.277588	1034	16_15_11_2990000
0.875881	0.393719	0.282846	0.023219	0.043928	0.001569	-0.810913	-0.603516	-0.277832	1035	16_15_11_3070000
0.875668	0.393719	0.283273	0.014120	0.038281	0.007531	-0.810791	-0.603516	-0.277954	1036	16_15_11_3150000
0.875668	0.393719	0.283273	0.029495	0.035770	0.005648	-0.810791	-0.603516	-0.278076	1037	16_15_11_3230000
0.875668	0.393719	0.283486	0.023219	0.021650	0.003452	-0.810669	-0.603516	-0.278076	1038	16_15_11_3310000
0.875668	0.393719	0.283700	0.000941	0.032946	0.000314	-0.810669	-0.603516	-0.278198	1039	16_15_11_3390000
0.875454	0.393933	0.283914	0.002824	0.030750	-0.005334	-0.810547	-0.603516	-0.278442	1040	16_15_11_3470000
0.875454	0.393933	0.284127	0.004079	0.034829	0.001255	-0.810547	-0.603638	-0.278564	1041	16_15_11_3550000
0.875240	0.393933	0.284341	-0.002510	0.023219	-0.000628	-0.810425	-0.603638	-0.278687	1042	16_15_11_3630000
0.875240	0.393933	0.284555	-0.016630	0.012237	-0.008786	-0.810425	-0.603638	-0.278931	1043	16_15_11_3710000
0.875240	0.393933	0.284555	0.000000	0.015689	0.000628	-0.810303	-0.603638	-0.279053	1044	16_15_11_3790000
0.875240	0.393933	0.284768	0.000000	0.013179	0.000314	-0.810303	-0.603638	-0.279053	1045	16_15_11_3870000
0.875240	0.393933	0.284768	0.016630	0.018513	-0.007217	-0.810303	-0.603638	-0.279175	1046	16_15_11_3950000
0.875027	0.393933	0.284982	0.008158	0.012865	-0.013806	-0.810181	-0.603760	-0.279175	1047	16_15_11_4030000
0.875027	0.394147	0.284982	0.007217	0.007531	-0.000628	-0.810181	-0.603760	-0.279175	1048	16_15_11_4110000
0.875027	0.394147	0.284982	0.008158	0.010355	-0.010982	-0.810059	-0.603882	-0.279175	1049	16_15_11_4190000
0.875027	0.394147	0.284982	-0.006903	0.002824	0.009099	-0.810059	-0.603882	-0.279297	1050	16_15_11_4270000
0.875027	0.394147	0.285195	-0.022278	0.005020	0.010041	-0.810059	-0.603760	-0.279297	1051	16_15_11_4350000
0.875027	0.393933	0.285195	-0.016630	0.004707	0.007531	-0.810181	-0.603638	-0.279419	1052	16_15_11_4430000
0.875027	0.393933	0.285409	-0.011296	-0.000314	0.009727	-0.810181	-0.603638	-0.279541	1053	16_15_11_4510000
0.875027	0.393719	0.285409	-0.012237	0.015375	0.011923	-0.810181	-0.603516	-0.279541	1054	16_15_11_4590000
0.875027	0.393719	0.285409	-0.021650	-0.009413	-0.004707	-0.810181	-0.603394	-0.279663	1055	16_15_11_4670000
0.875027	0.393719	0.285409	-0.009727	-0.003765	-0.001883	-0.810181	-0.603394	-0.279663	1056	16_15_11_4750000
0.875027	0.393719	0.285623	0.011610	0.010668	0.004707	-0.810181	-0.603394	-0.279663	1057	16_15_11_4830000
0.875027	0.393719	0.285623	0.000000	0.006903	0.004707	-0.810181	-0.603394	-0.279785	1058	16_15_11_4910000
0.875027	0.393506	0.285623	-0.013179	-0.001569	0.001883	-0.810181	-0.603394	-0.279785	1059	16_15_11_4990000
0.875027	0.393506	0.285623	-0.016003	-0.003765	0.001883	-0.810303	-0.603271	-0.279785	1060	16_15_11_5070000
0.875027	0.393506	0.285623	-0.022592	-0.008786	-0.001569	-0.810303	-0.603271	-0.279907	1061	16_15_11_5150000
0.875027	0.393506	0.285623	-0.003765	-0.021337	-0.002824	-0.810303	-0.603271	-0.279785	1062	16_15_11_5230000
0.875027	0.393506	0.285623	0.007217	-0.023219	-0.002510	-0.810303	-0.603271	-0.279663	1063	16_15_11_5310000
0.875027	0.393506	0.285409	-0.000628	-0.011923	-0.002824	-0.810303	-0.603271	-0.279541	1064	16_15_11_5390000
0.875240	0.393506	0.285409	-0.007531	-0.014434	0.003765	-0.810425	-0.603271	-0.279419	1065	16_15_11_5470000
0.875240	0.393506	0.285195	-0.008786	-0.015061	-0.012865	-0.810425	-0.603271	-0.279419	1066	16_15_11_5550000
0.875240	0.393506	0.285195	0.016944	-0.025730	-0.005962	-0.810425	-0.603394	-0.279175	1067	16_15_11_5630000
0.875240	0.393719	0.284982	-0.005334	-0.019454	-0.012865	-0.810425	-0.603394	-0.279053	1068	16_15_11_5710000
0.875240	0.393719	0.284768	-0.002510	-0.020395	-0.019454	-0.810425	-0.603516	-0.278931	1069	16_15_11_5790000
0.875240	0.393933	0.284768	0.003452	-0.016316	-0.015689	-0.810303	-0.603638	-0.278809	1070	16_15_11_5870000
0.875240	0.393933	0.284555	0.003452	-0.013179	-0.002824	-0.810303	-0.603760	-0.278687	1071	16_15_11_5950000
0.875240	0.393933	0.284555	0.012551	-0.015061	0.011923	-0.810425	-0.603638	-0.278564	1072	16_15_11_6030000
0.875240	0.393933	0.284341	0.005648	-0.015375	0.001255	-0.810425	-0.603638	-0.278442	1073	16_15_11_6110000
0.875240	0.393933	0.284341	-0.018513	-0.017571	-0.000314	-0.810547	-0.603638	-0.278320	1074	16_15_11_6190000
0.875240	0.393933	0.284341	-0.001883	-0.016944	-0.008158	-0.810547	-0.603638	-0.278198	1075	16_15_11_6270000
0.875454	0.393933	0.284127	-0.006903	-0.019454	-0.000941	-0.810547	-0.603638	-0.278198	1076	16_15_11_6350000
0.875454	0.393933	0.284127	-0.015375	-0.023533	-0.010668	-0.810547	-0.603638	-0.278076	1077	16_15_11_6430000
0.875454	0.393933	0.283914	-0.006903	-0.016630	-0.000628	-0.810547	-0.603638	-0.277954	1078	16_15_11_6510000
0.875454	0.393933	0.283914	-0.003138	-0.015375	-0.001255	-0.810547	-0.603638	-0.277954	1079	16_15_11_6590000
0.875454	0.393933	0.283700	-0.004393	-0.016003	-0.008786	-0.810669	-0.603760	-0.277832	1080	16_15_11_6670000
0.875454	0.393933	0.283700	-0.006589	-0.013806	-0.006903	-0.810669	-0.603760	-0.277710	1081	16_15_11_6750000
0.875454	0.394147	0.283486	-0.005962	-0.029809	-0.008158	-0.810669	-0.603760	-0.277588	1082	16_15_11_6830000
0.875454	0.394147	0.283486	-0.004079	-0.016630	-0.012865	-0.810669	-0.603882	-0.277466	1083	16_15_11_6910000
0.875454	0.394147	0.283273	-0.009099	-0.009727	-0.005334	-0.810669	-0.603882	-0.277466	1084	16_15_11_6990000
0.875454	0.394147	0.283273	-0.021337	-0.010982	-0.009413	-0.810669	-0.603882	-0.277466	1085	16_15_11_7070000
0.875454	0.394147	0.283273	-0.025416	-0.007844	-0.001255	-0.810547	-0.603882	-0.277466	1086	16_15_11_7150000
0.875454	0.394147	0.283273	-0.005648	-0.018826	-0.007217	-0.810669	-0.603882	-0.277466	1087	16_15_11_7230000
0.875454	0.394147	0.283273	-0.013806	-0.012551	-0.006903	-0.810669	-0.603882	-0.277344	1088	16_15_11_7310000
0.875454	0.394147	0.283273	-0.001255	-0.008786	-0.002824	-0.810669	-0.603882	-0.277344	1089	16_15_11_7390000
0.875454	0.394147	0.283059	0.007844	-0.013179	0.001883	-0.810669	-0.603882	-0.277222	1090	16_15_11_7470000
0.875668	0.394147	0.283059	0.006903	-0.014747	0.001255	-0.810669	-0.603882	-0.277100	1091	16_15_11_7550000
0.875668	0.394360	0.283059	0.004079	0.007217	-0.004079	-0.810669	-0.604004	-0.277100	1092	16_15_11_7630000
0.875668	0.394360	0.283059	0.005334	0.002510	-0.005648	-0.810669	-0.604004	-0.277100	1093	16_15_11_7710000
0.875668	0.394360	0.283059	-0.000941	-0.000314	0.003765	-0.810669	-0.604004	-0.277100	1094	16_15_11_7790000
0.875668	0.394360	0.283059	0.007844	0.003138	-0.001883	-0.810669	-0.604004	-0.277100	1095	16_15_11_7870000
0.875454	0.394360	0.283059	-0.002196	0.008472	-0.001255	-0.810669	-0.604004	-0.277100	1096	16_15_11_7950000
0.875454	0.394360	0.283059	0.009413	0.005334	0.002510	-0.810669	-0.604004	-0.277100	1097	16_15_11_8030000
0.875454	0.394360	0.283059	0.010041	0.006903	0.008786	-0.810669	-0.604004	-0.277100	1098	16_15_11_8110000
0.875454	0.394360	0.283059	0.010668	-0.002510	0.005020	-0.810669	-0.604004	-0.276978	1099	16_15_11_8190000
0.875454	0.394360	0.283059	0.009727	0.006589	-0.000314	-0.810669	-0.604004	-0.276978	1100	16_15_11_8270000
0.875454	0.394360	0.283059	-0.008472	0.010982	-0.000941	-0.810669	-0.604004	-0.276978	1101	16_15_11_8350000
0.875454	0.394360	0.283273	-0.015689	0.012865	-0.008786	-0.810669	-0.604004	-0.277100	1102	16_15_11_8430000
0.875454	0.394360	0.283273	-0.000628	-0.003138	0.001255	-0.810547	-0.604004	-0.277222	1103	16_15_11_8510000
0.875454	0.394360	0.283486	-0.007844	0.010668	-0.011296	-0.810547	-0.604004	-0.277222	1104	16_15_11_8590000
0.875454	0.394360	0.283486	-0.016316	0.001255	-0.009727	-0.810547	-0.604126	-0.277344	1105	16_15_11_8670000
0.875240	0.394360	0.283486	-0.012551	0.007531	-0.013179	-0.810425	-0.604126	-0.277466	1106	16_15_11_8750000
0.875240	0.394360	0.283700	-0.022278	0.004707	0.000000	-0.810425	-0.604126	-0.277588	1107	16_15_11_8830000
0.875240	0.394360	0.283700	-0.008786	0.004707	-0.004707	-0.810425	-0.604126	-0.277588	1108	16_15_11_8910000
0.875240	0.394360	0.283914	0.006275	0.000628	-0.009727	-0.810303	-0.604126	-0.277588	1109	16_15_11_8990000
0.875240	0.394574	0.283914	-0.005334	-0.002824	-0.006903	-0.810303	-0.604248	-0.277588	1110	16_15_11_9070000
0.875240	0.394574	0.283914	-0.033574	-0.017571	-0.001883	-0.810303	-0.604126	-0.277710	1111	16_15_11_9150000
0.875240	0.394360	0.283700	-0.020709	-0.029809	-0.004393	-0.810303	-0.604126	-0.277588	1112	16_15_11_9230000
0.875240	0.394360	0.283700	-0.023847	-0.016316	0.000314	-0.810425	-0.604126	-0.277588	1113	16_15_11_9310000
0.875240	0.394360	0.283700	-0.025730	-0.012865	-0.003452	-0.810425	-0.604126	-0.277588	1114	16_15_11_9390000
0.875240	0.394360	0.283700	-0.006589	-0.023847	-0.012865	-0.810425	-0.604126	-0.277588	1115	16_15_11_9470000
0.875454	0.394360	0.283486	-0.014434	-0.029809	0.010982	-0.810425	-0.604126	-0.277466	1116	16_15_11_9550000
0.875454	0.394360	0.283273	0.000628	-0.027612	0.003452	-0.810547	-0.604004	-0.277222	1117	16_15_11_9630000
0.875454	0.394360	0.283059	-0.002196	-0.021650	-0.002196	-0.810669	-0.604004	-0.277100	1118	16_15_11_9710000
0.875454	0.394360	0.283059	0.004393	-0.016630	-0.006275	-0.810669	-0.604004	-0.276978	1119	16_15_11_9790000
