sensor_ID	3261
Accel_X	Accel_Y	Accel_Z	Roll	Pitch	Yaw	Mag_X	Mag_Y	Mag_Z	Count	SysTime
0.828242	-0.478744	0.271950	0.003452	-0.005648	-0.000941	-0.874878	0.478027	0.008301	0	16_15_03_0430000
0.828242	-0.478744	0.271950	-0.000628	0.000941	0.000628	-0.874878	0.477905	0.008301	1	16_15_03_0510000
0.828242	-0.478957	0.271950	-0.010982	-0.007531	0.013492	-0.874878	0.478027	0.008301	2	16_15_03_0590000
0.828242	-0.478957	0.271737	-0.002824	-0.004707	-0.008472	-0.874878	0.478027	0.008423	3	16_15_03_0670000
0.828242	-0.478957	0.271737	-0.006903	-0.000314	0.001569	-0.874878	0.477905	0.008423	4	16_15_03_0750000
0.828242	-0.478957	0.271737	-0.005020	0.000941	0.005648	-0.874878	0.477905	0.008423	5	16_15_03_0830000
0.828242	-0.478957	0.271737	0.000000	0.006275	0.009413	-0.874878	0.478027	0.008423	6	16_15_03_0910000
0.828242	-0.479171	0.271737	-0.001883	0.010982	0.018199	-0.874878	0.478027	0.008301	7	16_15_03_0990000
0.828028	-0.479171	0.271950	-0.005334	0.012551	0.017571	-0.874756	0.478149	0.008301	8	16_15_03_1070000
0.828028	-0.479385	0.271950	0.002196	0.005648	0.005334	-0.874756	0.478271	0.008179	9	16_15_03_1150000
0.828028	-0.479385	0.271950	0.001569	0.005648	-0.005648	-0.874756	0.478271	0.008179	10	16_15_03_1230000
0.828028	-0.479385	0.271950	0.002510	-0.005334	0.000314	-0.874756	0.478149	0.008179	11	16_15_03_1310000
0.828028	-0.479385	0.271950	0.006275	-0.005962	-0.005962	-0.874756	0.478149	0.008179	12	16_15_03_1390000
0.828028	-0.479171	0.271950	0.005020	-0.014747	0.004707	-0.874756	0.478149	0.008179	13	16_15_03_1470000
0.828028	-0.479171	0.271950	0.006275	0.008158	-0.003452	-0.874756	0.478149	0.008179	14	16_15_03_1550000
0.828028	-0.479171	0.272164	0.020395	0.018826	-0.000941	-0.874878	0.478027	0.008057	15	16_15_03_1630000
0.828028	-0.479171	0.272164	0.010355	-0.001883	0.010982	-0.874878	0.478149	0.007935	16	16_15_03_1710000
0.828028	-0.479171	0.272164	0.003138	0.002824	-0.002824	-0.874756	0.478149	0.007935	17	16_15_03_1790000
0.828028	-0.479171	0.272164	0.010355	-0.003765	-0.002196	-0.874878	0.478027	0.007935	18	16_15_03_1870000
0.828028	-0.479171	0.272164	0.007217	-0.007217	-0.000941	-0.874878	0.478027	0.007935	19	16_15_03_1950000
0.828028	-0.479171	0.272378	0.015061	0.001883	0.008786	-0.874878	0.478027	0.007813	20	16_15_03_2030000
0.828028	-0.479171	0.272164	0.010355	-0.021337	-0.001883	-0.874878	0.478027	0.007935	21	16_15_03_2110000
0.828028	-0.479171	0.272164	0.006275	0.008786	0.010041	-0.874878	0.478027	0.007935	22	16_15_03_2190000
0.828028	-0.479171	0.272378	0.002196	-0.003138	0.009413	-0.874756	0.478149	0.007813	23	16_15_03_2270000
0.828028	-0.479385	0.272378	0.005334	-0.004393	0.010982	-0.874756	0.478149	0.007813	24	16_15_03_2350000
0.828028	-0.479385	0.272378	0.011923	0.003452	0.000314	-0.874756	0.478149	0.007813	25	16_15_03_2430000
0.827815	-0.479385	0.272378	0.009099	-0.005334	0.004707	-0.874756	0.478149	0.007813	26	16_15_03_2510000
0.827815	-0.479385	0.272378	0.003138	-0.010982	0.011296	-0.874756	0.478271	0.007813	27	16_15_03_2590000
0.827815	-0.479385	0.272378	0.005020	-0.006275	0.005020	-0.874756	0.478271	0.007813	28	16_15_03_2670000
0.827815	-0.479385	0.272164	-0.005334	-0.005962	-0.007531	-0.874756	0.478271	0.007935	29	16_15_03_2750000
0.828028	-0.479385	0.272164	0.009099	0.009099	-0.004707	-0.874756	0.478149	0.007813	30	16_15_03_2830000
0.827815	-0.479385	0.272378	0.003138	0.016944	-0.004707	-0.874756	0.478149	0.007813	31	16_15_03_2910000
0.827815	-0.479385	0.272591	0.008158	0.015375	0.010041	-0.874756	0.478149	0.007568	32	16_15_03_2990000
0.827815	-0.479385	0.272591	0.006275	0.010041	0.007217	-0.874756	0.478149	0.007446	33	16_15_03_3070000
0.827815	-0.479385	0.272591	-0.005334	-0.006903	0.005648	-0.874756	0.478271	0.007446	34	16_15_03_3150000
0.827815	-0.479385	0.272591	-0.004707	0.005020	0.000941	-0.874756	0.478271	0.007568	35	16_15_03_3230000
0.827815	-0.479385	0.272591	-0.003138	0.007844	-0.005334	-0.874756	0.478149	0.007446	36	16_15_03_3310000
0.827815	-0.479385	0.272591	0.005962	-0.005334	-0.014120	-0.874756	0.478149	0.007446	37	16_15_03_3390000
0.827815	-0.479385	0.272591	0.007531	-0.001569	-0.016944	-0.874878	0.478027	0.007446	38	16_15_03_3470000
0.827815	-0.479171	0.272591	0.005962	-0.014434	0.002196	-0.874878	0.477905	0.007446	39	16_15_03_3550000
0.827815	-0.479171	0.272591	0.015689	-0.007844	0.003452	-0.874878	0.477905	0.007568	40	16_15_03_3630000
0.827815	-0.479171	0.272591	-0.002510	-0.005962	0.003765	-0.874878	0.477905	0.007568	41	16_15_03_3710000
0.827815	-0.479171	0.272591	-0.000941	-0.007217	-0.002196	-0.874878	0.477905	0.007568	42	16_15_03_3790000
0.828028	-0.479171	0.272378	0.003765	-0.019140	0.000628	-0.874878	0.477905	0.007690	43	16_15_03_3870000
0.828028	-0.479171	0.272378	0.001569	-0.012237	-0.021650	-0.875000	0.477783	0.007813	44	16_15_03_3950000
0.828028	-0.479171	0.272378	-0.001255	-0.005020	-0.011610	-0.875000	0.477661	0.007813	45	16_15_03_4030000
0.828028	-0.478957	0.272378	0.000000	0.008158	-0.013806	-0.875122	0.477539	0.007813	46	16_15_03_4110000
0.828242	-0.478957	0.272378	-0.002824	0.007844	-0.018513	-0.875122	0.477417	0.007813	47	16_15_03_4190000
0.828242	-0.478744	0.272378	0.003452	0.001255	-0.004707	-0.875244	0.477417	0.007690	48	16_15_03_4270000
0.828242	-0.478744	0.272378	0.013492	0.000628	-0.001883	-0.875244	0.477295	0.007690	49	16_15_03_4350000
0.828242	-0.478744	0.272378	0.008158	-0.005962	-0.001255	-0.875244	0.477295	0.007690	50	16_15_03_4430000
0.828242	-0.478744	0.272378	0.001569	0.001255	-0.003452	-0.875244	0.477295	0.007690	51	16_15_03_4510000
0.828242	-0.478744	0.272378	0.004707	-0.007217	-0.005648	-0.875244	0.477173	0.007690	52	16_15_03_4590000
0.828242	-0.478744	0.272378	-0.005020	-0.014434	-0.010668	-0.875244	0.477173	0.007690	53	16_15_03_4670000
0.828242	-0.478530	0.272378	0.007844	-0.005020	-0.005648	-0.875366	0.477051	0.007813	54	16_15_03_4750000
0.828455	-0.478530	0.272378	0.002510	0.003765	-0.011610	-0.875366	0.477051	0.007813	55	16_15_03_4830000
0.828455	-0.478530	0.272378	-0.005962	0.003138	0.000941	-0.875366	0.476929	0.007690	56	16_15_03_4910000
0.828455	-0.478530	0.272378	0.001255	-0.002196	-0.005334	-0.875366	0.476929	0.007813	57	16_15_03_4990000
0.828455	-0.478530	0.272378	0.011610	-0.004707	0.000000	-0.875488	0.476929	0.007813	58	16_15_03_5070000
0.828455	-0.478530	0.272378	0.001569	-0.010355	0.001255	-0.875488	0.476929	0.007813	59	16_15_03_5150000
0.828455	-0.478530	0.272378	-0.004707	0.015061	0.007217	-0.875488	0.476929	0.007813	60	16_15_03_5230000
0.828455	-0.478530	0.272378	-0.002824	0.000941	-0.001883	-0.875488	0.476929	0.007690	61	16_15_03_5310000
0.828455	-0.478530	0.272378	-0.000314	-0.012865	0.007531	-0.875366	0.476929	0.007813	62	16_15_03_5390000
0.828455	-0.478530	0.272378	0.001255	-0.007531	-0.005648	-0.875488	0.476929	0.007813	63	16_15_03_5470000
0.828455	-0.478530	0.272378	0.007217	-0.000628	-0.010041	-0.875488	0.476807	0.007813	64	16_15_03_5550000
0.828455	-0.478530	0.272378	-0.003765	-0.003138	0.009727	-0.875488	0.476807	0.007813	65	16_15_03_5630000
0.828455	-0.478530	0.272164	-0.004393	0.002824	0.002824	-0.875488	0.476807	0.007813	66	16_15_03_5710000
0.828455	-0.478530	0.272164	0.004079	-0.003765	0.000941	-0.875488	0.476807	0.007935	67	16_15_03_5790000
0.828455	-0.478530	0.272164	0.009727	-0.009413	-0.005648	-0.875488	0.476807	0.007935	68	16_15_03_5870000
0.828455	-0.478530	0.272164	0.009099	-0.013492	0.004393	-0.875488	0.476807	0.007935	69	16_15_03_5950000
0.828455	-0.478530	0.272164	0.002196	0.003765	0.004393	-0.875488	0.476807	0.007935	70	16_15_03_6030000
0.828455	-0.478530	0.272164	0.006903	0.000628	-0.011610	-0.875488	0.476685	0.007935	71	16_15_03_6110000
0.828455	-0.478530	0.272164	0.003765	-0.005334	-0.007531	-0.875488	0.476685	0.007935	72	16_15_03_6190000
0.828455	-0.478530	0.272164	-0.006589	-0.009413	0.005334	-0.875610	0.476685	0.007935	73	16_15_03_6270000
0.828455	-0.478530	0.272164	-0.005334	-0.013179	0.016630	-0.875488	0.476685	0.008057	74	16_15_03_6350000
0.828455	-0.478744	0.271950	0.004079	-0.006903	0.023847	-0.875488	0.476807	0.008057	75	16_15_03_6430000
0.828242	-0.478744	0.271950	-0.002510	0.000000	0.013806	-0.875366	0.476929	0.008179	76	16_15_03_6510000
0.828242	-0.478957	0.271950	-0.001569	0.013492	0.008786	-0.875366	0.476929	0.008057	77	16_15_03_6590000
0.828242	-0.478957	0.272164	0.005962	0.005334	0.008472	-0.875366	0.477051	0.008057	78	16_15_03_6670000
0.828242	-0.478957	0.272164	0.000628	-0.008472	0.009099	-0.875244	0.477051	0.008057	79	16_15_03_6750000
0.828242	-0.478957	0.271950	-0.006275	-0.023219	0.008786	-0.875244	0.477173	0.008057	80	16_15_03_6830000
0.828242	-0.479171	0.271950	0.008158	-0.006275	0.004079	-0.875244	0.477173	0.008179	81	16_15_03_6910000
0.828242	-0.479171	0.271950	0.004707	-0.016944	0.014120	-0.875244	0.477173	0.008301	82	16_15_03_6990000
0.828242	-0.479171	0.271737	0.005020	-0.022592	0.005648	-0.875244	0.477295	0.008423	83	16_15_03_7070000
0.828242	-0.479171	0.271737	-0.000314	0.000314	0.004707	-0.875244	0.477295	0.008423	84	16_15_03_7150000
0.828242	-0.479171	0.271737	0.001569	0.008158	0.000628	-0.875244	0.477295	0.008423	85	16_15_03_7230000
0.828028	-0.479385	0.271737	-0.001883	0.005648	0.010982	-0.875122	0.477295	0.008301	86	16_15_03_7310000
0.828028	-0.479385	0.271950	0.004393	0.017571	-0.001569	-0.875122	0.477295	0.008301	87	16_15_03_7390000
0.828028	-0.479385	0.271950	-0.008786	0.007531	-0.004707	-0.875244	0.477295	0.008179	88	16_15_03_7470000
0.828028	-0.479385	0.271950	0.000941	-0.002196	0.002824	-0.875244	0.477295	0.008179	89	16_15_03_7550000
0.828028	-0.479385	0.271950	0.010355	-0.011296	0.003138	-0.875244	0.477295	0.008179	90	16_15_03_7630000
0.828028	-0.479385	0.271950	0.012237	-0.007844	-0.008786	-0.875244	0.477173	0.008179	91	16_15_03_7710000
0.828028	-0.479171	0.271950	0.005962	-0.002510	-0.010668	-0.875244	0.477173	0.008179	92	16_15_03_7790000
0.828242	-0.479171	0.271950	-0.002196	-0.001883	-0.009413	-0.875244	0.477051	0.008179	93	16_15_03_7870000
0.828242	-0.479171	0.271950	0.008158	-0.006275	0.002510	-0.875366	0.477051	0.008179	94	16_15_03_7950000
0.828242	-0.479171	0.271737	0.001255	-0.008472	-0.007217	-0.875366	0.476929	0.008301	95	16_15_03_8030000
0.828242	-0.479171	0.271737	0.011296	-0.007844	0.006903	-0.875366	0.476929	0.008301	96	16_15_03_8110000
0.828242	-0.479171	0.271737	0.004079	-0.010041	0.008158	-0.875366	0.477051	0.008301	97	16_15_03_8190000
0.828242	-0.479171	0.271737	-0.000628	-0.000941	0.010982	-0.875244	0.477051	0.008301	98	16_15_03_8270000
0.828242	-0.479171	0.271737	0.005648	-0.001255	0.002196	-0.875244	0.477051	0.008301	99	16_15_03_8350000
0.828242	-0.479171	0.271737	-0.002196	-0.005648	-0.005334	-0.875244	0.477051	0.008301	100	16_15_03_8430000
0.828242	-0.479171	0.271737	-0.005962	0.006275	-0.001569	-0.875366	0.477051	0.008423	101	16_15_03_8510000
0.828242	-0.479171	0.271737	0.009413	0.001569	0.002510	-0.875366	0.477051	0.008301	102	16_15_03_8590000
0.828242	-0.479171	0.271737	0.002510	0.005334	-0.008158	-0.875366	0.476929	0.008301	103	16_15_03_8670000
0.828242	-0.479171	0.271950	0.005334	0.001255	0.012551	-0.875366	0.476929	0.008301	104	16_15_03_8750000
0.828028	-0.479171	0.271950	0.004393	0.002824	0.004707	-0.875366	0.477051	0.008179	105	16_15_03_8830000
0.828028	-0.479171	0.271950	-0.016003	-0.000941	0.000314	-0.875366	0.477051	0.008179	106	16_15_03_8910000
0.828028	-0.479385	0.271737	0.003765	-0.007217	0.022592	-0.875244	0.477051	0.008301	107	16_15_03_8990000
0.828028	-0.479385	0.271737	0.007217	-0.022278	0.016630	-0.875244	0.477173	0.008301	108	16_15_03_9070000
0.828028	-0.479598	0.271523	-0.000628	-0.021650	0.003138	-0.875122	0.477173	0.008423	109	16_15_03_9150000
0.828028	-0.479598	0.271523	0.004393	-0.020395	0.016003	-0.875122	0.477295	0.008667	110	16_15_03_9230000
0.828028	-0.479598	0.271310	-0.002510	-0.009099	0.011610	-0.875122	0.477417	0.008667	111	16_15_03_9310000
0.828028	-0.479598	0.271310	0.002510	-0.014120	0.000000	-0.875122	0.477417	0.008789	112	16_15_03_9390000
0.828028	-0.479812	0.271310	0.000314	-0.004079	0.000000	-0.875122	0.477417	0.008789	113	16_15_03_9470000
0.828028	-0.479598	0.271310	0.004393	-0.005334	0.000000	-0.875122	0.477295	0.008911	114	16_15_03_9550000
0.828028	-0.479812	0.271310	0.001569	-0.004079	0.005648	-0.875122	0.477295	0.008911	115	16_15_03_9630000
0.828028	-0.479812	0.271310	0.002510	-0.010355	0.005648	-0.875122	0.477417	0.008911	116	16_15_03_9710000
0.828028	-0.479812	0.271096	0.003138	-0.016003	-0.009413	-0.875122	0.477295	0.009033	117	16_15_03_9790000
0.828028	-0.479598	0.271096	0.009413	-0.003138	-0.012551	-0.875122	0.477295	0.009033	118	16_15_03_9870000
0.828242	-0.479598	0.271096	0.009727	-0.005020	0.002196	-0.875122	0.477173	0.009033	119	16_15_03_9950000
0.828028	-0.479598	0.271096	0.008786	0.004079	0.009727	-0.875122	0.477173	0.008911	120	16_15_04_0030000
0.828028	-0.479598	0.271096	0.009727	-0.014120	0.002824	-0.875122	0.477295	0.008911	121	16_15_04_0110000
0.828242	-0.479598	0.271096	0.009727	-0.013179	-0.004079	-0.875122	0.477295	0.009033	122	16_15_04_0190000
0.828242	-0.479598	0.271096	-0.007531	0.001569	-0.009413	-0.875244	0.477173	0.009033	123	16_15_04_0270000
0.828242	-0.479598	0.271096	-0.009099	-0.007844	0.001255	-0.875244	0.477173	0.009155	124	16_15_04_0350000
0.828242	-0.479598	0.270882	0.002824	-0.009727	-0.007531	-0.875244	0.477051	0.009155	125	16_15_04_0430000
0.828242	-0.479598	0.270882	-0.003765	-0.014120	-0.001569	-0.875244	0.477051	0.009277	126	16_15_04_0510000
0.828242	-0.479598	0.270882	-0.007531	-0.002824	-0.006275	-0.875244	0.477051	0.009277	127	16_15_04_0590000
0.828242	-0.479598	0.270882	-0.003138	0.000000	-0.004707	-0.875244	0.476929	0.009399	128	16_15_04_0670000
0.828242	-0.479598	0.270882	-0.005648	0.000941	-0.001569	-0.875366	0.476929	0.009399	129	16_15_04_0750000
0.828242	-0.479598	0.270882	0.000314	0.005334	0.008472	-0.875366	0.476929	0.009399	130	16_15_04_0830000
0.828242	-0.479598	0.270882	0.005962	-0.006275	0.014120	-0.875244	0.476929	0.009277	131	16_15_04_0910000
0.828242	-0.479598	0.270882	0.005020	-0.001883	0.009413	-0.875244	0.477051	0.009277	132	16_15_04_0990000
0.828242	-0.479812	0.270882	0.014434	-0.000628	0.013492	-0.875244	0.477051	0.009277	133	16_15_04_1070000
0.828242	-0.479812	0.270882	0.013179	0.005962	-0.000941	-0.875244	0.477173	0.009277	134	16_15_04_1150000
0.828028	-0.479598	0.271096	0.009099	0.015375	-0.004393	-0.875244	0.477051	0.009155	135	16_15_04_1230000
0.828242	-0.479598	0.271096	0.007217	-0.004393	-0.007217	-0.875244	0.477051	0.009033	136	16_15_04_1310000
0.828242	-0.479598	0.271096	0.010041	0.004393	-0.002196	-0.875244	0.477051	0.009033	137	16_15_04_1390000
0.828242	-0.479598	0.271310	0.013806	0.010041	0.001255	-0.875244	0.476929	0.008911	138	16_15_04_1470000
0.828242	-0.479598	0.271310	0.001569	-0.003452	-0.010041	-0.875244	0.476929	0.008911	139	16_15_04_1550000
0.828242	-0.479385	0.271310	0.007844	0.002196	-0.010982	-0.875366	0.476807	0.008789	140	16_15_04_1630000
0.828242	-0.479385	0.271310	-0.000941	0.003765	0.000314	-0.875366	0.476807	0.008789	141	16_15_04_1710000
0.828242	-0.479385	0.271310	-0.001255	-0.002510	0.010041	-0.875366	0.476807	0.008789	142	16_15_04_1790000
0.828028	-0.479598	0.271310	0.002196	-0.002196	0.015375	-0.875366	0.476807	0.008789	143	16_15_04_1870000
0.828028	-0.479598	0.271310	0.005648	0.003138	0.005648	-0.875244	0.476929	0.008789	144	16_15_04_1950000
0.828028	-0.479598	0.271310	0.005648	-0.011296	-0.006589	-0.875244	0.476929	0.008789	145	16_15_04_2030000
0.828028	-0.479598	0.271310	0.005020	-0.012237	-0.002196	-0.875366	0.476807	0.008789	146	16_15_04_2110000
0.828242	-0.479598	0.271310	-0.005020	-0.009727	0.002510	-0.875366	0.476807	0.008911	147	16_15_04_2190000
0.828242	-0.479598	0.271096	-0.002510	-0.017258	0.000628	-0.875366	0.476807	0.009033	148	16_15_04_2270000
0.828242	-0.479598	0.271096	0.006903	0.001255	-0.004707	-0.875366	0.476807	0.009033	149	16_15_04_2350000
0.828242	-0.479598	0.271096	-0.005334	0.010355	0.001255	-0.875366	0.476807	0.009033	150	16_15_04_2430000
0.828242	-0.479598	0.271096	-0.004079	0.012237	-0.013806	-0.875366	0.476685	0.008911	151	16_15_04_2510000
0.828242	-0.479598	0.271310	-0.003452	0.007844	0.009099	-0.875366	0.476685	0.008911	152	16_15_04_2590000
0.828028	-0.479598	0.271310	0.006589	0.007531	0.005648	-0.875366	0.476685	0.008789	153	16_15_04_2670000
0.828028	-0.479598	0.271310	-0.003452	0.003452	0.016003	-0.875366	0.476807	0.008789	154	16_15_04_2750000
0.828028	-0.479598	0.271310	-0.004393	0.004079	0.004707	-0.875366	0.476807	0.008789	155	16_15_04_2830000
0.828028	-0.479812	0.271310	0.005962	-0.000314	0.008786	-0.875366	0.476807	0.008789	156	16_15_04_2910000
0.828028	-0.479812	0.271310	0.004393	-0.007217	0.001255	-0.875244	0.476929	0.008789	157	16_15_04_2990000
0.828028	-0.479812	0.271310	0.008786	-0.003452	0.009727	-0.875244	0.476929	0.008789	158	16_15_04_3070000
0.828028	-0.479812	0.271310	0.007844	-0.009099	-0.000941	-0.875244	0.476929	0.008789	159	16_15_04_3150000
0.828028	-0.479812	0.271310	0.004079	-0.000628	-0.005962	-0.875244	0.476929	0.008789	160	16_15_04_3230000
0.828028	-0.479812	0.271310	-0.002510	-0.006903	-0.000941	-0.875366	0.476807	0.008789	161	16_15_04_3310000
0.828028	-0.479812	0.271310	-0.012551	-0.000628	-0.001883	-0.875366	0.476807	0.008789	162	16_15_04_3390000
0.828028	-0.479812	0.271310	-0.006589	-0.012237	-0.006903	-0.875366	0.476807	0.008911	163	16_15_04_3470000
0.828028	-0.479812	0.271096	-0.009099	-0.010355	-0.010041	-0.875366	0.476685	0.009033	164	16_15_04_3550000
0.828028	-0.479598	0.271096	-0.000941	-0.008472	-0.003138	-0.875366	0.476685	0.009033	165	16_15_04_3630000
0.828242	-0.479598	0.270882	0.000941	-0.005334	0.006903	-0.875366	0.476685	0.009155	166	16_15_04_3710000
0.828242	-0.479598	0.270882	0.001883	0.002196	-0.009099	-0.875488	0.476563	0.009155	167	16_15_04_3790000
0.828242	-0.479598	0.271096	0.004707	0.008472	0.000000	-0.875488	0.476563	0.009033	168	16_15_04_3870000
0.828242	-0.479598	0.271096	0.007531	-0.002196	-0.000314	-0.875488	0.476563	0.009033	169	16_15_04_3950000
0.828242	-0.479598	0.271096	0.010041	-0.007217	-0.016316	-0.875488	0.476440	0.009033	170	16_15_04_4030000
0.828242	-0.479385	0.271096	0.008786	-0.003452	-0.015375	-0.875610	0.476318	0.009033	171	16_15_04_4110000
0.828242	-0.479385	0.271096	0.012551	-0.007531	-0.005334	-0.875610	0.476318	0.009033	172	16_15_04_4190000
0.828242	-0.479385	0.271096	0.003138	-0.014434	-0.003452	-0.875610	0.476196	0.009033	173	16_15_04_4270000
0.828455	-0.479171	0.271096	-0.002510	-0.005334	-0.012865	-0.875732	0.476196	0.009155	174	16_15_04_4350000
0.828455	-0.479171	0.270882	-0.011610	-0.004079	0.004393	-0.875732	0.476074	0.009155	175	16_15_04_4430000
0.828455	-0.479385	0.270882	-0.004079	-0.006903	-0.003138	-0.875732	0.476074	0.009277	176	16_15_04_4510000
0.828455	-0.479171	0.270882	0.006903	0.000941	-0.000314	-0.875732	0.476074	0.009277	177	16_15_04_4590000
0.828455	-0.479171	0.270882	0.010982	-0.001569	-0.001255	-0.875732	0.476074	0.009155	178	16_15_04_4670000
0.828455	-0.479171	0.270882	0.005648	-0.004393	-0.003138	-0.875732	0.476074	0.009155	179	16_15_04_4750000
0.828455	-0.479171	0.270882	-0.007531	0.000941	-0.001883	-0.875732	0.475952	0.009155	180	16_15_04_4830000
0.828455	-0.479171	0.270882	0.006903	0.006589	-0.001569	-0.875732	0.475952	0.009155	181	16_15_04_4910000
0.828455	-0.479171	0.270882	0.002196	-0.002196	0.001255	-0.875732	0.475952	0.009155	182	16_15_04_4990000
0.828455	-0.479171	0.270882	0.009413	-0.021964	-0.005648	-0.875854	0.475952	0.009155	183	16_15_04_5070000
0.828455	-0.479171	0.270882	-0.001569	-0.016944	-0.000314	-0.875854	0.475830	0.009277	184	16_15_04_5150000
0.828455	-0.479171	0.270669	-0.005334	-0.002196	0.003138	-0.875854	0.475830	0.009399	185	16_15_04_5230000
0.828455	-0.479171	0.270669	-0.003452	-0.002510	0.004079	-0.875854	0.475830	0.009399	186	16_15_04_5310000
0.828455	-0.479171	0.270669	-0.007844	0.000941	0.003452	-0.875854	0.475830	0.009399	187	16_15_04_5390000
0.828455	-0.479171	0.270669	0.000628	-0.003452	-0.007844	-0.875854	0.475830	0.009399	188	16_15_04_5470000
0.828455	-0.479171	0.270669	0.001569	0.003138	-0.007844	-0.875854	0.475830	0.009399	189	16_15_04_5550000
0.828455	-0.479171	0.270669	0.021023	0.001883	-0.001569	-0.875854	0.475708	0.009399	190	16_15_04_5630000
0.828455	-0.479171	0.270882	0.004393	0.006589	0.007531	-0.875854	0.475708	0.009277	191	16_15_04_5710000
0.828455	-0.479171	0.270882	0.009099	0.025416	-0.004079	-0.875854	0.475708	0.009155	192	16_15_04_5790000
0.828455	-0.479171	0.271096	-0.003452	0.009727	-0.001569	-0.875854	0.475708	0.009033	193	16_15_04_5870000
0.828455	-0.479171	0.271096	-0.002510	0.014434	0.001255	-0.875854	0.475708	0.008911	194	16_15_04_5950000
0.828455	-0.479171	0.271096	0.002510	-0.006275	-0.003765	-0.875977	0.475708	0.008911	195	16_15_04_6030000
0.828455	-0.479171	0.271096	-0.003138	-0.016003	0.004079	-0.875977	0.475708	0.009033	196	16_15_04_6110000
0.828455	-0.479171	0.271096	-0.004393	0.001569	0.001255	-0.875977	0.475708	0.009033	197	16_15_04_6190000
0.828455	-0.479171	0.271096	0.003138	-0.010982	0.005648	-0.875854	0.475708	0.009033	198	16_15_04_6270000
0.828455	-0.479171	0.270882	0.010041	-0.002510	0.003452	-0.875854	0.475708	0.009033	199	16_15_04_6350000
0.828455	-0.479171	0.271096	0.010982	-0.003138	0.009413	-0.875854	0.475708	0.009033	200	16_15_04_6430000
0.828455	-0.479171	0.270882	0.003138	-0.014434	0.001255	-0.875854	0.475708	0.009033	201	16_15_04_6510000
0.828455	-0.479171	0.270882	-0.001255	0.001569	-0.007531	-0.875854	0.475708	0.009155	202	16_15_04_6590000
0.828455	-0.479171	0.271096	0.009099	0.008786	-0.002196	-0.875854	0.475708	0.009033	203	16_15_04_6670000
0.828455	-0.479171	0.271096	0.000000	-0.004079	0.006903	-0.875854	0.475708	0.009033	204	16_15_04_6750000
0.828455	-0.479171	0.270882	-0.005334	-0.005962	0.004079	-0.875854	0.475708	0.009033	205	16_15_04_6830000
0.828455	-0.479171	0.270882	0.000314	-0.013492	-0.000628	-0.875854	0.475708	0.009155	206	16_15_04_6910000
0.828455	-0.479171	0.270882	0.000000	-0.011610	-0.010041	-0.875977	0.475586	0.009277	207	16_15_04_6990000
0.828455	-0.479171	0.270669	-0.003765	-0.007844	-0.009099	-0.875977	0.475586	0.009277	208	16_15_04_7070000
0.828669	-0.479171	0.270669	0.007531	-0.022592	0.005020	-0.875977	0.475464	0.009399	209	16_15_04_7150000
0.828669	-0.479171	0.270669	-0.006903	-0.010982	-0.004393	-0.875977	0.475464	0.009521	210	16_15_04_7230000
0.828669	-0.479171	0.270455	0.006275	-0.005962	0.001255	-0.875977	0.475464	0.009521	211	16_15_04_7310000
0.828669	-0.479171	0.270455	0.005020	-0.001255	-0.005020	-0.875977	0.475464	0.009521	212	16_15_04_7390000
0.828669	-0.479171	0.270455	-0.003765	0.006275	0.002510	-0.875977	0.475464	0.009521	213	16_15_04_7470000
0.828669	-0.479171	0.270455	0.003452	-0.004707	0.000000	-0.875977	0.475464	0.009521	214	16_15_04_7550000
0.828669	-0.479171	0.270455	-0.006275	-0.012237	0.001883	-0.875977	0.475342	0.009521	215	16_15_04_7630000
0.828669	-0.479171	0.270455	0.004393	0.001569	0.001255	-0.875977	0.475342	0.009644	216	16_15_04_7710000
0.828669	-0.479171	0.270455	-0.009727	-0.002196	0.010041	-0.875977	0.475464	0.009644	217	16_15_04_7790000
0.828669	-0.479171	0.270455	0.001569	-0.007217	-0.003138	-0.875977	0.475464	0.009644	218	16_15_04_7870000
0.828669	-0.479171	0.270455	-0.002824	0.005648	0.001883	-0.875977	0.475464	0.009644	219	16_15_04_7950000
0.828669	-0.479171	0.270455	0.000000	0.001883	-0.007531	-0.875977	0.475342	0.009644	220	16_15_04_8030000
0.828669	-0.479171	0.270455	0.000314	0.007531	0.009727	-0.875977	0.475342	0.009644	221	16_15_04_8110000
0.828455	-0.479385	0.270455	0.002196	0.003452	0.007531	-0.875977	0.475464	0.009521	222	16_15_04_8190000
0.828455	-0.479385	0.270455	0.001255	-0.005962	0.014120	-0.875977	0.475464	0.009521	223	16_15_04_8270000
0.828455	-0.479385	0.270455	0.014120	-0.000628	0.012865	-0.875977	0.475586	0.009521	224	16_15_04_8350000
0.828455	-0.479598	0.270669	0.005020	-0.000628	0.011923	-0.875854	0.475586	0.009521	225	16_15_04_8430000
0.828455	-0.479598	0.270455	-0.003452	-0.005648	0.006275	-0.875854	0.475708	0.009521	226	16_15_04_8510000
0.828455	-0.479598	0.270455	0.004079	0.000628	0.007531	-0.875854	0.475708	0.009521	227	16_15_04_8590000
0.828242	-0.479598	0.270455	0.002510	-0.003452	0.007531	-0.875854	0.475708	0.009521	228	16_15_04_8670000
0.828242	-0.479598	0.270455	0.001255	-0.007217	-0.000941	-0.875854	0.475708	0.009521	229	16_15_04_8750000
0.828242	-0.479598	0.270455	-0.000941	-0.002196	0.011610	-0.875854	0.475830	0.009521	230	16_15_04_8830000
0.828242	-0.479812	0.270455	0.003765	0.002196	-0.001569	-0.875854	0.475830	0.009521	231	16_15_04_8910000
0.828242	-0.479812	0.270455	0.005648	0.005962	-0.000314	-0.875854	0.475830	0.009521	232	16_15_04_8990000
0.828242	-0.479598	0.270669	-0.003138	0.017258	-0.006903	-0.875854	0.475708	0.009399	233	16_15_04_9070000
0.828242	-0.479598	0.270669	0.002196	0.018513	0.000941	-0.875854	0.475708	0.009277	234	16_15_04_9150000
0.828242	-0.479598	0.270882	-0.007531	0.005020	-0.006589	-0.875854	0.475708	0.009155	235	16_15_04_9230000
0.828242	-0.479598	0.270882	0.000941	0.008158	0.002510	-0.875854	0.475586	0.009155	236	16_15_04_9310000
0.828242	-0.479598	0.270882	0.006589	0.007844	-0.005334	-0.875854	0.475586	0.009155	237	16_15_04_9390000
0.828242	-0.479598	0.270882	0.014120	-0.007217	0.001255	-0.875977	0.475586	0.009033	238	16_15_04_9470000
0.828242	-0.479598	0.270882	-0.007217	-0.003452	-0.007217	-0.875977	0.475586	0.009033	239	16_15_04_9550000
0.828242	-0.479598	0.270882	0.005334	-0.003452	-0.003138	-0.875977	0.475464	0.009155	240	16_15_04_9630000
0.828242	-0.479598	0.270882	-0.005648	-0.009413	0.003138	-0.875977	0.475464	0.009155	241	16_15_04_9710000
0.828242	-0.479598	0.270882	0.000628	-0.005334	0.003765	-0.875977	0.475464	0.009155	242	16_15_04_9790000
0.828242	-0.479598	0.270882	0.005334	-0.004707	0.000628	-0.875977	0.475464	0.009155	243	16_15_04_9870000
0.828242	-0.479598	0.270882	0.008158	-0.003452	0.011923	-0.875977	0.475464	0.009155	244	16_15_04_9950000
0.828242	-0.479598	0.270882	0.001255	-0.000314	0.003452	-0.875977	0.475586	0.009155	245	16_15_05_0030000
0.828242	-0.479812	0.270882	-0.010982	0.004393	0.006275	-0.875854	0.475586	0.009155	246	16_15_05_0110000
0.828242	-0.479812	0.270882	0.003452	-0.010982	-0.007531	-0.875977	0.475586	0.009277	247	16_15_05_0190000
0.828242	-0.479812	0.270669	-0.007531	-0.011923	0.005648	-0.875977	0.475586	0.009277	248	16_15_05_0270000
0.828242	-0.479812	0.270669	-0.001255	-0.000314	0.016316	-0.875854	0.475586	0.009399	249	16_15_05_0350000
0.828028	-0.479812	0.270669	0.008158	0.008472	0.002824	-0.875854	0.475708	0.009277	250	16_15_05_0430000
0.828028	-0.479812	0.270882	0.005334	0.006589	0.000000	-0.875854	0.475586	0.009277	251	16_15_05_0510000
0.828028	-0.479812	0.270882	-0.001255	-0.006903	0.001255	-0.875854	0.475586	0.009277	252	16_15_05_0590000
0.828028	-0.479812	0.270669	0.008158	-0.005020	0.005334	-0.875854	0.475586	0.009277	253	16_15_05_0670000
0.828028	-0.479812	0.270669	0.022278	-0.020709	0.013492	-0.875854	0.475708	0.009277	254	16_15_05_0750000
0.828028	-0.480026	0.270669	0.002510	-0.011923	0.007217	-0.875854	0.475708	0.009277	255	16_15_05_0830000
0.828028	-0.480026	0.270669	-0.003765	-0.002824	0.018199	-0.875732	0.475830	0.009399	256	16_15_05_0910000
0.828028	-0.480239	0.270669	0.005648	-0.007217	0.026985	-0.875732	0.475952	0.009399	257	16_15_05_0990000
0.827815	-0.480239	0.270669	0.007844	0.003138	0.013806	-0.875610	0.476074	0.009399	258	16_15_05_1070000
0.827815	-0.480239	0.270669	0.000000	-0.007217	-0.007531	-0.875610	0.476074	0.009399	259	16_15_05_1150000
0.827815	-0.480239	0.270669	-0.006903	-0.002196	0.005648	-0.875610	0.476074	0.009399	260	16_15_05_1230000
0.827815	-0.480453	0.270669	-0.002510	0.004707	-0.000314	-0.875610	0.476074	0.009399	261	16_15_05_1310000
0.827815	-0.480453	0.270669	0.001569	0.006589	-0.001883	-0.875610	0.476074	0.009399	262	16_15_05_1390000
0.827815	-0.480453	0.270669	0.003765	-0.000314	0.004393	-0.875610	0.476074	0.009399	263	16_15_05_1470000
0.827815	-0.480239	0.270669	-0.000628	-0.012865	-0.008786	-0.875610	0.476074	0.009399	264	16_15_05_1550000
0.827815	-0.480239	0.270455	-0.001569	-0.009099	-0.000628	-0.875732	0.475952	0.009399	265	16_15_05_1630000
0.827815	-0.480239	0.270455	0.005334	0.003452	0.001255	-0.875732	0.475952	0.009521	266	16_15_05_1710000
0.827815	-0.480239	0.270669	0.006589	0.010982	0.003452	-0.875732	0.475952	0.009399	267	16_15_05_1790000
0.827815	-0.480239	0.270669	0.002510	0.001255	0.004079	-0.875732	0.475952	0.009277	268	16_15_05_1870000
0.827815	-0.480239	0.270669	0.000941	0.000314	-0.003765	-0.875732	0.475952	0.009277	269	16_15_05_1950000
0.827815	-0.480239	0.270669	0.000000	-0.003138	-0.007531	-0.875732	0.475952	0.009277	270	16_15_05_2030000
0.827815	-0.480239	0.270669	0.000628	-0.005962	0.006275	-0.875732	0.475830	0.009277	271	16_15_05_2110000
0.827815	-0.480239	0.270669	0.002824	-0.005334	0.001255	-0.875732	0.475952	0.009399	272	16_15_05_2190000
0.827815	-0.480239	0.270669	0.005020	-0.011923	0.007217	-0.875732	0.475952	0.009399	273	16_15_05_2270000
0.827815	-0.480453	0.270669	0.005334	-0.003452	0.002824	-0.875732	0.475952	0.009399	274	16_15_05_2350000
0.827815	-0.480453	0.270455	-0.008786	-0.012865	0.006903	-0.875732	0.475952	0.009521	275	16_15_05_2430000
0.827815	-0.480453	0.270455	0.002196	-0.006589	0.007217	-0.875610	0.475952	0.009521	276	16_15_05_2510000
0.827815	-0.480453	0.270455	-0.008472	0.000941	-0.018513	-0.875732	0.475952	0.009644	277	16_15_05_2590000
0.828028	-0.480453	0.270455	-0.001883	0.005334	-0.005648	-0.875732	0.475830	0.009521	278	16_15_05_2670000
0.828028	-0.480453	0.270455	-0.004707	0.005334	0.000314	-0.875732	0.475830	0.009521	279	16_15_05_2750000
0.828028	-0.480239	0.270455	-0.001255	-0.005334	-0.016944	-0.875854	0.475708	0.009521	280	16_15_05_2830000
0.828028	-0.480239	0.270455	0.004393	-0.005962	-0.010041	-0.875854	0.475586	0.009644	281	16_15_05_2910000
0.828028	-0.480239	0.270455	-0.006589	-0.005020	-0.005962	-0.875854	0.475586	0.009644	282	16_15_05_2990000
0.828028	-0.480239	0.270241	-0.009099	-0.012865	-0.000941	-0.875854	0.475464	0.009766	283	16_15_05_3070000
0.828028	-0.480239	0.270241	-0.000314	-0.008472	0.007217	-0.875854	0.475464	0.009766	284	16_15_05_3150000
0.828028	-0.480239	0.270241	0.008158	0.000000	0.000941	-0.875854	0.475586	0.009766	285	16_15_05_3230000
0.828028	-0.480239	0.270241	-0.002196	0.006275	-0.001883	-0.875854	0.475464	0.009766	286	16_15_05_3310000
0.828028	-0.480239	0.270241	0.007531	0.002824	-0.001883	-0.875977	0.475464	0.009766	287	16_15_05_3390000
0.828028	-0.480239	0.270241	-0.006903	-0.000314	0.000941	-0.875977	0.475464	0.009766	288	16_15_05_3470000
0.828028	-0.480239	0.270241	-0.009413	0.001255	-0.007531	-0.875977	0.475464	0.009766	289	16_15_05_3550000
0.828028	-0.480239	0.270241	0.007217	-0.000941	-0.003765	-0.875977	0.475342	0.009766	290	16_15_05_3630000
0.828028	-0.480026	0.270241	0.009727	0.002196	-0.003765	-0.875977	0.475342	0.009644	291	16_15_05_3710000
0.828028	-0.480026	0.270241	0.000941	-0.006903	-0.005962	-0.875977	0.475342	0.009644	292	16_15_05_3790000
0.828028	-0.480026	0.270241	0.002510	0.000941	0.002196	-0.875977	0.475220	0.009644	293	16_15_05_3870000
0.828028	-0.480026	0.270241	0.010041	-0.000628	0.011296	-0.875977	0.475342	0.009644	294	16_15_05_3950000
0.828028	-0.480239	0.270241	0.011923	-0.013806	0.007217	-0.875977	0.475342	0.009644	295	16_15_05_4030000
0.828028	-0.480239	0.270241	0.016003	-0.010355	0.005020	-0.875977	0.475342	0.009644	296	16_15_05_4110000
0.828028	-0.480239	0.270241	0.006589	-0.005334	0.005020	-0.875977	0.475342	0.009644	297	16_15_05_4190000
0.828028	-0.480239	0.270241	-0.007844	0.011923	-0.004079	-0.875977	0.475342	0.009644	298	16_15_05_4270000
0.828028	-0.480239	0.270455	-0.007844	0.010355	0.001255	-0.875977	0.475342	0.009644	299	16_15_05_4350000
0.828028	-0.480239	0.270455	-0.003138	0.001883	-0.001569	-0.875977	0.475342	0.009644	300	16_15_05_4430000
0.828028	-0.480239	0.270455	0.011610	-0.003138	-0.003138	-0.875977	0.475342	0.009644	301	16_15_05_4510000
0.828028	-0.480239	0.270455	-0.006589	-0.007844	0.000314	-0.875977	0.475342	0.009644	302	16_15_05_4590000
0.828028	-0.480239	0.270241	-0.002510	-0.013806	0.006275	-0.875977	0.475342	0.009644	303	16_15_05_4670000
0.828028	-0.480239	0.270241	0.000000	0.009727	0.006275	-0.875977	0.475342	0.009766	304	16_15_05_4750000
0.828028	-0.480239	0.270241	0.008472	-0.000314	0.002824	-0.875977	0.475342	0.009644	305	16_15_05_4830000
0.828028	-0.480239	0.270241	0.004393	-0.005648	-0.000314	-0.875977	0.475342	0.009644	306	16_15_05_4910000
0.828028	-0.480239	0.270241	-0.006589	-0.007531	0.003138	-0.875977	0.475342	0.009644	307	16_15_05_4990000
0.828028	-0.480239	0.270241	0.002510	-0.011923	0.004393	-0.875977	0.475342	0.009766	308	16_15_05_5070000
0.828028	-0.480239	0.270241	-0.006903	-0.004393	0.001255	-0.875977	0.475342	0.009766	309	16_15_05_5150000
0.828028	-0.480239	0.270028	0.003765	-0.007531	-0.016003	-0.875977	0.475342	0.009888	310	16_15_05_5230000
0.828028	-0.480239	0.270241	0.003765	0.016944	0.002824	-0.876099	0.475220	0.009766	311	16_15_05_5310000
0.828028	-0.480239	0.270241	-0.002510	-0.006275	0.004707	-0.875977	0.475220	0.009766	312	16_15_05_5390000
0.828028	-0.480239	0.270241	0.003765	0.006275	0.008786	-0.875977	0.475220	0.009766	313	16_15_05_5470000
0.828028	-0.480453	0.270241	0.002196	0.021337	0.015689	-0.875977	0.475342	0.009644	314	16_15_05_5550000
0.827815	-0.480453	0.270455	-0.003452	0.034201	0.005020	-0.875977	0.475342	0.009521	315	16_15_05_5630000
0.827815	-0.480453	0.270669	-0.012237	0.010041	0.009099	-0.875977	0.475464	0.009277	316	16_15_05_5710000
0.827815	-0.480667	0.270669	-0.004393	-0.002510	0.004707	-0.875977	0.475464	0.009277	317	16_15_05_5790000
0.827815	-0.480667	0.270669	0.001883	-0.003452	-0.001569	-0.875977	0.475464	0.009399	318	16_15_05_5870000
0.827815	-0.480453	0.270669	0.009727	0.014434	-0.007531	-0.875977	0.475464	0.009277	319	16_15_05_5950000
0.827815	-0.480453	0.270669	0.019768	-0.012865	-0.002196	-0.875977	0.475342	0.009277	320	16_15_05_6030000
0.827815	-0.480453	0.270669	-0.007844	-0.006903	-0.000941	-0.875977	0.475342	0.009277	321	16_15_05_6110000
0.827815	-0.480453	0.270669	-0.003138	-0.002510	-0.011923	-0.875977	0.475220	0.009277	322	16_15_05_6190000
0.827815	-0.480453	0.270669	0.000314	-0.002824	0.002824	-0.875977	0.475220	0.009277	323	16_15_05_6270000
0.827815	-0.480453	0.270669	0.005334	0.000000	-0.000941	-0.875977	0.475220	0.009277	324	16_15_05_6350000
0.827815	-0.480453	0.270669	-0.000628	0.004707	-0.008786	-0.876099	0.475220	0.009277	325	16_15_05_6430000
0.827815	-0.480239	0.270669	-0.011296	-0.005334	-0.007531	-0.876099	0.475098	0.009277	326	16_15_05_6510000
0.827815	-0.480239	0.270455	-0.002510	-0.011923	-0.007844	-0.876099	0.474976	0.009399	327	16_15_05_6590000
0.827815	-0.480239	0.270455	0.003452	-0.003138	0.009099	-0.876099	0.474976	0.009399	328	16_15_05_6670000
0.827815	-0.480453	0.270455	-0.009727	-0.003452	0.001255	-0.876099	0.475098	0.009521	329	16_15_05_6750000
0.827815	-0.480453	0.270455	-0.012551	-0.012865	0.007217	-0.876099	0.475098	0.009521	330	16_15_05_6830000
0.827815	-0.480453	0.270241	0.001569	-0.002196	0.013179	-0.876099	0.475098	0.009644	331	16_15_05_6910000
0.827815	-0.480667	0.270455	0.009727	0.003765	0.015375	-0.875977	0.475220	0.009644	332	16_15_05_6990000
0.827815	-0.480667	0.270455	0.010355	-0.008472	0.012865	-0.875977	0.475220	0.009521	333	16_15_05_7070000
0.827815	-0.480667	0.270455	0.013806	-0.003765	-0.006275	-0.875977	0.475220	0.009521	334	16_15_05_7150000
0.827815	-0.480667	0.270455	0.003765	-0.000314	-0.007531	-0.875977	0.475220	0.009521	335	16_15_05_7230000
0.827815	-0.480667	0.270455	0.010041	0.008786	0.008472	-0.875977	0.475220	0.009521	336	16_15_05_7310000
0.827815	-0.480667	0.270455	-0.000314	0.002196	0.004393	-0.875977	0.475220	0.009399	337	16_15_05_7390000
0.827815	-0.480667	0.270455	0.005020	-0.004707	0.010668	-0.875977	0.475220	0.009399	338	16_15_05_7470000
0.827601	-0.480667	0.270455	0.002510	0.009099	-0.001255	-0.875977	0.475342	0.009399	339	16_15_05_7550000
0.827601	-0.480667	0.270669	0.002824	0.003452	-0.008786	-0.875977	0.475220	0.009277	340	16_15_05_7630000
0.827815	-0.480667	0.270669	0.002824	-0.001883	-0.007844	-0.875977	0.475220	0.009277	341	16_15_05_7710000
0.827815	-0.480453	0.270669	0.006589	-0.008786	-0.003765	-0.876099	0.475098	0.009277	342	16_15_05_7790000
0.827815	-0.480453	0.270669	0.007531	-0.006589	-0.023219	-0.876099	0.474976	0.009277	343	16_15_05_7870000
0.827815	-0.480239	0.270669	0.002196	-0.008472	-0.008472	-0.876221	0.474854	0.009399	344	16_15_05_7950000
0.828028	-0.480239	0.270455	-0.001255	-0.010668	0.000628	-0.876221	0.474854	0.009399	345	16_15_05_8030000
0.828028	-0.480239	0.270455	-0.003138	-0.011296	0.005334	-0.876221	0.474854	0.009521	346	16_15_05_8110000
0.828028	-0.480453	0.270455	-0.000628	0.002196	0.000628	-0.876221	0.474854	0.009521	347	16_15_05_8190000
0.828028	-0.480453	0.270455	-0.002510	-0.006903	-0.002824	-0.876221	0.474854	0.009521	348	16_15_05_8270000
0.828028	-0.480239	0.270455	0.008472	-0.008786	-0.007844	-0.876221	0.474854	0.009644	349	16_15_05_8350000
0.828028	-0.480239	0.270241	0.009413	-0.008472	-0.003138	-0.876221	0.474731	0.009644	350	16_15_05_8430000
0.828028	-0.480239	0.270241	0.005648	-0.002510	-0.002824	-0.876343	0.474731	0.009644	351	16_15_05_8510000
0.828028	-0.480239	0.270455	0.008158	-0.002510	-0.004393	-0.876343	0.474731	0.009644	352	16_15_05_8590000
0.828028	-0.480239	0.270241	0.002196	-0.008786	-0.003452	-0.876343	0.474609	0.009644	353	16_15_05_8670000
0.828028	-0.480239	0.270241	0.004393	0.004079	-0.005334	-0.876343	0.474609	0.009644	354	16_15_05_8750000
0.828028	-0.480026	0.270455	-0.001569	-0.000628	0.000628	-0.876343	0.474609	0.009644	355	16_15_05_8830000
0.828028	-0.480239	0.270241	-0.003138	-0.007531	0.005020	-0.876343	0.474609	0.009644	356	16_15_05_8910000
0.828028	-0.480239	0.270241	0.001883	0.009413	-0.004707	-0.876343	0.474609	0.009644	357	16_15_05_8990000
0.828028	-0.480239	0.270455	0.004707	-0.005334	0.004707	-0.876343	0.474487	0.009644	358	16_15_05_9070000
0.828028	-0.480239	0.270241	-0.003138	-0.005962	0.005962	-0.876343	0.474609	0.009644	359	16_15_05_9150000
0.828028	-0.480239	0.270241	-0.008158	-0.012865	0.005020	-0.876343	0.474609	0.009766	360	16_15_05_9230000
0.828028	-0.480239	0.270241	0.006275	-0.000941	-0.003138	-0.876343	0.474609	0.009766	361	16_15_05_9310000
0.828028	-0.480239	0.270241	-0.003765	-0.000941	0.004393	-0.876343	0.474609	0.009766	362	16_15_05_9390000
0.828028	-0.480239	0.270241	0.000628	0.007531	0.002196	-0.876343	0.474609	0.009766	363	16_15_05_9470000
0.828028	-0.480239	0.270241	-0.012237	-0.005334	0.003452	-0.876343	0.474609	0.009766	364	16_15_05_9550000
0.828028	-0.480239	0.270241	-0.005962	-0.008786	0.001255	-0.876343	0.474609	0.009766	365	16_15_05_9630000
0.828028	-0.480239	0.270028	-0.001569	0.004707	-0.007531	-0.876343	0.474487	0.009888	366	16_15_05_9710000
0.828028	-0.480239	0.270241	0.001569	0.015061	-0.008158	-0.876465	0.474487	0.009766	367	16_15_05_9790000
0.828028	-0.480239	0.270241	0.004079	0.001883	0.010668	-0.876465	0.474487	0.009644	368	16_15_05_9870000
0.828028	-0.480239	0.270241	0.007844	-0.004079	0.003138	-0.876343	0.474487	0.009644	369	16_15_05_9950000
0.828028	-0.480239	0.270241	-0.000628	0.006903	0.010355	-0.876343	0.474487	0.009644	370	16_15_06_0030000
0.828028	-0.480453	0.270241	0.008158	0.000314	0.006589	-0.876343	0.474609	0.009644	371	16_15_06_0110000
0.828028	-0.480453	0.270455	0.000628	0.005020	0.000628	-0.876343	0.474609	0.009521	372	16_15_06_0190000
0.828028	-0.480453	0.270455	-0.006903	0.005962	0.007217	-0.876343	0.474609	0.009521	373	16_15_06_0270000
0.827815	-0.480453	0.270455	-0.006589	0.000000	0.009727	-0.876343	0.474609	0.009521	374	16_15_06_0350000
0.827815	-0.480667	0.270455	-0.006903	0.008158	0.014120	-0.876221	0.474731	0.009521	375	16_15_06_0430000
0.827815	-0.480667	0.270455	0.002824	-0.002824	0.005962	-0.876221	0.474731	0.009521	376	16_15_06_0510000
0.827815	-0.480667	0.270455	-0.000314	-0.005020	0.005020	-0.876221	0.474731	0.009521	377	16_15_06_0590000
0.827815	-0.480667	0.270455	0.007217	-0.006589	0.012237	-0.876221	0.474854	0.009521	378	16_15_06_0670000
0.827815	-0.480880	0.270455	0.000000	-0.004393	-0.004707	-0.876221	0.474854	0.009521	379	16_15_06_0750000
0.827815	-0.480880	0.270455	-0.000941	0.005962	0.008472	-0.876221	0.474854	0.009521	380	16_15_06_0830000
0.827815	-0.480880	0.270241	-0.002196	-0.006275	-0.000314	-0.876221	0.474854	0.009521	381	16_15_06_0910000
0.827601	-0.480880	0.270241	0.000314	-0.000628	0.007531	-0.876221	0.474854	0.009521	382	16_15_06_0990000
0.827601	-0.480880	0.270241	0.001569	0.002510	-0.005334	-0.876221	0.474854	0.009521	383	16_15_06_1070000
0.827601	-0.480880	0.270241	0.004393	-0.006589	0.002824	-0.876221	0.474854	0.009521	384	16_15_06_1150000
0.827601	-0.480880	0.270455	0.009727	0.004079	0.005334	-0.876221	0.474854	0.009521	385	16_15_06_1230000
0.827601	-0.480880	0.270455	0.018199	0.007844	-0.000314	-0.876221	0.474854	0.009399	386	16_15_06_1310000
0.827601	-0.480880	0.270455	0.004393	0.013179	0.008158	-0.876221	0.474854	0.009277	387	16_15_06_1390000
0.827601	-0.480880	0.270669	0.012237	-0.002824	0.000628	-0.876221	0.474854	0.009277	388	16_15_06_1470000
0.827601	-0.480880	0.270669	-0.000314	-0.007531	0.006275	-0.876221	0.474854	0.009277	389	16_15_06_1550000
0.827601	-0.480880	0.270669	-0.008158	-0.001255	0.003138	-0.876221	0.474854	0.009277	390	16_15_06_1630000
0.827601	-0.480880	0.270669	0.003452	0.008158	0.000941	-0.876221	0.474854	0.009277	391	16_15_06_1710000
0.827601	-0.480880	0.270669	0.014434	-0.002824	0.011923	-0.876099	0.474976	0.009277	392	16_15_06_1790000
0.827601	-0.480880	0.270669	0.008158	-0.000314	-0.001255	-0.876099	0.474976	0.009155	393	16_15_06_1870000
0.827601	-0.480880	0.270669	-0.004079	0.006275	-0.000941	-0.876099	0.474976	0.009155	394	16_15_06_1950000
0.827601	-0.480880	0.270669	0.000000	-0.002196	0.002510	-0.876099	0.474976	0.009155	395	16_15_06_2030000
0.827387	-0.481094	0.270669	-0.005020	0.005962	0.011923	-0.876099	0.474976	0.009155	396	16_15_06_2110000
0.827387	-0.481094	0.270669	-0.012551	0.006589	0.002824	-0.876099	0.474976	0.009155	397	16_15_06_2190000
0.827387	-0.481094	0.270669	0.000314	-0.007217	-0.005648	-0.876099	0.474976	0.009155	398	16_15_06_2270000
0.827387	-0.481094	0.270669	-0.006903	-0.004707	0.002824	-0.876099	0.474976	0.009155	399	16_15_06_2350000
0.827387	-0.481094	0.270669	0.000000	-0.000314	-0.002196	-0.876099	0.474976	0.009277	400	16_15_06_2430000
0.827387	-0.481094	0.270669	0.011296	0.003765	-0.005648	-0.876221	0.474854	0.009155	401	16_15_06_2510000
0.827387	-0.481094	0.270669	0.015375	0.008472	-0.011923	-0.876221	0.474854	0.009033	402	16_15_06_2590000
0.827601	-0.480880	0.270882	0.002824	0.005648	-0.009727	-0.876221	0.474731	0.009033	403	16_15_06_2670000
0.827601	-0.480880	0.270882	0.005962	-0.007217	-0.003452	-0.876343	0.474731	0.009033	404	16_15_06_2750000
0.827601	-0.480880	0.270882	0.008786	-0.012865	0.015689	-0.876221	0.474731	0.009033	405	16_15_06_2830000
0.827601	-0.480880	0.270882	0.008158	-0.007217	-0.007531	-0.876221	0.474731	0.009033	406	16_15_06_2910000
0.827601	-0.480880	0.270882	0.007844	-0.003765	0.007531	-0.876221	0.474731	0.009033	407	16_15_06_2990000
0.827601	-0.480880	0.270882	0.004393	-0.001569	0.003138	-0.876221	0.474731	0.009033	408	16_15_06_3070000
0.827601	-0.480880	0.270882	0.003452	-0.002196	-0.009413	-0.876221	0.474731	0.009033	409	16_15_06_3150000
0.827601	-0.480880	0.270669	-0.006589	-0.016316	-0.006903	-0.876343	0.474609	0.009155	410	16_15_06_3230000
0.827601	-0.480880	0.270669	0.005648	-0.011296	-0.005334	-0.876343	0.474609	0.009155	411	16_15_06_3310000
0.827601	-0.480667	0.270669	0.007531	-0.002196	0.000941	-0.876343	0.474487	0.009277	412	16_15_06_3390000
0.827601	-0.480667	0.270669	0.005334	-0.007844	-0.004393	-0.876343	0.474487	0.009277	413	16_15_06_3470000
0.827815	-0.480667	0.270669	-0.002824	0.003765	-0.001569	-0.876343	0.474487	0.009277	414	16_15_06_3550000
0.827601	-0.480667	0.270669	-0.003765	0.009727	0.005020	-0.876343	0.474487	0.009155	415	16_15_06_3630000
0.827601	-0.480880	0.270669	-0.006275	-0.010668	0.005334	-0.876343	0.474487	0.009155	416	16_15_06_3710000
0.827601	-0.480880	0.270455	-0.010355	-0.012551	0.007531	-0.876343	0.474487	0.009277	417	16_15_06_3790000
0.827601	-0.480880	0.270455	-0.017258	0.000000	-0.000314	-0.876343	0.474487	0.009399	418	16_15_06_3870000
0.827601	-0.480880	0.270455	-0.013179	-0.003452	-0.013806	-0.876343	0.474487	0.009521	419	16_15_06_3950000
0.827815	-0.480880	0.270455	0.004707	-0.000314	-0.011923	-0.876465	0.474365	0.009521	420	16_15_06_4030000
0.827815	-0.480667	0.270455	0.010355	-0.006275	0.004393	-0.876465	0.474365	0.009521	421	16_15_06_4110000
0.827815	-0.480667	0.270241	0.005648	-0.013179	0.003138	-0.876465	0.474365	0.009521	422	16_15_06_4190000
0.827815	-0.480880	0.270241	0.010355	-0.019454	0.007844	-0.876465	0.474365	0.009644	423	16_15_06_4270000
0.827815	-0.480880	0.270241	0.007844	-0.004393	0.007217	-0.876465	0.474365	0.009644	424	16_15_06_4350000
0.827815	-0.480880	0.270241	0.010355	0.005648	0.002196	-0.876343	0.474365	0.009644	425	16_15_06_4430000
0.827815	-0.480880	0.270241	-0.001569	0.010041	-0.000941	-0.876343	0.474365	0.009521	426	16_15_06_4510000
0.827815	-0.480880	0.270455	0.007531	-0.000628	0.003452	-0.876465	0.474365	0.009521	427	16_15_06_4590000
0.827815	-0.480880	0.270455	0.007531	-0.003765	-0.009413	-0.876465	0.474365	0.009399	428	16_15_06_4670000
0.827815	-0.480667	0.270455	0.015375	-0.013492	-0.004707	-0.876465	0.474365	0.009399	429	16_15_06_4750000
0.827815	-0.480667	0.270455	0.006589	0.000314	0.008158	-0.876465	0.474365	0.009399	430	16_15_06_4830000
0.827815	-0.480667	0.270455	0.005020	-0.005334	0.003765	-0.876465	0.474365	0.009399	431	16_15_06_4910000
0.827815	-0.480880	0.270455	-0.003765	0.004079	0.007531	-0.876465	0.474365	0.009399	432	16_15_06_4990000
0.827815	-0.480880	0.270455	0.005020	-0.004393	0.000941	-0.876465	0.474365	0.009399	433	16_15_06_5070000
0.827815	-0.480880	0.270455	0.009099	0.003452	-0.005020	-0.876465	0.474365	0.009399	434	16_15_06_5150000
0.827815	-0.480667	0.270455	0.010041	-0.010982	-0.004393	-0.876465	0.474365	0.009399	435	16_15_06_5230000
0.827815	-0.480667	0.270455	-0.000314	-0.006903	0.011610	-0.876465	0.474365	0.009399	436	16_15_06_5310000
0.827815	-0.480667	0.270455	0.013492	0.001569	-0.001569	-0.876465	0.474365	0.009399	437	16_15_06_5390000
0.827815	-0.480667	0.270455	0.004079	0.002824	0.005648	-0.876465	0.474365	0.009399	438	16_15_06_5470000
0.827601	-0.480880	0.270455	-0.005334	-0.011296	0.003138	-0.876465	0.474365	0.009399	439	16_15_06_5550000
0.827815	-0.480880	0.270455	0.000941	0.000000	-0.009099	-0.876465	0.474365	0.009399	440	16_15_06_5630000
0.827815	-0.480667	0.270455	-0.009413	-0.005334	-0.008472	-0.876465	0.474243	0.009521	441	16_15_06_5710000
0.827815	-0.480667	0.270241	0.005962	-0.014747	-0.002196	-0.876465	0.474243	0.009521	442	16_15_06_5790000
0.827815	-0.480667	0.270241	-0.002510	-0.016630	-0.003765	-0.876587	0.474121	0.009644	443	16_15_06_5870000
0.827815	-0.480667	0.270241	0.001255	-0.008472	-0.005648	-0.876587	0.474121	0.009766	444	16_15_06_5950000
0.827815	-0.480667	0.270028	-0.005648	-0.005962	0.012865	-0.876587	0.474121	0.009766	445	16_15_06_6030000
0.827815	-0.480667	0.270028	-0.003765	-0.006275	0.002824	-0.876587	0.474121	0.009766	446	16_15_06_6110000
0.827815	-0.480880	0.270028	0.000628	-0.019140	0.007844	-0.876465	0.474243	0.009888	447	16_15_06_6190000
0.827815	-0.480880	0.269814	0.004079	-0.008472	-0.001883	-0.876465	0.474243	0.010010	448	16_15_06_6270000
0.827815	-0.480880	0.269814	-0.001883	-0.004707	-0.002196	-0.876587	0.474121	0.010010	449	16_15_06_6350000
0.827815	-0.480880	0.269814	0.005020	0.004707	0.004393	-0.876587	0.474121	0.010010	450	16_15_06_6430000
0.827815	-0.480880	0.269814	0.003138	-0.001255	0.003765	-0.876587	0.474243	0.010010	451	16_15_06_6510000
0.827815	-0.480880	0.269814	0.010355	-0.004707	0.009727	-0.876465	0.474243	0.010010	452	16_15_06_6590000
0.827815	-0.480880	0.269814	0.000000	-0.006275	-0.003452	-0.876465	0.474243	0.010010	453	16_15_06_6670000
0.827815	-0.480880	0.269814	0.001883	0.005648	-0.005962	-0.876587	0.474243	0.010010	454	16_15_06_6750000
0.827815	-0.480880	0.270028	0.002824	0.009413	-0.001569	-0.876587	0.474121	0.009888	455	16_15_06_6830000
0.827815	-0.480880	0.270028	0.009413	0.001883	0.008472	-0.876587	0.474121	0.009888	456	16_15_06_6910000
0.827815	-0.480880	0.270028	0.001255	0.009099	0.006903	-0.876587	0.474243	0.009766	457	16_15_06_6990000
0.827815	-0.480880	0.270028	-0.004079	-0.003765	0.013806	-0.876465	0.474243	0.009766	458	16_15_06_7070000
0.827601	-0.481094	0.270028	0.002196	0.005648	0.011923	-0.876465	0.474365	0.009766	459	16_15_06_7150000
0.827601	-0.481094	0.270028	-0.012865	0.001255	-0.012865	-0.876465	0.474365	0.009766	460	16_15_06_7230000
0.827601	-0.481094	0.270028	-0.009413	0.001883	0.004707	-0.876465	0.474243	0.009766	461	16_15_06_7310000
0.827601	-0.481094	0.270028	-0.015375	-0.001569	0.007531	-0.876465	0.474365	0.009888	462	16_15_06_7390000
0.827601	-0.481094	0.270028	-0.007217	0.003765	0.005020	-0.876465	0.474365	0.009888	463	16_15_06_7470000
0.827601	-0.481094	0.270028	-0.010355	-0.000314	0.000000	-0.876465	0.474365	0.009888	464	16_15_06_7550000
0.827601	-0.481094	0.270028	0.000000	0.001883	-0.001255	-0.876465	0.474365	0.009888	465	16_15_06_7630000
0.827601	-0.481094	0.270028	0.003765	0.005020	0.002824	-0.876465	0.474365	0.009888	466	16_15_06_7710000
0.827601	-0.481307	0.270028	0.011923	-0.004393	0.009727	-0.876465	0.474365	0.009766	467	16_15_06_7790000
0.827601	-0.481307	0.270028	0.006589	-0.002824	0.002824	-0.876465	0.474365	0.009766	468	16_15_06_7870000
0.827601	-0.481307	0.270028	-0.001255	-0.005334	-0.005648	-0.876465	0.474365	0.009766	469	16_15_06_7950000
0.827601	-0.481094	0.270028	0.002510	-0.005020	-0.006275	-0.876465	0.474243	0.009888	470	16_15_06_8030000
0.827601	-0.481094	0.270028	0.006275	-0.005648	0.000628	-0.876465	0.474243	0.009888	471	16_15_06_8110000
0.827601	-0.481094	0.270028	0.001569	-0.014434	-0.001255	-0.876465	0.474243	0.009888	472	16_15_06_8190000
0.827601	-0.481094	0.270028	0.006903	-0.000628	0.008472	-0.876465	0.474243	0.009888	473	16_15_06_8270000
0.827601	-0.481307	0.270028	-0.003138	0.004079	0.006589	-0.876465	0.474243	0.009888	474	16_15_06_8350000
0.827601	-0.481307	0.270028	0.005020	0.007217	0.012237	-0.876465	0.474365	0.009888	475	16_15_06_8430000
0.827601	-0.481307	0.270028	-0.002510	0.000000	-0.002196	-0.876465	0.474365	0.009766	476	16_15_06_8510000
0.827601	-0.481307	0.270028	0.003138	-0.005020	-0.008158	-0.876465	0.474365	0.009766	477	16_15_06_8590000
0.827601	-0.481094	0.270028	0.004707	-0.010355	-0.018513	-0.876465	0.474243	0.009888	478	16_15_06_8670000
0.827601	-0.481094	0.270028	0.004707	-0.009413	-0.010982	-0.876587	0.474121	0.009888	479	16_15_06_8750000
0.827815	-0.481094	0.269814	0.000314	-0.007217	-0.005020	-0.876587	0.473999	0.010010	480	16_15_06_8830000
0.827815	-0.481094	0.269814	0.004707	-0.015375	0.004079	-0.876587	0.473999	0.010010	481	16_15_06_8910000
0.827815	-0.481094	0.269814	0.001883	-0.008472	-0.002510	-0.876587	0.473999	0.010132	482	16_15_06_8990000
0.827815	-0.481094	0.269814	-0.003452	-0.006275	0.011923	-0.876587	0.473999	0.010132	483	16_15_06_9070000
0.827815	-0.481094	0.269601	0.002510	-0.010041	0.008158	-0.876587	0.474121	0.010132	484	16_15_06_9150000
0.827815	-0.481094	0.269601	0.001255	0.010982	0.006589	-0.876587	0.474121	0.010132	485	16_15_06_9230000
0.827601	-0.481094	0.269814	0.002510	0.002196	0.004079	-0.876587	0.474121	0.010132	486	16_15_06_9310000
0.827601	-0.481307	0.269814	-0.006275	-0.000628	0.014120	-0.876587	0.474243	0.010132	487	16_15_06_9390000
0.827601	-0.481307	0.269814	0.000314	0.007844	0.011923	-0.876465	0.474243	0.010132	488	16_15_06_9470000
0.827601	-0.481307	0.269814	0.009099	-0.001255	0.010668	-0.876465	0.474365	0.010010	489	16_15_06_9550000
0.827387	-0.481521	0.269814	0.007531	-0.012237	0.017258	-0.876465	0.474365	0.010010	490	16_15_06_9630000
0.827387	-0.481521	0.269814	-0.001569	-0.008786	0.010668	-0.876343	0.474487	0.010132	491	16_15_06_9710000
0.827387	-0.481735	0.269601	-0.009727	-0.009727	0.017258	-0.876343	0.474609	0.010132	492	16_15_06_9790000
0.827387	-0.481735	0.269601	0.001255	-0.010041	0.002196	-0.876343	0.474609	0.010254	493	16_15_06_9870000
0.827387	-0.481735	0.269601	0.002510	-0.009413	-0.005648	-0.876343	0.474609	0.010376	494	16_15_06_9950000
0.827387	-0.481735	0.269601	0.011296	-0.002824	-0.008158	-0.876343	0.474609	0.010376	495	16_15_07_0030000
0.827601	-0.481521	0.269601	-0.003765	-0.003452	-0.002510	-0.876343	0.474487	0.010376	496	16_15_07_0110000
0.827601	-0.481735	0.269601	0.009099	-0.010982	0.006589	-0.876343	0.474487	0.010376	497	16_15_07_0190000
0.827387	-0.481735	0.269601	0.007844	0.001883	0.011610	-0.876343	0.474609	0.010376	498	16_15_07_0270000
0.827387	-0.481735	0.269601	0.000314	0.007844	-0.005962	-0.876343	0.474609	0.010254	499	16_15_07_0350000
0.827387	-0.481735	0.269601	-0.000314	-0.009727	-0.007531	-0.876343	0.474487	0.010254	500	16_15_07_0430000
0.827601	-0.481735	0.269601	0.004079	-0.008786	0.005334	-0.876343	0.474487	0.010376	501	16_15_07_0510000
0.827601	-0.481735	0.269601	0.003765	-0.002510	0.000941	-0.876343	0.474487	0.010376	502	16_15_07_0590000
0.827387	-0.481735	0.269601	0.002196	0.001255	0.014120	-0.876343	0.474487	0.010376	503	16_15_07_0670000
0.827387	-0.481735	0.269601	-0.003138	0.018513	0.005334	-0.876343	0.474609	0.010254	504	16_15_07_0750000
0.827387	-0.481735	0.269601	-0.002196	0.012865	-0.008158	-0.876343	0.474487	0.010254	505	16_15_07_0830000
0.827387	-0.481735	0.269814	-0.006589	0.012237	-0.004707	-0.876343	0.474487	0.010132	506	16_15_07_0910000
0.827387	-0.481735	0.269814	0.002510	-0.000628	-0.007217	-0.876343	0.474487	0.010132	507	16_15_07_0990000
0.827387	-0.481735	0.269814	0.000000	-0.011923	-0.008472	-0.876465	0.474365	0.010132	508	16_15_07_1070000
0.827387	-0.481521	0.269814	0.007531	0.004707	-0.005020	-0.876465	0.474243	0.010132	509	16_15_07_1150000
0.827387	-0.481521	0.269814	0.006275	0.011296	0.000000	-0.876465	0.474243	0.010010	510	16_15_07_1230000
0.827387	-0.481521	0.269814	0.000941	0.002824	-0.010041	-0.876465	0.474243	0.010010	511	16_15_07_1310000
0.827601	-0.481521	0.269814	-0.006275	0.000941	-0.008786	-0.876587	0.474121	0.010010	512	16_15_07_1390000
0.827601	-0.481521	0.269814	0.000000	0.003765	0.007217	-0.876587	0.474121	0.010010	513	16_15_07_1470000
0.827387	-0.481521	0.270028	0.008472	0.004079	0.002824	-0.876587	0.474121	0.009888	514	16_15_07_1550000
0.827387	-0.481521	0.270028	-0.008786	0.010355	-0.001569	-0.876587	0.474121	0.009888	515	16_15_07_1630000
0.827387	-0.481521	0.270028	0.003452	0.003452	-0.005648	-0.876587	0.474121	0.009766	516	16_15_07_1710000
0.827387	-0.481521	0.270028	0.004707	0.000628	0.003138	-0.876587	0.474121	0.009766	517	16_15_07_1790000
0.827387	-0.481521	0.270241	0.021650	0.006589	0.019454	-0.876587	0.474121	0.009644	518	16_15_07_1870000
0.827387	-0.481521	0.270241	0.011296	0.008786	0.006903	-0.876465	0.474243	0.009521	519	16_15_07_1950000
0.827174	-0.481521	0.270241	0.004707	0.009413	0.012865	-0.876465	0.474243	0.009521	520	16_15_07_2030000
0.827174	-0.481735	0.270455	-0.010982	-0.000314	-0.007844	-0.876465	0.474243	0.009399	521	16_15_07_2110000
0.827174	-0.481735	0.270241	-0.007217	-0.010355	0.000000	-0.876465	0.474243	0.009521	522	16_15_07_2190000
0.827174	-0.481735	0.270241	0.000314	-0.005020	0.007531	-0.876465	0.474243	0.009521	523	16_15_07_2270000
0.827174	-0.481735	0.270241	-0.000314	-0.003452	0.006903	-0.876465	0.474243	0.009644	524	16_15_07_2350000
0.827174	-0.481735	0.270241	0.002824	-0.012237	0.012865	-0.876465	0.474365	0.009644	525	16_15_07_2430000
0.827174	-0.481735	0.270028	0.001255	-0.007844	0.003765	-0.876465	0.474365	0.009644	526	16_15_07_2510000
0.827174	-0.481948	0.270028	0.017885	-0.007217	0.009727	-0.876343	0.474365	0.009644	527	16_15_07_2590000
0.827174	-0.481948	0.270241	0.011923	0.002510	0.003452	-0.876343	0.474487	0.009644	528	16_15_07_2670000
0.827174	-0.481948	0.270241	0.013492	-0.005020	0.000000	-0.876343	0.474487	0.009644	529	16_15_07_2750000
0.827174	-0.481948	0.270241	0.008786	-0.003765	0.007844	-0.876343	0.474487	0.009644	530	16_15_07_2830000
0.827174	-0.481948	0.270241	0.015689	0.004079	0.003452	-0.876343	0.474487	0.009521	531	16_15_07_2910000
0.827174	-0.481948	0.270241	0.005020	-0.004707	0.013492	-0.876343	0.474487	0.009521	532	16_15_07_2990000
0.827174	-0.481948	0.270241	0.001569	-0.007217	0.010355	-0.876221	0.474609	0.009521	533	16_15_07_3070000
0.827174	-0.481948	0.270241	0.015375	-0.014120	-0.010668	-0.876343	0.474609	0.009521	534	16_15_07_3150000
0.827174	-0.481948	0.270241	0.010668	-0.006275	-0.001569	-0.876343	0.474487	0.009644	535	16_15_07_3230000
0.827174	-0.481948	0.270241	0.007217	0.003452	-0.005648	-0.876343	0.474487	0.009521	536	16_15_07_3310000
0.827174	-0.481735	0.270241	0.003765	-0.000941	-0.016630	-0.876343	0.474365	0.009521	537	16_15_07_3390000
0.827174	-0.481735	0.270241	0.003138	-0.007217	-0.013492	-0.876465	0.474243	0.009521	538	16_15_07_3470000
0.827387	-0.481521	0.270241	-0.005020	-0.013179	-0.007531	-0.876465	0.474243	0.009644	539	16_15_07_3550000
0.827387	-0.481735	0.270028	-0.007844	-0.009413	0.012865	-0.876465	0.474243	0.009766	540	16_15_07_3630000
0.827387	-0.481735	0.270028	0.004079	-0.005020	0.001883	-0.876465	0.474243	0.009766	541	16_15_07_3710000
0.827387	-0.481735	0.270028	0.001883	-0.009727	-0.016316	-0.876465	0.474121	0.009766	542	16_15_07_3790000
0.827387	-0.481521	0.270028	0.002510	-0.018199	0.004393	-0.876465	0.474121	0.009888	543	16_15_07_3870000
0.827387	-0.481521	0.269814	-0.003138	0.000314	0.000941	-0.876465	0.474121	0.009888	544	16_15_07_3950000
0.827387	-0.481735	0.269814	-0.001569	-0.003765	0.004707	-0.876465	0.474121	0.009888	545	16_15_07_4030000
0.827387	-0.481735	0.269814	0.000314	-0.017258	0.018199	-0.876465	0.474243	0.010010	546	16_15_07_4110000
0.827387	-0.481735	0.269814	0.004707	-0.009413	-0.004079	-0.876465	0.474243	0.010132	547	16_15_07_4190000
0.827387	-0.481735	0.269814	0.014747	0.003765	-0.008158	-0.876465	0.474121	0.010010	548	16_15_07_4270000
0.827387	-0.481735	0.269814	-0.001255	-0.000314	-0.000314	-0.876465	0.474121	0.010010	549	16_15_07_4350000
0.827387	-0.481735	0.269814	0.004707	0.003765	-0.004393	-0.876587	0.474121	0.010010	550	16_15_07_4430000
0.827387	-0.481521	0.269814	-0.003138	0.009099	-0.005020	-0.876587	0.473999	0.009888	551	16_15_07_4510000
0.827387	-0.481521	0.269814	-0.010668	0.000628	0.005334	-0.876587	0.473999	0.009888	552	16_15_07_4590000
0.827387	-0.481735	0.269814	-0.007217	0.001569	0.004393	-0.876587	0.473999	0.010010	553	16_15_07_4670000
0.827387	-0.481735	0.269814	-0.005648	0.010668	0.014747	-0.876465	0.474121	0.009888	554	16_15_07_4750000
0.827387	-0.481735	0.270028	-0.000941	0.014747	0.005334	-0.876465	0.474121	0.009888	555	16_15_07_4830000
0.827174	-0.481948	0.270028	0.001883	0.008158	0.006903	-0.876465	0.474243	0.009766	556	16_15_07_4910000
0.827174	-0.481948	0.270028	0.002510	0.020395	0.002196	-0.876465	0.474243	0.009644	557	16_15_07_4990000
0.827174	-0.481948	0.270241	0.004707	-0.002196	0.003138	-0.876465	0.474243	0.009521	558	16_15_07_5070000
0.827174	-0.481735	0.270241	0.011610	0.005962	-0.016630	-0.876465	0.474121	0.009521	559	16_15_07_5150000
0.827174	-0.481735	0.270241	-0.010668	0.010668	-0.002510	-0.876587	0.474121	0.009521	560	16_15_07_5230000
0.827174	-0.481735	0.270455	0.001255	0.023219	0.002196	-0.876587	0.473999	0.009399	561	16_15_07_5310000
0.827174	-0.481735	0.270455	0.000314	0.004707	-0.000628	-0.876587	0.473999	0.009277	562	16_15_07_5390000
0.827174	-0.481735	0.270455	0.002824	0.009727	-0.006589	-0.876587	0.473999	0.009155	563	16_15_07_5470000
0.827174	-0.481735	0.270669	0.000628	0.006903	-0.003138	-0.876587	0.473999	0.009155	564	16_15_07_5550000
0.827174	-0.481735	0.270669	0.017258	-0.002196	-0.006589	-0.876587	0.473877	0.009033	565	16_15_07_5630000
0.827174	-0.481521	0.270669	0.005648	-0.011610	-0.002510	-0.876587	0.473877	0.009033	566	16_15_07_5710000
0.827174	-0.481521	0.270669	0.003452	-0.020082	-0.005648	-0.876709	0.473877	0.009155	567	16_15_07_5790000
0.827174	-0.481521	0.270455	0.004707	-0.004393	0.003138	-0.876709	0.473755	0.009277	568	16_15_07_5870000
0.827174	-0.481521	0.270669	0.001883	0.010668	-0.001883	-0.876709	0.473755	0.009155	569	16_15_07_5950000
0.827174	-0.481521	0.270669	-0.000628	-0.005020	-0.002196	-0.876709	0.473755	0.009155	570	16_15_07_6030000
0.827174	-0.481521	0.270669	0.005020	0.013806	-0.004079	-0.876709	0.473755	0.009155	571	16_15_07_6110000
0.827174	-0.481521	0.270669	0.002196	-0.000628	-0.004079	-0.876709	0.473755	0.009033	572	16_15_07_6190000
0.827174	-0.481521	0.270669	0.001255	0.000314	-0.007844	-0.876709	0.473633	0.009033	573	16_15_07_6270000
0.827174	-0.481521	0.270669	0.004393	0.002824	-0.000314	-0.876831	0.473633	0.009033	574	16_15_07_6350000
0.827174	-0.481521	0.270669	0.000000	0.001569	-0.005962	-0.876831	0.473633	0.009033	575	16_15_07_6430000
0.827387	-0.481307	0.270882	-0.000314	0.002196	0.000314	-0.876831	0.473511	0.008911	576	16_15_07_6510000
0.827174	-0.481307	0.270882	0.000000	0.008158	-0.007531	-0.876831	0.473511	0.008911	577	16_15_07_6590000
0.827387	-0.481307	0.270882	0.003765	-0.006903	-0.005648	-0.876831	0.473389	0.008911	578	16_15_07_6670000
0.827174	-0.481307	0.270882	-0.003138	-0.000314	0.018199	-0.876831	0.473511	0.008911	579	16_15_07_6750000
0.827174	-0.481521	0.270882	0.007217	-0.009413	0.003765	-0.876831	0.473511	0.008911	580	16_15_07_6830000
0.827174	-0.481521	0.270669	-0.001883	-0.008472	0.007531	-0.876831	0.473511	0.009033	581	16_15_07_6910000
0.827174	-0.481521	0.270669	-0.010355	-0.015689	-0.001255	-0.876831	0.473511	0.009155	582	16_15_07_6990000
0.827174	-0.481521	0.270669	-0.001883	0.001883	0.000628	-0.876831	0.473511	0.009155	583	16_15_07_7070000
0.827174	-0.481521	0.270669	-0.012865	0.003765	0.008786	-0.876831	0.473511	0.009155	584	16_15_07_7150000
0.827174	-0.481521	0.270455	-0.008472	0.000000	-0.003765	-0.876709	0.473511	0.009155	585	16_15_07_7230000
0.827174	-0.481521	0.270455	0.011610	0.000000	-0.007844	-0.876831	0.473511	0.009155	586	16_15_07_7310000
0.827174	-0.481521	0.270669	0.001255	0.007217	0.000941	-0.876831	0.473511	0.009155	587	16_15_07_7390000
0.827174	-0.481521	0.270669	0.003138	0.009413	0.011610	-0.876831	0.473511	0.009033	588	16_15_07_7470000
0.827174	-0.481735	0.270669	-0.004079	-0.004079	0.004079	-0.876709	0.473511	0.009033	589	16_15_07_7550000
0.827174	-0.481521	0.270669	0.012865	-0.013492	-0.004079	-0.876831	0.473511	0.009033	590	16_15_07_7630000
0.827174	-0.481735	0.270669	0.014747	-0.008158	0.015689	-0.876709	0.473511	0.009155	591	16_15_07_7710000
0.827174	-0.481735	0.270669	0.008472	-0.002196	-0.000314	-0.876709	0.473633	0.009033	592	16_15_07_7790000
0.827174	-0.481521	0.270669	-0.004707	-0.007844	-0.011923	-0.876709	0.473511	0.009155	593	16_15_07_7870000
0.827174	-0.481521	0.270669	-0.007531	-0.002824	-0.001255	-0.876831	0.473511	0.009155	594	16_15_07_7950000
0.827174	-0.481521	0.270455	-0.006903	0.005334	0.000941	-0.876831	0.473511	0.009155	595	16_15_07_8030000
0.827174	-0.481521	0.270455	-0.009099	0.005962	-0.001255	-0.876831	0.473511	0.009155	596	16_15_07_8110000
0.827174	-0.481735	0.270455	-0.001255	-0.005648	0.001883	-0.876831	0.473389	0.009155	597	16_15_07_8190000
0.827174	-0.481735	0.270455	-0.003765	-0.006903	0.007217	-0.876831	0.473511	0.009277	598	16_15_07_8270000
0.827174	-0.481735	0.270455	-0.006589	0.017885	0.000628	-0.876831	0.473511	0.009155	599	16_15_07_8350000
0.827174	-0.481735	0.270669	0.003765	0.001883	-0.001883	-0.876831	0.473511	0.009155	600	16_15_07_8430000
0.827174	-0.481735	0.270455	-0.007217	-0.009099	-0.014120	-0.876831	0.473389	0.009155	601	16_15_07_8510000
0.827174	-0.481521	0.270455	-0.006903	-0.011610	-0.015061	-0.876831	0.473267	0.009277	602	16_15_07_8590000
0.827387	-0.481521	0.270455	0.010982	-0.001569	-0.006589	-0.876953	0.473145	0.009277	603	16_15_07_8670000
0.827387	-0.481521	0.270455	0.021650	0.005334	-0.000314	-0.876953	0.473145	0.009155	604	16_15_07_8750000
0.827387	-0.481521	0.270669	0.006589	0.014434	0.005020	-0.876953	0.473145	0.009033	605	16_15_07_8830000
0.827174	-0.481521	0.270669	0.010355	0.011610	0.004079	-0.876953	0.473145	0.008911	606	16_15_07_8910000
0.827174	-0.481521	0.270882	0.010982	0.001883	0.006903	-0.876953	0.473145	0.008911	607	16_15_07_8990000
0.827174	-0.481521	0.270882	-0.004393	-0.007531	0.002510	-0.876953	0.473267	0.008911	608	16_15_07_9070000
0.827174	-0.481521	0.270882	0.002196	-0.005020	0.000941	-0.876953	0.473267	0.008911	609	16_15_07_9150000
0.827174	-0.481521	0.270669	0.001883	-0.008158	-0.003138	-0.876953	0.473145	0.008911	610	16_15_07_9230000
0.827174	-0.481521	0.270669	0.003138	-0.006275	-0.004079	-0.876953	0.473145	0.009033	611	16_15_07_9310000
0.827174	-0.481521	0.270669	-0.010041	-0.006589	0.003138	-0.876953	0.473145	0.009033	612	16_15_07_9390000
0.827174	-0.481521	0.270669	-0.001255	-0.015375	0.009413	-0.876953	0.473145	0.009155	613	16_15_07_9470000
0.827174	-0.481521	0.270455	0.002824	-0.006275	0.013492	-0.876953	0.473267	0.009155	614	16_15_07_9550000
0.827174	-0.481735	0.270455	-0.006903	0.005962	0.005334	-0.876831	0.473267	0.009155	615	16_15_07_9630000
0.827174	-0.481735	0.270455	-0.003138	0.007217	0.000941	-0.876831	0.473267	0.009155	616	16_15_07_9710000
0.827174	-0.481735	0.270455	0.008786	-0.005020	-0.012865	-0.876953	0.473267	0.009155	617	16_15_07_9790000
0.827174	-0.481521	0.270669	0.010668	0.003765	0.001569	-0.876953	0.473145	0.009155	618	16_15_07_9870000
0.827174	-0.481521	0.270669	0.007531	-0.005334	0.005334	-0.876953	0.473267	0.009033	619	16_15_07_9950000
0.827174	-0.481521	0.270669	0.016003	0.005334	-0.000314	-0.876953	0.473267	0.009033	620	16_15_08_0030000
0.827174	-0.481521	0.270669	0.009413	0.001255	-0.018513	-0.876953	0.473145	0.008911	621	16_15_08_0110000
0.827174	-0.481307	0.270669	-0.000628	0.004707	-0.005020	-0.877075	0.473022	0.008911	622	16_15_08_0190000
0.827174	-0.481307	0.270882	-0.000314	0.017258	-0.007844	-0.877075	0.473022	0.008789	623	16_15_08_0270000
0.827174	-0.481307	0.270882	0.001255	-0.003452	-0.010041	-0.877075	0.472900	0.008789	624	16_15_08_0350000
0.827387	-0.481307	0.270882	0.012865	-0.009099	-0.015375	-0.877197	0.472778	0.008789	625	16_15_08_0430000
0.827387	-0.481094	0.270882	-0.001255	-0.004079	-0.009099	-0.877197	0.472778	0.008789	626	16_15_08_0510000
0.827387	-0.481094	0.270882	-0.002510	0.000628	-0.002510	-0.877197	0.472656	0.008789	627	16_15_08_0590000
0.827387	-0.481094	0.270882	0.004393	-0.007217	-0.006275	-0.877197	0.472656	0.008789	628	16_15_08_0670000
0.827387	-0.481094	0.270882	-0.002510	-0.000314	-0.003765	-0.877319	0.472534	0.008911	629	16_15_08_0750000
0.827387	-0.481094	0.270882	0.004393	0.008472	-0.010982	-0.877319	0.472534	0.008789	630	16_15_08_0830000
0.827387	-0.480880	0.270882	0.004707	0.003765	0.000314	-0.877319	0.472412	0.008789	631	16_15_08_0910000
0.827387	-0.480880	0.270882	0.000000	0.005962	0.003765	-0.877319	0.472534	0.008667	632	16_15_08_0990000
0.827387	-0.480880	0.270882	-0.010982	-0.002196	0.000314	-0.877319	0.472534	0.008667	633	16_15_08_1070000
0.827387	-0.481094	0.270882	-0.003765	0.000314	0.003138	-0.877319	0.472534	0.008789	634	16_15_08_1150000
0.827387	-0.481094	0.270882	0.002824	-0.011296	0.006903	-0.877319	0.472534	0.008789	635	16_15_08_1230000
0.827387	-0.481094	0.270882	0.010041	0.007217	-0.009099	-0.877319	0.472534	0.008789	636	16_15_08_1310000
0.827387	-0.480880	0.271096	0.009413	0.012237	-0.005648	-0.877319	0.472412	0.008667	637	16_15_08_1390000
0.827387	-0.480880	0.271096	-0.004393	0.009099	-0.004079	-0.877441	0.472412	0.008545	638	16_15_08_1470000
0.827387	-0.480880	0.271096	0.012865	-0.000628	0.005020	-0.877319	0.472412	0.008545	639	16_15_08_1550000
0.827387	-0.480880	0.271096	-0.000314	0.002824	0.002824	-0.877319	0.472412	0.008545	640	16_15_08_1630000
0.827387	-0.480880	0.271310	-0.002510	0.003765	-0.005020	-0.877441	0.472412	0.008423	641	16_15_08_1710000
0.827387	-0.480880	0.271096	-0.006275	-0.008158	0.013492	-0.877319	0.472412	0.008545	642	16_15_08_1790000
0.827387	-0.481094	0.271096	-0.001569	-0.003765	0.016630	-0.877319	0.472412	0.008545	643	16_15_08_1870000
0.827387	-0.481094	0.271096	-0.007844	0.011610	-0.001255	-0.877319	0.472534	0.008545	644	16_15_08_1950000
0.827387	-0.481094	0.271096	0.000000	-0.000628	0.003452	-0.877319	0.472534	0.008545	645	16_15_08_2030000
0.827174	-0.481094	0.271096	0.000000	0.014120	-0.001883	-0.877319	0.472534	0.008423	646	16_15_08_2110000
0.827174	-0.481094	0.271310	0.011296	0.006903	-0.006589	-0.877319	0.472412	0.008423	647	16_15_08_2190000
0.827174	-0.481094	0.271310	-0.003138	0.002824	0.005334	-0.877319	0.472412	0.008301	648	16_15_08_2270000
0.827174	-0.481094	0.271310	-0.002824	0.006589	-0.004079	-0.877319	0.472412	0.008301	649	16_15_08_2350000
0.827174	-0.481094	0.271310	0.000941	-0.003138	0.001883	-0.877319	0.472412	0.008301	650	16_15_08_2430000
0.827174	-0.481094	0.271310	0.006275	-0.001255	0.005020	-0.877319	0.472412	0.008301	651	16_15_08_2510000
0.827174	-0.481094	0.271310	0.000628	0.000628	0.005334	-0.877319	0.472412	0.008301	652	16_15_08_2590000
0.827174	-0.481307	0.271310	0.002196	0.004079	0.010982	-0.877319	0.472534	0.008179	653	16_15_08_2670000
0.827174	-0.481307	0.271523	-0.002824	0.006589	0.003138	-0.877319	0.472534	0.008179	654	16_15_08_2750000
0.827174	-0.481307	0.271523	-0.000314	-0.007217	-0.003765	-0.877319	0.472534	0.008179	655	16_15_08_2830000
0.827174	-0.481307	0.271310	0.003765	-0.009413	-0.004707	-0.877319	0.472412	0.008301	656	16_15_08_2910000
0.827174	-0.481307	0.271310	-0.001883	-0.006903	-0.012237	-0.877319	0.472412	0.008301	657	16_15_08_2990000
0.827174	-0.481094	0.271310	-0.009413	-0.007844	0.005020	-0.877319	0.472412	0.008301	658	16_15_08_3070000
0.827174	-0.481307	0.271310	0.004393	-0.007217	0.005020	-0.877319	0.472412	0.008423	659	16_15_08_3150000
0.827174	-0.481307	0.271096	0.005334	-0.015689	0.005020	-0.877319	0.472412	0.008423	660	16_15_08_3230000
0.827174	-0.481307	0.271096	-0.003765	0.000000	-0.000314	-0.877319	0.472412	0.008545	661	16_15_08_3310000
0.827174	-0.481307	0.271096	0.007217	-0.002510	0.003765	-0.877319	0.472412	0.008545	662	16_15_08_3390000
0.827174	-0.481307	0.271096	0.005962	-0.011296	0.010668	-0.877319	0.472412	0.008545	663	16_15_08_3470000
0.827174	-0.481307	0.271096	0.006589	-0.005020	-0.001569	-0.877319	0.472412	0.008545	664	16_15_08_3550000
0.827174	-0.481307	0.271096	0.011610	-0.005962	-0.006903	-0.877319	0.472412	0.008545	665	16_15_08_3630000
0.827387	-0.481094	0.271096	0.003138	-0.012551	-0.017258	-0.877319	0.472290	0.008545	666	16_15_08_3710000
0.827387	-0.481094	0.271096	0.004079	-0.007217	-0.012865	-0.877441	0.472168	0.008667	667	16_15_08_3790000
0.827387	-0.481094	0.270882	-0.000941	-0.007844	-0.002824	-0.877441	0.472168	0.008667	668	16_15_08_3870000
0.827601	-0.480880	0.270882	-0.000314	-0.010668	-0.014434	-0.877441	0.472046	0.008789	669	16_15_08_3950000
0.827601	-0.480880	0.270882	0.000314	-0.013492	-0.002510	-0.877563	0.472046	0.008789	670	16_15_08_4030000
0.827601	-0.480880	0.270669	-0.001255	-0.011296	0.005334	-0.877563	0.472046	0.008911	671	16_15_08_4110000
0.827601	-0.480880	0.270669	0.000000	-0.006903	0.002510	-0.877563	0.472046	0.008911	672	16_15_08_4190000
0.827601	-0.480880	0.270669	0.000941	0.000941	0.000314	-0.877563	0.472046	0.009033	673	16_15_08_4270000
0.827601	-0.480880	0.270669	0.005962	0.013179	0.002824	-0.877563	0.472046	0.008911	674	16_15_08_4350000
0.827601	-0.480880	0.270882	0.008786	0.005020	-0.002510	-0.877563	0.472046	0.008789	675	16_15_08_4430000
0.827601	-0.480880	0.270882	-0.000314	0.005962	-0.008786	-0.877563	0.471924	0.008789	676	16_15_08_4510000
0.827601	-0.480880	0.270882	0.002196	0.000314	-0.007217	-0.877563	0.471924	0.008789	677	16_15_08_4590000
0.827601	-0.480880	0.270882	0.010668	-0.015689	-0.011923	-0.877686	0.471802	0.008789	678	16_15_08_4670000
0.827601	-0.480667	0.270882	0.002196	0.007531	-0.005648	-0.877686	0.471680	0.008789	679	16_15_08_4750000
0.827601	-0.480667	0.270882	-0.002196	0.016316	-0.003765	-0.877686	0.471680	0.008667	680	16_15_08_4830000
0.827601	-0.480667	0.271096	-0.001883	0.016003	-0.006589	-0.877686	0.471680	0.008545	681	16_15_08_4910000
0.827601	-0.480667	0.271096	-0.005020	0.005962	-0.010668	-0.877808	0.471558	0.008545	682	16_15_08_4990000
0.827601	-0.480667	0.271096	-0.012237	-0.007531	-0.001883	-0.877808	0.471558	0.008545	683	16_15_08_5070000
0.827601	-0.480667	0.271096	-0.002510	0.006903	0.002510	-0.877808	0.471558	0.008545	684	16_15_08_5150000
0.827601	-0.480667	0.271096	0.001569	0.006903	0.010041	-0.877808	0.471558	0.008545	685	16_15_08_5230000
0.827601	-0.480667	0.271096	0.012865	0.001255	-0.010982	-0.877808	0.471558	0.008423	686	16_15_08_5310000
0.827601	-0.480667	0.271310	0.005334	0.002510	0.008472	-0.877808	0.471558	0.008423	687	16_15_08_5390000
0.827601	-0.480667	0.271310	0.007217	-0.002510	0.012865	-0.877808	0.471558	0.008423	688	16_15_08_5470000
0.827601	-0.480667	0.271310	-0.004707	-0.012237	0.009413	-0.877686	0.471680	0.008423	689	16_15_08_5550000
0.827601	-0.480880	0.271096	-0.011296	-0.004707	0.009099	-0.877686	0.471680	0.008545	690	16_15_08_5630000
0.827601	-0.480880	0.271096	-0.006275	-0.004707	-0.002824	-0.877686	0.471680	0.008545	691	16_15_08_5710000
0.827601	-0.480880	0.271096	0.006903	0.008472	-0.000314	-0.877686	0.471680	0.008545	692	16_15_08_5790000
0.827601	-0.480880	0.271096	-0.000314	0.003765	-0.008472	-0.877686	0.471680	0.008545	693	16_15_08_5870000
0.827601	-0.480880	0.271096	0.014120	-0.007531	-0.005962	-0.877808	0.471558	0.008423	694	16_15_08_5950000
0.827601	-0.480667	0.271096	0.014747	-0.009099	0.004393	-0.877808	0.471558	0.008423	695	16_15_08_6030000
0.827601	-0.480667	0.271096	-0.000628	0.005020	0.001883	-0.877808	0.471558	0.008423	696	16_15_08_6110000
0.827601	-0.480667	0.271096	0.006275	-0.001569	0.005020	-0.877808	0.471558	0.008423	697	16_15_08_6190000
0.827601	-0.480667	0.271096	0.001883	-0.011296	-0.005020	-0.877808	0.471558	0.008423	698	16_15_08_6270000
0.827601	-0.480667	0.271096	0.011296	0.006275	0.000628	-0.877808	0.471558	0.008423	699	16_15_08_6350000
0.827601	-0.480667	0.271310	0.010041	-0.005648	0.006903	-0.877808	0.471558	0.008423	700	16_15_08_6430000
0.827601	-0.480667	0.271310	-0.000941	0.005334	-0.006903	-0.877808	0.471558	0.008423	701	16_15_08_6510000
0.827601	-0.480667	0.271310	-0.003765	0.002510	-0.000314	-0.877808	0.471436	0.008301	702	16_15_08_6590000
0.827601	-0.480667	0.271310	0.005648	0.011923	-0.000314	-0.877808	0.471436	0.008301	703	16_15_08_6670000
0.827601	-0.480667	0.271310	0.000628	0.003138	0.007217	-0.877808	0.471436	0.008179	704	16_15_08_6750000
0.827601	-0.480667	0.271310	0.003138	0.000000	-0.004393	-0.877808	0.471436	0.008179	705	16_15_08_6830000
0.827601	-0.480667	0.271310	0.004079	0.002196	-0.003138	-0.877808	0.471436	0.008179	706	16_15_08_6910000
0.827601	-0.480667	0.271523	0.005020	0.008472	0.011610	-0.877808	0.471436	0.008179	707	16_15_08_6990000
0.827387	-0.480667	0.271523	0.003138	0.006589	0.000314	-0.877808	0.471558	0.008057	708	16_15_08_7070000
0.827387	-0.480880	0.271523	-0.008158	0.009413	0.015061	-0.877808	0.471558	0.008057	709	16_15_08_7150000
0.827387	-0.480880	0.271523	0.000628	-0.010041	0.000941	-0.877808	0.471558	0.008057	710	16_15_08_7230000
0.827387	-0.480880	0.271523	-0.000314	-0.010982	0.009099	-0.877686	0.471558	0.008057	711	16_15_08_7310000
0.827387	-0.480880	0.271523	-0.008158	-0.008786	-0.007844	-0.877686	0.471558	0.008179	712	16_15_08_7390000
0.827387	-0.480880	0.271310	-0.000941	-0.004707	-0.016630	-0.877808	0.471558	0.008301	713	16_15_08_7470000
0.827601	-0.480880	0.271310	-0.006275	-0.004707	0.007531	-0.877808	0.471436	0.008301	714	16_15_08_7550000
0.827387	-0.480880	0.271310	-0.005334	0.000000	-0.000314	-0.877808	0.471436	0.008301	715	16_15_08_7630000
0.827601	-0.480880	0.271310	0.004079	-0.002510	-0.005020	-0.877808	0.471436	0.008301	716	16_15_08_7710000
0.827601	-0.480880	0.271310	0.002196	0.006275	0.001883	-0.877808	0.471436	0.008301	717	16_15_08_7790000
0.827387	-0.480880	0.271310	0.024161	0.007217	0.012237	-0.877808	0.471436	0.008179	718	16_15_08_7870000
0.827387	-0.480880	0.271523	-0.002510	-0.003452	0.000628	-0.877808	0.471558	0.008179	719	16_15_08_7950000
0.827387	-0.480880	0.271523	-0.004393	-0.002510	0.018199	-0.877808	0.471558	0.008179	720	16_15_08_8030000
0.827387	-0.481094	0.271523	-0.010668	0.006275	0.007531	-0.877686	0.471680	0.008179	721	16_15_08_8110000
0.827387	-0.481094	0.271523	0.008158	-0.003452	0.003138	-0.877686	0.471680	0.008179	722	16_15_08_8190000
0.827387	-0.481094	0.271310	-0.003138	-0.007531	-0.001255	-0.877686	0.471680	0.008179	723	16_15_08_8270000
0.827387	-0.481094	0.271310	-0.013179	0.000314	0.005020	-0.877686	0.471680	0.008301	724	16_15_08_8350000
0.827387	-0.481307	0.271310	-0.007217	0.005648	0.008472	-0.877686	0.471680	0.008301	725	16_15_08_8430000
0.827387	-0.481307	0.271310	-0.001883	0.016003	-0.010041	-0.877686	0.471680	0.008179	726	16_15_08_8510000
0.827174	-0.481307	0.271523	-0.018513	0.015689	0.004393	-0.877686	0.471680	0.008179	727	16_15_08_8590000
0.827174	-0.481307	0.271523	-0.008786	0.010982	0.021023	-0.877686	0.471680	0.008057	728	16_15_08_8670000
0.827174	-0.481521	0.271523	-0.020082	0.001883	0.002824	-0.877686	0.471802	0.008057	729	16_15_08_8750000
0.827174	-0.481521	0.271523	-0.005962	0.001255	0.008158	-0.877563	0.471802	0.008179	730	16_15_08_8830000
0.827174	-0.481521	0.271523	-0.009413	0.001255	-0.002824	-0.877563	0.471802	0.008179	731	16_15_08_8910000
0.827174	-0.481521	0.271523	0.001883	0.008472	-0.003452	-0.877686	0.471802	0.008057	732	16_15_08_8990000
0.827174	-0.481521	0.271523	-0.000941	-0.000314	-0.000628	-0.877686	0.471802	0.008057	733	16_15_08_9070000
0.827174	-0.481521	0.271523	0.005334	-0.005020	-0.005334	-0.877686	0.471680	0.008057	734	16_15_08_9150000
0.827174	-0.481521	0.271523	-0.008158	-0.011923	0.008158	-0.877686	0.471680	0.008179	735	16_15_08_9230000
0.827174	-0.481521	0.271310	0.005648	0.001883	-0.000314	-0.877686	0.471680	0.008179	736	16_15_08_9310000
0.827174	-0.481521	0.271310	0.001883	-0.004393	-0.000628	-0.877686	0.471680	0.008179	737	16_15_08_9390000
0.827174	-0.481521	0.271310	-0.010041	0.001883	0.010355	-0.877686	0.471680	0.008179	738	16_15_08_9470000
0.827174	-0.481521	0.271310	-0.000314	-0.001569	-0.005648	-0.877686	0.471680	0.008179	739	16_15_08_9550000
0.827174	-0.481521	0.271310	-0.009099	-0.007531	0.002824	-0.877686	0.471680	0.008301	740	16_15_08_9630000
0.827174	-0.481735	0.271310	0.000941	-0.006275	0.006589	-0.877686	0.471680	0.008301	741	16_15_08_9710000
0.827174	-0.481735	0.271310	0.008158	-0.007844	0.008786	-0.877686	0.471802	0.008301	742	16_15_08_9790000
0.827174	-0.481735	0.271310	0.007217	-0.002510	-0.008786	-0.877686	0.471802	0.008301	743	16_15_08_9870000
0.827174	-0.481521	0.271310	0.018199	-0.002196	-0.006275	-0.877686	0.471680	0.008301	744	16_15_08_9950000
0.827174	-0.481521	0.271310	0.004079	0.017258	0.004393	-0.877686	0.471680	0.008179	745	16_15_09_0030000
0.826960	-0.481521	0.271523	0.003765	0.013492	-0.004393	-0.877686	0.471680	0.008057	746	16_15_09_0110000
0.826960	-0.481521	0.271523	-0.002510	0.013492	-0.002510	-0.877686	0.471680	0.007935	747	16_15_09_0190000
0.826960	-0.481521	0.271523	0.001569	-0.005020	-0.008786	-0.877686	0.471558	0.007935	748	16_15_09_0270000
0.827174	-0.481521	0.271523	0.001883	-0.011296	0.001255	-0.877686	0.471558	0.007935	749	16_15_09_0350000
0.827174	-0.481521	0.271523	0.004079	-0.000314	0.008472	-0.877686	0.471558	0.008057	750	16_15_09_0430000
0.827174	-0.481521	0.271523	-0.009413	-0.002510	-0.007217	-0.877686	0.471558	0.008057	751	16_15_09_0510000
0.827174	-0.481521	0.271523	-0.000314	-0.000314	-0.007844	-0.877808	0.471558	0.008057	752	16_15_09_0590000
0.827174	-0.481521	0.271523	-0.007217	0.006275	0.006275	-0.877808	0.471436	0.008057	753	16_15_09_0670000
0.827174	-0.481521	0.271523	-0.004393	0.000000	0.009413	-0.877808	0.471558	0.008057	754	16_15_09_0750000
0.827174	-0.481521	0.271523	0.003138	-0.003138	-0.002196	-0.877808	0.471558	0.008057	755	16_15_09_0830000
0.827174	-0.481521	0.271523	-0.009727	-0.004707	-0.004079	-0.877808	0.471558	0.008057	756	16_15_09_0910000
0.827174	-0.481521	0.271523	-0.004707	0.006589	0.006903	-0.877808	0.471558	0.008057	757	16_15_09_0990000
0.826960	-0.481735	0.271523	-0.009727	-0.001255	0.010982	-0.877686	0.471558	0.008057	758	16_15_09_1070000
0.826960	-0.481735	0.271310	0.003138	-0.009099	0.001883	-0.877686	0.471558	0.008179	759	16_15_09_1150000
0.826960	-0.481735	0.271310	-0.000628	-0.010041	0.006275	-0.877686	0.471558	0.008179	760	16_15_09_1230000
0.826960	-0.481735	0.271310	-0.002824	-0.009727	0.014747	-0.877686	0.471680	0.008301	761	16_15_09_1310000
0.826960	-0.481948	0.271096	0.000941	-0.017571	-0.002510	-0.877686	0.471680	0.008423	762	16_15_09_1390000
0.826960	-0.481735	0.271096	-0.001883	-0.003452	-0.010668	-0.877686	0.471680	0.008423	763	16_15_09_1470000
0.827174	-0.481735	0.271096	0.009099	0.003765	0.000000	-0.877686	0.471558	0.008423	764	16_15_09_1550000
0.827174	-0.481735	0.271096	0.008472	0.000000	0.000628	-0.877686	0.471558	0.008423	765	16_15_09_1630000
0.827174	-0.481735	0.271096	0.009099	-0.003138	0.002824	-0.877686	0.471558	0.008301	766	16_15_09_1710000
0.826960	-0.481735	0.271310	0.003138	-0.000941	0.002510	-0.877686	0.471558	0.008301	767	16_15_09_1790000
0.826960	-0.481735	0.271310	0.011923	0.011923	0.006589	-0.877686	0.471558	0.008301	768	16_15_09_1870000
0.826960	-0.481735	0.271310	-0.002510	0.004079	0.002824	-0.877686	0.471680	0.008179	769	16_15_09_1950000
0.826960	-0.481735	0.271310	-0.009099	0.004707	-0.005962	-0.877686	0.471558	0.008179	770	16_15_09_2030000
0.826960	-0.481735	0.271310	-0.009413	-0.005020	0.000941	-0.877686	0.471558	0.008179	771	16_15_09_2110000
0.826960	-0.481735	0.271310	-0.009413	-0.000314	0.000941	-0.877686	0.471558	0.008301	772	16_15_09_2190000
0.826960	-0.481735	0.271310	-0.009099	0.000628	-0.002510	-0.877686	0.471558	0.008301	773	16_15_09_2270000
0.826960	-0.481948	0.271096	-0.006589	-0.011296	0.011610	-0.877686	0.471558	0.008301	774	16_15_09_2350000
0.826960	-0.481948	0.271096	-0.000941	-0.014434	0.008786	-0.877686	0.471680	0.008423	775	16_15_09_2430000
0.826960	-0.481948	0.271096	-0.007217	-0.007531	0.019454	-0.877686	0.471680	0.008545	776	16_15_09_2510000
0.826960	-0.482162	0.270882	-0.001255	-0.006903	-0.000314	-0.877563	0.471802	0.008545	777	16_15_09_2590000
0.826960	-0.482162	0.270882	0.003765	0.000314	-0.017885	-0.877686	0.471680	0.008545	778	16_15_09_2670000
0.826960	-0.481948	0.270882	0.006275	-0.001883	0.005020	-0.877686	0.471680	0.008545	779	16_15_09_2750000
0.826960	-0.481948	0.270882	0.008472	0.002196	-0.005020	-0.877686	0.471558	0.008545	780	16_15_09_2830000
0.826960	-0.481948	0.271096	0.000628	0.003452	-0.000314	-0.877686	0.471558	0.008545	781	16_15_09_2910000
0.826960	-0.481948	0.271096	-0.012237	0.004707	0.003138	-0.877686	0.471558	0.008545	782	16_15_09_2990000
0.826960	-0.481948	0.271096	-0.003138	0.010982	0.000941	-0.877686	0.471558	0.008423	783	16_15_09_3070000
0.826960	-0.482162	0.271096	0.001883	0.010982	0.016003	-0.877686	0.471680	0.008423	784	16_15_09_3150000
0.826960	-0.482162	0.271096	-0.004707	-0.002824	-0.008472	-0.877686	0.471680	0.008423	785	16_15_09_3230000
0.826960	-0.482162	0.271096	0.002510	0.012551	-0.005962	-0.877686	0.471558	0.008301	786	16_15_09_3310000
0.826960	-0.481948	0.271310	0.019768	0.003138	0.007217	-0.877686	0.471558	0.008179	787	16_15_09_3390000
0.826960	-0.481948	0.271310	0.015061	-0.005962	-0.001255	-0.877686	0.471558	0.008179	788	16_15_09_3470000
0.826746	-0.481948	0.271310	0.005334	0.001883	0.010668	-0.877686	0.471558	0.008179	789	16_15_09_3550000
0.826746	-0.482162	0.271310	0.008472	-0.006903	0.005020	-0.877686	0.471680	0.008179	790	16_15_09_3630000
0.826746	-0.482162	0.271310	0.009099	0.009727	0.002824	-0.877686	0.471680	0.008057	791	16_15_09_3710000
0.826746	-0.482162	0.271523	0.004079	-0.000314	-0.001883	-0.877686	0.471680	0.008057	792	16_15_09_3790000
0.826746	-0.482162	0.271523	0.000628	-0.010355	0.002196	-0.877686	0.471680	0.008057	793	16_15_09_3870000
0.826746	-0.482162	0.271523	0.008158	0.010041	0.003452	-0.877686	0.471680	0.008057	794	16_15_09_3950000
0.826746	-0.482162	0.271523	0.004707	-0.001569	0.004393	-0.877686	0.471680	0.007935	795	16_15_09_4030000
0.826746	-0.482162	0.271523	0.004079	0.012865	-0.006589	-0.877686	0.471680	0.007935	796	16_15_09_4110000
0.826746	-0.482162	0.271523	-0.005334	0.004079	0.001255	-0.877686	0.471680	0.007813	797	16_15_09_4190000
0.826746	-0.482162	0.271523	0.004079	-0.006275	0.015689	-0.877686	0.471680	0.007935	798	16_15_09_4270000
0.826746	-0.482162	0.271523	0.006903	-0.005648	0.005020	-0.877563	0.471680	0.007935	799	16_15_09_4350000
0.826746	-0.482162	0.271523	0.004079	-0.012865	0.004393	-0.877563	0.471802	0.007935	800	16_15_09_4430000
0.826746	-0.482162	0.271523	-0.002824	-0.003138	-0.004707	-0.877563	0.471680	0.007935	801	16_15_09_4510000
0.826746	-0.482162	0.271523	-0.011296	0.001883	0.000941	-0.877563	0.471680	0.008057	802	16_15_09_4590000
0.826746	-0.482162	0.271523	-0.006275	0.004393	0.008158	-0.877563	0.471680	0.008057	803	16_15_09_4670000
0.826746	-0.482376	0.271523	0.004079	-0.008158	0.005334	-0.877563	0.471802	0.008057	804	16_15_09_4750000
0.826533	-0.482376	0.271523	-0.004079	0.006275	0.011610	-0.877563	0.471802	0.008057	805	16_15_09_4830000
0.826533	-0.482376	0.271523	-0.001883	0.004393	0.008786	-0.877563	0.471802	0.008057	806	16_15_09_4910000
0.826533	-0.482376	0.271523	-0.000941	0.002196	-0.001255	-0.877563	0.471924	0.007935	807	16_15_09_4990000
0.826533	-0.482589	0.271523	0.003452	0.001255	0.008158	-0.877563	0.471924	0.007935	808	16_15_09_5070000
0.826533	-0.482589	0.271523	0.010668	-0.006275	0.017571	-0.877441	0.471924	0.007935	809	16_15_09_5150000
0.826533	-0.482589	0.271523	0.011296	-0.004079	0.012237	-0.877441	0.472046	0.007935	810	16_15_09_5230000
0.826319	-0.482589	0.271523	0.008786	0.006275	0.002824	-0.877441	0.472046	0.007935	811	16_15_09_5310000
0.826319	-0.482589	0.271737	0.005334	0.004079	0.006589	-0.877441	0.472046	0.007813	812	16_15_09_5390000
0.826319	-0.482589	0.271737	0.008786	-0.005334	0.004393	-0.877441	0.472168	0.007813	813	16_15_09_5470000
0.826319	-0.482803	0.271737	0.005020	0.006275	0.005020	-0.877319	0.472168	0.007813	814	16_15_09_5550000
0.826319	-0.482803	0.271737	0.005648	-0.005962	-0.000314	-0.877319	0.472168	0.007813	815	16_15_09_5630000
0.826319	-0.482803	0.271737	0.009413	-0.012237	0.014747	-0.877319	0.472168	0.007813	816	16_15_09_5710000
0.826319	-0.482803	0.271737	0.007531	-0.000941	0.007844	-0.877319	0.472290	0.007813	817	16_15_09_5790000
0.826319	-0.482803	0.271737	0.005648	0.000000	-0.008786	-0.877319	0.472290	0.007813	818	16_15_09_5870000
0.826319	-0.482803	0.271737	-0.003452	0.018199	0.000314	-0.877319	0.472168	0.007690	819	16_15_09_5950000
0.826319	-0.482803	0.271950	-0.000314	0.007844	-0.003138	-0.877319	0.472168	0.007568	820	16_15_09_6030000
0.826319	-0.482803	0.271737	0.002196	-0.021337	0.002196	-0.877319	0.472168	0.007690	821	16_15_09_6110000
0.826319	-0.482803	0.271737	-0.001569	-0.013492	-0.002510	-0.877319	0.472168	0.007813	822	16_15_09_6190000
0.826319	-0.482803	0.271737	-0.006275	-0.001255	-0.007844	-0.877319	0.472046	0.007813	823	16_15_09_6270000
0.826319	-0.482589	0.271737	0.001255	0.000314	-0.011296	-0.877441	0.472046	0.007813	824	16_15_09_6350000
0.826533	-0.482589	0.271523	-0.001883	-0.007531	-0.010668	-0.877441	0.471924	0.007813	825	16_15_09_6430000
0.826533	-0.482589	0.271523	0.001569	-0.001569	-0.012551	-0.877563	0.471802	0.007935	826	16_15_09_6510000
0.826533	-0.482376	0.271523	-0.018513	-0.003452	-0.012237	-0.877563	0.471802	0.007935	827	16_15_09_6590000
0.826533	-0.482376	0.271523	-0.008158	-0.007844	-0.007844	-0.877563	0.471680	0.008057	828	16_15_09_6670000
0.826746	-0.482376	0.271310	0.002824	-0.004079	-0.010041	-0.877686	0.471558	0.008057	829	16_15_09_6750000
0.826746	-0.482376	0.271523	0.007217	0.006903	-0.013179	-0.877686	0.471558	0.008057	830	16_15_09_6830000
0.826746	-0.482162	0.271523	0.014120	0.002196	-0.005648	-0.877686	0.471436	0.007935	831	16_15_09_6910000
0.826746	-0.482162	0.271523	0.000628	0.003765	-0.015061	-0.877808	0.471313	0.007935	832	16_15_09_6990000
0.826746	-0.481948	0.271523	-0.002824	-0.005020	-0.012237	-0.877808	0.471191	0.007935	833	16_15_09_7070000
0.826960	-0.481948	0.271523	-0.003765	-0.007844	-0.002824	-0.877808	0.471191	0.007935	834	16_15_09_7150000
0.826960	-0.481948	0.271523	-0.005962	-0.004079	0.009099	-0.877808	0.471191	0.008057	835	16_15_09_7230000
0.826746	-0.482162	0.271310	-0.000628	-0.012237	0.000628	-0.877808	0.471191	0.008057	836	16_15_09_7310000
0.826960	-0.482162	0.271310	0.002824	-0.004393	-0.000314	-0.877808	0.471191	0.008179	837	16_15_09_7390000
0.826960	-0.482162	0.271310	-0.000314	-0.013492	0.006275	-0.877808	0.471191	0.008179	838	16_15_09_7470000
0.826960	-0.482162	0.271310	0.001569	0.000314	0.002510	-0.877808	0.471191	0.008179	839	16_15_09_7550000
0.826960	-0.482162	0.271096	-0.002196	-0.013492	0.000628	-0.877808	0.471191	0.008301	840	16_15_09_7630000
0.826960	-0.482162	0.271096	-0.001255	-0.008158	0.002196	-0.877808	0.471191	0.008301	841	16_15_09_7710000
0.826960	-0.482162	0.271096	-0.006275	-0.001569	-0.013179	-0.877808	0.471191	0.008423	842	16_15_09_7790000
0.826960	-0.482162	0.271096	-0.000941	-0.011296	-0.003452	-0.877930	0.471069	0.008423	843	16_15_09_7870000
0.826960	-0.481948	0.270882	0.003765	-0.015061	-0.010982	-0.877930	0.471069	0.008545	844	16_15_09_7950000
0.827174	-0.481948	0.270882	-0.000628	-0.017571	-0.004079	-0.877930	0.470947	0.008667	845	16_15_09_8030000
0.827174	-0.481948	0.270669	-0.003138	-0.004707	-0.001255	-0.877930	0.470947	0.008667	846	16_15_09_8110000
0.827174	-0.481948	0.270669	-0.005020	-0.003138	-0.003452	-0.877930	0.470947	0.008789	847	16_15_09_8190000
0.827174	-0.481948	0.270669	0.001883	-0.001255	0.009099	-0.877930	0.470947	0.008789	848	16_15_09_8270000
0.827174	-0.481948	0.270669	0.000314	0.009727	-0.000314	-0.877930	0.470947	0.008789	849	16_15_09_8350000
0.827174	-0.481948	0.270669	0.005648	-0.000314	-0.005334	-0.877930	0.470947	0.008667	850	16_15_09_8430000
0.827174	-0.481948	0.270882	-0.004393	0.013179	0.010355	-0.877930	0.470947	0.008667	851	16_15_09_8510000
0.826960	-0.481948	0.270882	0.000628	0.013492	0.012865	-0.877930	0.470947	0.008545	852	16_15_09_8590000
0.826960	-0.482162	0.270882	-0.002824	0.005334	0.009413	-0.877930	0.471069	0.008545	853	16_15_09_8670000
0.826960	-0.482162	0.270882	-0.005648	0.014434	-0.000628	-0.877930	0.471069	0.008423	854	16_15_09_8750000
0.826960	-0.482162	0.271096	-0.004707	0.013492	0.002824	-0.877930	0.471069	0.008301	855	16_15_09_8830000
0.826960	-0.482162	0.271096	0.005020	0.009099	-0.005334	-0.877930	0.471069	0.008301	856	16_15_09_8910000
0.826746	-0.482162	0.271310	0.004079	0.028240	0.006275	-0.877930	0.471069	0.008179	857	16_15_09_8990000
0.826746	-0.482162	0.271310	0.012865	0.004707	0.015061	-0.877930	0.471069	0.007935	858	16_15_09_9070000
0.826746	-0.482376	0.271523	0.006589	0.008158	0.009099	-0.877808	0.471191	0.007935	859	16_15_09_9150000
0.826533	-0.482376	0.271523	-0.005648	-0.003452	0.016944	-0.877808	0.471191	0.007935	860	16_15_09_9230000
0.826533	-0.482376	0.271523	0.004079	0.010982	0.004393	-0.877808	0.471313	0.007813	861	16_15_09_9310000
0.826533	-0.482376	0.271523	0.001255	0.020082	-0.003452	-0.877808	0.471313	0.007690	862	16_15_09_9390000
0.826533	-0.482376	0.271737	0.002824	0.040477	-0.005020	-0.877808	0.471313	0.007568	863	16_15_09_9470000
0.826533	-0.482376	0.272164	0.009727	0.026357	0.004079	-0.877808	0.471191	0.007202	864	16_15_09_9550000
0.826533	-0.482376	0.272164	0.003765	0.005648	-0.017258	-0.877808	0.471191	0.007080	865	16_15_09_9630000
0.826533	-0.482162	0.272164	0.010041	-0.003452	-0.005334	-0.877930	0.471069	0.007080	866	16_15_09_9710000
0.826533	-0.482162	0.272378	0.007844	0.022278	0.004079	-0.877930	0.471069	0.006958	867	16_15_09_9790000
0.826319	-0.482162	0.272378	0.007217	0.006589	-0.005648	-0.877930	0.471069	0.006836	868	16_15_09_9870000
0.826319	-0.482162	0.272591	0.002824	0.017571	-0.005648	-0.877930	0.471069	0.006714	869	16_15_09_9950000
0.826319	-0.482162	0.272591	0.000628	0.025416	0.004707	-0.877930	0.470947	0.006592	870	16_15_10_0030000
0.826319	-0.482162	0.272805	0.005020	0.022278	0.006589	-0.877930	0.471069	0.006470	871	16_15_10_0110000
0.826106	-0.482162	0.273019	0.010668	0.017885	0.009727	-0.877930	0.471069	0.006226	872	16_15_10_0190000
0.826106	-0.482162	0.273232	-0.005334	0.022278	0.000628	-0.877930	0.471069	0.006104	873	16_15_10_0270000
0.826106	-0.482376	0.273232	-0.001883	0.029495	0.002510	-0.877930	0.471069	0.005981	874	16_15_10_0350000
0.826106	-0.482376	0.273446	0.000000	0.016316	0.006275	-0.877930	0.471069	0.005737	875	16_15_10_0430000
0.825892	-0.482376	0.273659	0.000628	0.012865	-0.001569	-0.877930	0.471069	0.005615	876	16_15_10_0510000
0.825892	-0.482376	0.273659	0.000314	0.008472	0.000000	-0.877930	0.471069	0.005615	877	16_15_10_0590000
0.825892	-0.482376	0.273659	0.006903	0.009727	0.005334	-0.877930	0.471069	0.005493	878	16_15_10_0670000
0.825892	-0.482376	0.273873	0.010041	0.009727	0.009413	-0.877930	0.471191	0.005371	879	16_15_10_0750000
0.825892	-0.482376	0.273873	-0.000628	0.010041	-0.002824	-0.877808	0.471191	0.005371	880	16_15_10_0830000
0.825892	-0.482376	0.274087	0.007217	0.013806	-0.005020	-0.877930	0.471069	0.005249	881	16_15_10_0910000
0.825892	-0.482376	0.274087	-0.000628	0.014434	-0.003765	-0.877930	0.471069	0.005127	882	16_15_10_0990000
0.825892	-0.482376	0.274087	-0.003138	0.004079	-0.001883	-0.877930	0.471069	0.005127	883	16_15_10_1070000
0.825892	-0.482376	0.274087	0.008158	-0.008786	-0.000314	-0.877930	0.471069	0.005127	884	16_15_10_1150000
0.825892	-0.482162	0.274087	-0.004707	-0.017885	-0.004079	-0.877930	0.471069	0.005127	885	16_15_10_1230000
0.825892	-0.482162	0.274087	-0.009413	-0.006903	-0.016944	-0.877930	0.470947	0.005249	886	16_15_10_1310000
0.825892	-0.482162	0.273873	-0.006589	-0.000941	-0.001569	-0.878052	0.470825	0.005371	887	16_15_10_1390000
0.825892	-0.482162	0.273873	-0.009413	-0.003765	-0.008786	-0.878052	0.470825	0.005371	888	16_15_10_1470000
0.826106	-0.482162	0.273873	0.004707	-0.008158	-0.007844	-0.878052	0.470703	0.005371	889	16_15_10_1550000
0.826106	-0.482162	0.273873	0.000314	-0.011610	-0.000628	-0.878052	0.470703	0.005493	890	16_15_10_1630000
0.826106	-0.482162	0.273659	0.001569	-0.015061	0.004393	-0.878052	0.470703	0.005493	891	16_15_10_1710000
0.826106	-0.482162	0.273659	-0.007531	-0.010982	-0.003138	-0.878052	0.470703	0.005615	892	16_15_10_1790000
0.826106	-0.482162	0.273659	0.001569	-0.010982	0.002510	-0.878174	0.470703	0.005737	893	16_15_10_1870000
0.826106	-0.482162	0.273446	-0.014120	-0.019454	-0.005334	-0.878174	0.470703	0.005859	894	16_15_10_1950000
0.826319	-0.482162	0.273232	0.004393	-0.026357	-0.006275	-0.878174	0.470581	0.005981	895	16_15_10_2030000
0.826319	-0.482162	0.273232	0.003138	-0.016316	0.007844	-0.878174	0.470581	0.006104	896	16_15_10_2110000
0.826319	-0.482162	0.273019	0.010982	-0.028867	-0.011296	-0.878174	0.470581	0.006348	897	16_15_10_2190000
0.826319	-0.481948	0.273019	0.011610	-0.024474	-0.013806	-0.878174	0.470459	0.006470	898	16_15_10_2270000
0.826533	-0.481948	0.272805	0.001569	-0.024161	-0.001255	-0.878296	0.470459	0.006592	899	16_15_10_2350000
0.826533	-0.481948	0.272591	0.003138	-0.037653	-0.001569	-0.878296	0.470459	0.006714	900	16_15_10_2430000
0.826746	-0.481948	0.272378	0.004079	-0.035457	-0.005962	-0.878296	0.470337	0.006958	901	16_15_10_2510000
0.826746	-0.481735	0.272164	-0.001569	-0.023847	-0.004707	-0.878296	0.470337	0.007202	902	16_15_10_2590000
0.826746	-0.481735	0.272164	0.002824	-0.021650	0.001255	-0.878296	0.470337	0.007324	903	16_15_10_2670000
0.826746	-0.481735	0.271950	0.012237	-0.012865	-0.001569	-0.878296	0.470337	0.007446	904	16_15_10_2750000
0.826960	-0.481735	0.271950	0.009413	-0.016630	0.007217	-0.878296	0.470337	0.007446	905	16_15_10_2830000
0.826960	-0.481735	0.271950	0.007531	-0.025416	0.000314	-0.878296	0.470337	0.007568	906	16_15_10_2910000
0.826960	-0.481735	0.271737	0.010982	-0.022592	-0.008786	-0.878296	0.470215	0.007690	907	16_15_10_2990000
0.826960	-0.481735	0.271523	0.007531	-0.028553	0.011610	-0.878296	0.470215	0.007813	908	16_15_10_3070000
0.826960	-0.481735	0.271523	-0.000628	-0.018513	0.007531	-0.878296	0.470337	0.008057	909	16_15_10_3150000
0.826960	-0.481735	0.271310	0.012237	-0.021964	0.005334	-0.878296	0.470337	0.008057	910	16_15_10_3230000
0.827174	-0.481735	0.271310	0.001883	-0.041732	-0.004079	-0.878296	0.470337	0.008301	911	16_15_10_3310000
0.827174	-0.481735	0.271096	-0.000628	-0.024474	-0.008786	-0.878296	0.470337	0.008545	912	16_15_10_3390000
0.827387	-0.481735	0.270882	-0.001255	-0.030750	-0.005962	-0.878296	0.470215	0.008667	913	16_15_10_3470000
0.827387	-0.481735	0.270669	0.000314	-0.029809	-0.010982	-0.878296	0.470215	0.008911	914	16_15_10_3550000
0.827387	-0.481735	0.270455	0.000314	-0.030750	-0.002510	-0.878418	0.470093	0.009155	915	16_15_10_3630000
0.827601	-0.481521	0.270241	0.000628	-0.032633	-0.007844	-0.878418	0.470093	0.009277	916	16_15_10_3710000
0.827601	-0.481521	0.270028	0.009727	-0.041104	-0.010355	-0.878418	0.469971	0.009521	917	16_15_10_3790000
0.827815	-0.481521	0.269814	0.003452	-0.045811	-0.012237	-0.878418	0.469849	0.009766	918	16_15_10_3870000
0.827815	-0.481307	0.269601	0.006275	-0.033888	-0.016003	-0.878540	0.469849	0.010132	919	16_15_10_3950000
0.828028	-0.481307	0.269387	0.008472	-0.026357	-0.003765	-0.878540	0.469727	0.010254	920	16_15_10_4030000
0.828028	-0.481307	0.269173	0.001569	-0.025416	0.016944	-0.878540	0.469727	0.010376	921	16_15_10_4110000
0.828028	-0.481307	0.268960	0.004707	-0.032319	0.006275	-0.878540	0.469849	0.010620	922	16_15_10_4190000
0.828028	-0.481307	0.268746	0.002824	-0.031377	0.002196	-0.878540	0.469849	0.010742	923	16_15_10_4270000
0.828242	-0.481307	0.268746	0.003765	-0.036398	0.000941	-0.878418	0.469849	0.010986	924	16_15_10_4350000
0.828242	-0.481307	0.268532	0.014747	-0.023219	-0.003138	-0.878540	0.469849	0.011108	925	16_15_10_4430000
0.828242	-0.481307	0.268319	0.009727	-0.013492	0.005020	-0.878540	0.469849	0.011230	926	16_15_10_4510000
0.828242	-0.481307	0.268319	-0.003138	-0.010982	0.002824	-0.878418	0.469849	0.011353	927	16_15_10_4590000
0.828242	-0.481307	0.268319	0.009413	-0.014120	0.008158	-0.878418	0.469849	0.011353	928	16_15_10_4670000
0.828242	-0.481307	0.268319	0.014434	-0.009727	0.007844	-0.878418	0.469971	0.011353	929	16_15_10_4750000
0.828242	-0.481521	0.268105	0.004393	-0.012551	0.020082	-0.878418	0.469971	0.011475	930	16_15_10_4830000
0.828242	-0.481521	0.268105	0.009099	-0.018826	0.013179	-0.878296	0.470093	0.011475	931	16_15_10_4910000
0.828242	-0.481521	0.268105	0.015689	-0.026357	0.007844	-0.878296	0.470215	0.011597	932	16_15_10_4990000
0.828242	-0.481521	0.267891	0.009727	-0.019454	-0.001569	-0.878296	0.470215	0.011719	933	16_15_10_5070000
0.828242	-0.481521	0.267891	0.022906	-0.022906	0.004393	-0.878296	0.470215	0.011841	934	16_15_10_5150000
0.828242	-0.481521	0.267891	0.013492	-0.010982	0.012237	-0.878296	0.470215	0.011841	935	16_15_10_5230000
0.828242	-0.481735	0.267678	0.004393	-0.029181	0.013179	-0.878174	0.470337	0.011963	936	16_15_10_5310000
0.828242	-0.481735	0.267678	0.001883	-0.020082	0.006903	-0.878174	0.470337	0.012085	937	16_15_10_5390000
0.828242	-0.481735	0.267464	-0.001569	-0.012237	0.008472	-0.878174	0.470459	0.012207	938	16_15_10_5470000
0.828242	-0.481735	0.267464	-0.000941	-0.011923	-0.006589	-0.878174	0.470459	0.012329	939	16_15_10_5550000
0.828455	-0.481735	0.267251	0.004707	-0.017258	0.003765	-0.878174	0.470459	0.012451	940	16_15_10_5630000
0.828455	-0.481735	0.267251	-0.002824	-0.011923	0.009099	-0.878174	0.470459	0.012451	941	16_15_10_5710000
0.828455	-0.481948	0.267037	0.003138	-0.013179	0.006903	-0.878052	0.470459	0.012573	942	16_15_10_5790000
0.828455	-0.481948	0.267037	0.009727	-0.016944	0.004707	-0.878052	0.470581	0.012695	943	16_15_10_5870000
0.828455	-0.481948	0.267037	0.005962	-0.011610	0.005020	-0.878052	0.470581	0.012695	944	16_15_10_5950000
0.828455	-0.481948	0.267037	0.002510	-0.002196	-0.000314	-0.878052	0.470581	0.012695	945	16_15_10_6030000
0.828455	-0.481948	0.267037	-0.006275	0.003452	-0.003452	-0.878052	0.470581	0.012695	946	16_15_10_6110000
0.828455	-0.481948	0.267037	0.005648	0.018199	-0.005020	-0.878052	0.470459	0.012695	947	16_15_10_6190000
0.828455	-0.481948	0.267037	0.005334	0.009099	0.002824	-0.878052	0.470459	0.012573	948	16_15_10_6270000
0.828242	-0.481948	0.267251	0.005648	0.016630	0.003452	-0.878052	0.470459	0.012451	949	16_15_10_6350000
0.828242	-0.481948	0.267251	-0.001255	0.009413	0.006589	-0.878052	0.470581	0.012329	950	16_15_10_6430000
0.828242	-0.481948	0.267251	-0.000628	-0.002510	0.002196	-0.878052	0.470581	0.012329	951	16_15_10_6510000
0.828242	-0.481948	0.267464	-0.006589	0.021964	-0.001255	-0.878052	0.470581	0.012207	952	16_15_10_6590000
0.828242	-0.481948	0.267464	-0.000628	0.023533	0.006589	-0.878052	0.470581	0.012085	953	16_15_10_6670000
0.828028	-0.481948	0.267678	-0.012551	0.019768	0.005020	-0.878052	0.470581	0.011963	954	16_15_10_6750000
0.828028	-0.481948	0.267678	0.002824	0.015061	0.004707	-0.878052	0.470581	0.011841	955	16_15_10_6830000
0.828028	-0.482162	0.267891	0.005020	0.008786	0.016316	-0.878052	0.470703	0.011719	956	16_15_10_6910000
0.827815	-0.482162	0.267891	0.012237	0.020709	0.013492	-0.877930	0.470825	0.011597	957	16_15_10_6990000
0.827815	-0.482162	0.268105	0.009099	0.015689	0.012865	-0.877930	0.470825	0.011475	958	16_15_10_7070000
0.827815	-0.482376	0.268319	0.011296	0.004707	0.002510	-0.877930	0.470947	0.011353	959	16_15_10_7150000
0.827601	-0.482376	0.268319	0.010982	0.000000	0.016316	-0.877930	0.470947	0.011230	960	16_15_10_7230000
0.827601	-0.482376	0.268319	0.007217	0.006589	-0.000628	-0.877808	0.470947	0.011230	961	16_15_10_7310000
0.827601	-0.482376	0.268532	0.007531	-0.008472	0.005020	-0.877808	0.470947	0.011230	962	16_15_10_7390000
0.827601	-0.482376	0.268532	0.012237	0.005962	0.020082	-0.877808	0.471069	0.011108	963	16_15_10_7470000
0.827601	-0.482589	0.268532	0.011610	-0.001255	0.025730	-0.877686	0.471191	0.011108	964	16_15_10_7550000
0.827387	-0.482589	0.268532	-0.002824	-0.002196	0.013806	-0.877686	0.471313	0.011108	965	16_15_10_7630000
0.827387	-0.482803	0.268532	0.000941	-0.026043	0.011923	-0.877563	0.471436	0.011230	966	16_15_10_7710000
0.827387	-0.482803	0.268319	0.007844	-0.031377	0.010668	-0.877563	0.471436	0.011353	967	16_15_10_7790000
0.827387	-0.482803	0.268105	-0.002510	-0.027298	0.000628	-0.877563	0.471558	0.011475	968	16_15_10_7870000
0.827601	-0.482803	0.267891	-0.003452	-0.035143	-0.000314	-0.877563	0.471558	0.011719	969	16_15_10_7950000
0.827601	-0.482803	0.267678	-0.008786	-0.035457	-0.000941	-0.877563	0.471558	0.011963	970	16_15_10_8030000
0.827601	-0.482803	0.267464	-0.008786	-0.032005	-0.005648	-0.877563	0.471436	0.012207	971	16_15_10_8110000
0.827815	-0.482803	0.267251	-0.001569	-0.032005	-0.003765	-0.877563	0.471436	0.012451	972	16_15_10_8190000
0.827815	-0.482803	0.267037	0.012237	-0.028867	-0.002510	-0.877563	0.471436	0.012695	973	16_15_10_8270000
0.828028	-0.482803	0.266823	0.010982	-0.036712	-0.004707	-0.877686	0.471313	0.012817	974	16_15_10_8350000
0.828028	-0.482803	0.266823	0.012865	-0.027926	0.015061	-0.877563	0.471436	0.013062	975	16_15_10_8430000
0.828028	-0.482803	0.266610	0.016630	-0.049263	0.013492	-0.877563	0.471436	0.013184	976	16_15_10_8510000
0.828028	-0.482803	0.266396	0.015375	-0.052400	0.016316	-0.877563	0.471558	0.013550	977	16_15_10_8590000
0.828242	-0.483016	0.265969	0.007531	-0.061500	0.009413	-0.877441	0.471680	0.013916	978	16_15_10_8670000
0.828242	-0.483016	0.265755	0.004393	-0.061186	0.012551	-0.877441	0.471680	0.014282	979	16_15_10_8750000
0.828242	-0.483016	0.265328	0.016316	-0.069658	0.011610	-0.877319	0.471802	0.014648	980	16_15_10_8830000
0.828455	-0.483016	0.264901	0.018199	-0.066834	0.020709	-0.877319	0.471924	0.015015	981	16_15_10_8910000
0.828455	-0.483230	0.264687	0.019140	-0.061186	0.028553	-0.877197	0.472046	0.015381	982	16_15_10_8990000
0.828455	-0.483444	0.264260	0.020709	-0.057735	0.020709	-0.877075	0.472290	0.015747	983	16_15_10_9070000
0.828455	-0.483444	0.264046	0.013492	-0.074678	0.001569	-0.877075	0.472290	0.016113	984	16_15_10_9150000
0.828669	-0.483444	0.263619	0.020709	-0.082209	-0.018199	-0.877075	0.472290	0.016602	985	16_15_10_9230000
0.828883	-0.483230	0.262978	0.023847	-0.096956	-0.009727	-0.877197	0.472168	0.017090	986	16_15_10_9310000
0.829096	-0.483230	0.262551	0.014120	-0.095074	-0.005334	-0.877197	0.472046	0.017700	987	16_15_10_9390000
0.829310	-0.483016	0.261910	0.009727	-0.095388	0.000628	-0.877197	0.472046	0.018311	988	16_15_10_9470000
0.829524	-0.483016	0.261269	0.013806	-0.102918	-0.007217	-0.877197	0.472046	0.018921	989	16_15_10_9550000
0.829737	-0.483016	0.260842	0.034829	-0.113900	0.008472	-0.877197	0.472046	0.019531	990	16_15_10_9630000
0.829951	-0.483016	0.260201	0.025102	-0.116410	0.006275	-0.877075	0.472046	0.020264	991	16_15_10_9710000
0.830164	-0.483016	0.259560	0.025416	-0.108880	0.020709	-0.877075	0.472168	0.020874	992	16_15_10_9790000
0.830378	-0.483016	0.258919	0.012237	-0.109507	0.012865	-0.876953	0.472290	0.021606	993	16_15_10_9870000
0.830592	-0.483016	0.258278	0.001883	-0.111390	0.008786	-0.876953	0.472412	0.022339	994	16_15_10_9950000
0.830592	-0.483230	0.257637	0.007844	-0.097270	0.031064	-0.876831	0.472534	0.022949	995	16_15_11_0030000
0.830805	-0.483444	0.256996	-0.005962	-0.097270	0.020082	-0.876709	0.472656	0.023682	996	16_15_11_0110000
0.830805	-0.483444	0.256142	-0.019454	-0.102918	0.020082	-0.876587	0.472778	0.024414	997	16_15_11_0190000
0.831019	-0.483657	0.255501	-0.010668	-0.076561	0.021650	-0.876587	0.472900	0.025024	998	16_15_11_0270000
0.831019	-0.483871	0.255074	-0.007217	-0.061814	0.027612	-0.876465	0.473145	0.025513	999	16_15_11_0350000
0.831019	-0.484085	0.254646	-0.013806	-0.048008	0.014747	-0.876343	0.473267	0.025879	1000	16_15_11_0430000
0.831019	-0.484085	0.254219	-0.012237	-0.040791	0.006903	-0.876343	0.473267	0.026245	1001	16_15_11_0510000
0.831233	-0.484085	0.254006	-0.016630	-0.026043	-0.001255	-0.876343	0.473267	0.026489	1002	16_15_11_0590000
0.831233	-0.484085	0.253792	-0.008158	-0.026043	-0.007217	-0.876343	0.473267	0.026733	1003	16_15_11_0670000
0.831233	-0.484085	0.253578	0.011610	-0.028867	0.006275	-0.876343	0.473267	0.026978	1004	16_15_11_0750000
0.831233	-0.484298	0.253365	0.029809	-0.012551	0.017258	-0.876221	0.473389	0.026978	1005	16_15_11_0830000
0.831233	-0.484298	0.253578	0.043301	-0.018513	0.019140	-0.876221	0.473511	0.026978	1006	16_15_11_0910000
0.831233	-0.484298	0.253578	0.035143	-0.025102	-0.000628	-0.876221	0.473511	0.026978	1007	16_15_11_0990000
0.831233	-0.484298	0.253578	0.032633	-0.007531	0.007531	-0.876221	0.473633	0.026978	1008	16_15_11_1070000
0.831233	-0.484085	0.253578	0.032319	-0.017885	-0.007217	-0.876221	0.473633	0.026855	1009	16_15_11_1150000
0.831233	-0.484085	0.253578	0.019454	-0.009099	-0.006275	-0.876221	0.473511	0.026855	1010	16_15_11_1230000
0.831446	-0.484085	0.253578	-0.000628	-0.007844	-0.007844	-0.876221	0.473511	0.026855	1011	16_15_11_1310000
0.831446	-0.484085	0.253578	0.000628	0.001569	-0.001883	-0.876221	0.473511	0.026978	1012	16_15_11_1390000
0.831446	-0.483871	0.253578	0.004707	-0.005648	-0.004079	-0.876221	0.473389	0.026978	1013	16_15_11_1470000
0.831446	-0.483871	0.253578	-0.005648	0.004393	-0.019454	-0.876343	0.473389	0.026855	1014	16_15_11_1550000
0.831446	-0.483871	0.253578	-0.019768	-0.014434	-0.014434	-0.876343	0.473267	0.026978	1015	16_15_11_1630000
0.831660	-0.483871	0.253365	-0.022906	0.000000	-0.019140	-0.876465	0.473145	0.027100	1016	16_15_11_1710000
0.831660	-0.483657	0.253365	-0.016316	-0.001569	-0.017885	-0.876465	0.473022	0.027222	1017	16_15_11_1790000
0.831874	-0.483444	0.253365	-0.014120	0.005020	-0.031691	-0.876587	0.472778	0.027222	1018	16_15_11_1870000
0.831874	-0.483444	0.253151	0.005334	-0.014120	-0.015061	-0.876709	0.472656	0.027222	1019	16_15_11_1950000
0.831874	-0.483230	0.253151	0.030750	-0.025730	-0.010668	-0.876709	0.472534	0.027344	1020	16_15_11_2030000
0.832087	-0.483230	0.253151	0.035143	-0.028553	-0.003452	-0.876709	0.472534	0.027344	1021	16_15_11_2110000
0.832087	-0.483016	0.253151	0.035143	-0.019140	0.004707	-0.876709	0.472534	0.027466	1022	16_15_11_2190000
0.832087	-0.483016	0.253151	0.018826	-0.028553	0.002824	-0.876709	0.472534	0.027466	1023	16_15_11_2270000
0.832087	-0.483016	0.252937	0.014434	-0.041104	-0.011296	-0.876709	0.472534	0.027588	1024	16_15_11_2350000
0.832301	-0.483016	0.252724	0.007844	-0.046752	-0.001883	-0.876709	0.472412	0.027832	1025	16_15_11_2430000
0.832301	-0.483016	0.252510	0.014434	-0.041732	0.005020	-0.876709	0.472412	0.028198	1026	16_15_11_2510000
0.832514	-0.482803	0.252297	0.021023	-0.042673	-0.002824	-0.876709	0.472534	0.028320	1027	16_15_11_2590000
0.832514	-0.482803	0.252083	0.032946	-0.052087	-0.003765	-0.876709	0.472412	0.028564	1028	16_15_11_2670000
0.832728	-0.482803	0.251869	0.024474	-0.060872	0.004393	-0.876709	0.472412	0.028809	1029	16_15_11_2750000
0.832728	-0.482803	0.251442	0.020709	-0.064324	-0.000941	-0.876709	0.472534	0.029175	1030	16_15_11_2830000
0.832942	-0.482589	0.251228	0.029181	-0.081895	-0.008158	-0.876709	0.472412	0.029541	1031	16_15_11_2910000
0.833155	-0.482589	0.250801	0.011923	-0.076247	0.000000	-0.876709	0.472412	0.030029	1032	16_15_11_2990000
0.833155	-0.482589	0.250374	0.009727	-0.070913	-0.001883	-0.876709	0.472412	0.030518	1033	16_15_11_3070000
0.833369	-0.482589	0.249947	0.018826	-0.078757	0.009099	-0.876709	0.472412	0.030884	1034	16_15_11_3150000
0.833583	-0.482589	0.249519	0.026985	-0.084719	0.009099	-0.876587	0.472534	0.031372	1035	16_15_11_3230000
0.833583	-0.482589	0.248878	0.020395	-0.084719	-0.001883	-0.876587	0.472534	0.031860	1036	16_15_11_3310000
0.833796	-0.482376	0.248451	0.013492	-0.074365	-0.008472	-0.876587	0.472534	0.032349	1037	16_15_11_3390000
0.834010	-0.482376	0.248024	0.003452	-0.078444	-0.002510	-0.876587	0.472412	0.032837	1038	16_15_11_3470000
0.834223	-0.482376	0.247597	0.007217	-0.080013	0.000628	-0.876587	0.472412	0.033325	1039	16_15_11_3550000
0.834223	-0.482376	0.247169	-0.008472	-0.065265	-0.006275	-0.876587	0.472412	0.033813	1040	16_15_11_3630000
0.834437	-0.482376	0.246529	-0.027926	-0.073423	-0.006275	-0.876587	0.472412	0.034424	1041	16_15_11_3710000
0.834651	-0.482376	0.246101	-0.028553	-0.064951	-0.014434	-0.876587	0.472290	0.034912	1042	16_15_11_3790000
0.834864	-0.482376	0.245460	-0.020709	-0.073110	-0.003765	-0.876587	0.472290	0.035522	1043	16_15_11_3870000
0.834864	-0.482376	0.244819	-0.012551	-0.068403	0.010355	-0.876587	0.472290	0.036011	1044	16_15_11_3950000
0.835078	-0.482589	0.244392	-0.009727	-0.049263	0.007844	-0.876587	0.472290	0.036499	1045	16_15_11_4030000
0.835078	-0.482589	0.244179	-0.003452	-0.026357	-0.003765	-0.876587	0.472290	0.036743	1046	16_15_11_4110000
0.835078	-0.482589	0.243965	0.003452	-0.037653	-0.000314	-0.876587	0.472290	0.036987	1047	16_15_11_4190000
0.835078	-0.482589	0.243751	-0.003138	-0.021337	0.007531	-0.876465	0.472290	0.037109	1048	16_15_11_4270000
0.835292	-0.482589	0.243751	0.001255	-0.009413	-0.009413	-0.876465	0.472290	0.037231	1049	16_15_11_4350000
0.835292	-0.482376	0.243538	0.007531	-0.018826	-0.009413	-0.876587	0.472290	0.037354	1050	16_15_11_4430000
0.835292	-0.482376	0.243538	0.013179	-0.015061	0.000628	-0.876587	0.472290	0.037354	1051	16_15_11_4510000
0.835292	-0.482376	0.243538	0.011296	-0.003452	-0.008158	-0.876587	0.472168	0.037354	1052	16_15_11_4590000
0.835292	-0.482376	0.243538	0.002824	-0.012865	0.003452	-0.876587	0.472168	0.037354	1053	16_15_11_4670000
0.835292	-0.482376	0.243324	0.000628	-0.001569	-0.000941	-0.876587	0.472168	0.037476	1054	16_15_11_4750000
0.835292	-0.482376	0.243324	-0.024788	-0.007844	-0.005020	-0.876587	0.472168	0.037476	1055	16_15_11_4830000
0.835505	-0.482376	0.243110	-0.026357	0.003765	0.002510	-0.876587	0.472168	0.037598	1056	16_15_11_4910000
0.835505	-0.482376	0.243110	-0.017885	0.002510	0.005020	-0.876587	0.472168	0.037598	1057	16_15_11_4990000
0.835292	-0.482376	0.243110	-0.012237	0.007844	-0.000628	-0.876587	0.472168	0.037598	1058	16_15_11_5070000
0.835292	-0.482376	0.243110	0.011923	0.008786	-0.003765	-0.876587	0.472168	0.037598	1059	16_15_11_5150000
0.835292	-0.482376	0.243324	0.011296	0.012551	-0.002510	-0.876587	0.472168	0.037476	1060	16_15_11_5230000
0.835292	-0.482376	0.243324	0.000941	0.007217	-0.004707	-0.876587	0.472168	0.037354	1061	16_15_11_5310000
0.835505	-0.482376	0.243324	-0.009727	0.001883	-0.012551	-0.876709	0.472046	0.037354	1062	16_15_11_5390000
0.835292	-0.482376	0.243538	-0.017885	0.026985	-0.004079	-0.876709	0.472046	0.037231	1063	16_15_11_5470000
0.835292	-0.482376	0.243538	-0.009727	0.013806	-0.004079	-0.876709	0.472046	0.037109	1064	16_15_11_5550000
0.835292	-0.482376	0.243538	-0.006589	0.005648	0.006275	-0.876709	0.472046	0.037109	1065	16_15_11_5630000
0.835292	-0.482376	0.243538	-0.010355	0.017571	-0.001883	-0.876709	0.472046	0.037109	1066	16_15_11_5710000
0.835292	-0.482376	0.243751	0.005648	0.011923	0.005962	-0.876709	0.472046	0.036987	1067	16_15_11_5790000
0.835292	-0.482376	0.243751	0.012237	0.004393	-0.008472	-0.876709	0.472046	0.036865	1068	16_15_11_5870000
0.835292	-0.482162	0.243751	0.002824	-0.006589	-0.013806	-0.876831	0.471924	0.036865	1069	16_15_11_5950000
0.835292	-0.482162	0.243965	-0.002510	0.021650	-0.006903	-0.876831	0.471924	0.036743	1070	16_15_11_6030000
0.835292	-0.482162	0.243965	-0.005648	0.011296	0.007217	-0.876831	0.471924	0.036621	1071	16_15_11_6110000
0.835292	-0.482162	0.243965	-0.002824	0.007531	0.012551	-0.876831	0.471924	0.036621	1072	16_15_11_6190000
0.835078	-0.482376	0.243965	-0.010668	0.007531	0.010355	-0.876709	0.472046	0.036499	1073	16_15_11_6270000
0.835078	-0.482376	0.244179	-0.004707	0.004707	0.011610	-0.876709	0.472046	0.036499	1074	16_15_11_6350000
0.835078	-0.482589	0.244179	-0.011923	0.009413	0.007531	-0.876709	0.472168	0.036499	1075	16_15_11_6430000
0.835078	-0.482589	0.244179	-0.026985	0.015061	-0.000314	-0.876709	0.472168	0.036499	1076	16_15_11_6510000
0.835078	-0.482589	0.243965	-0.020709	-0.002196	0.002824	-0.876709	0.472168	0.036499	1077	16_15_11_6590000
0.835078	-0.482589	0.243965	-0.013806	0.007844	0.008786	-0.876709	0.472168	0.036499	1078	16_15_11_6670000
0.834864	-0.482803	0.243965	-0.007844	0.018199	0.013806	-0.876587	0.472290	0.036499	1079	16_15_11_6750000
0.834864	-0.482803	0.244179	-0.016003	0.020709	0.021023	-0.876587	0.472412	0.036377	1080	16_15_11_6830000
0.834651	-0.483016	0.244179	0.001255	0.013492	0.013179	-0.876465	0.472534	0.036255	1081	16_15_11_6910000
0.834651	-0.483016	0.244392	0.014120	0.031691	0.011610	-0.876465	0.472534	0.036133	1082	16_15_11_6990000
0.834651	-0.483230	0.244606	0.006589	0.012237	0.009413	-0.876465	0.472656	0.035889	1083	16_15_11_7070000
0.834437	-0.483230	0.244606	0.014434	0.016316	-0.000314	-0.876465	0.472656	0.035767	1084	16_15_11_7150000
0.834437	-0.483230	0.244819	-0.003765	0.014747	-0.000314	-0.876465	0.472656	0.035645	1085	16_15_11_7230000
0.834437	-0.483230	0.244819	-0.016316	0.019454	-0.003765	-0.876465	0.472656	0.035522	1086	16_15_11_7310000
0.834437	-0.483230	0.245033	-0.027612	0.047066	-0.003452	-0.876465	0.472656	0.035400	1087	16_15_11_7390000
0.834437	-0.483230	0.245033	-0.026985	0.022906	0.006589	-0.876465	0.472656	0.035278	1088	16_15_11_7470000
0.834223	-0.483230	0.245247	-0.026357	0.037967	-0.007844	-0.876465	0.472656	0.035156	1089	16_15_11_7550000
0.834223	-0.483230	0.245460	-0.010668	0.037339	0.004079	-0.876465	0.472534	0.034912	1090	16_15_11_7630000
0.834223	-0.483230	0.245674	-0.000941	0.037967	-0.007531	-0.876587	0.472534	0.034668	1091	16_15_11_7710000
0.834223	-0.483230	0.245888	-0.005334	0.031064	-0.013492	-0.876587	0.472534	0.034424	1092	16_15_11_7790000
0.834223	-0.483230	0.246101	-0.002824	0.019140	0.001883	-0.876587	0.472412	0.034302	1093	16_15_11_7870000
0.834010	-0.483230	0.246101	-0.006275	0.021023	-0.000941	-0.876587	0.472412	0.034180	1094	16_15_11_7950000
0.834010	-0.483230	0.246315	-0.010668	0.037653	0.004079	-0.876587	0.472412	0.033936	1095	16_15_11_8030000
0.834010	-0.483230	0.246529	-0.005648	0.032319	0.002510	-0.876587	0.472412	0.033691	1096	16_15_11_8110000
0.833796	-0.483230	0.246742	-0.007217	0.030436	0.003452	-0.876587	0.472534	0.033569	1097	16_15_11_8190000
0.833796	-0.483444	0.246956	-0.005334	0.037339	0.018199	-0.876587	0.472534	0.033325	1098	16_15_11_8270000
0.833583	-0.483444	0.247169	-0.002824	0.037967	0.021650	-0.876587	0.472656	0.033081	1099	16_15_11_8350000
0.833583	-0.483657	0.247383	0.001883	0.025416	0.000000	-0.876465	0.472778	0.032837	1100	16_15_11_8430000
0.833369	-0.483657	0.247383	0.003452	0.017571	0.012865	-0.876465	0.472778	0.032715	1101	16_15_11_8510000
0.833369	-0.483657	0.247597	-0.004707	0.025102	0.009413	-0.876465	0.472900	0.032471	1102	16_15_11_8590000
0.833155	-0.483871	0.247810	-0.010355	0.018826	0.016003	-0.876465	0.472900	0.032349	1103	16_15_11_8670000
0.833155	-0.483871	0.247810	-0.005962	0.014434	0.004707	-0.876465	0.473022	0.032349	1104	16_15_11_8750000
0.833155	-0.483871	0.248024	0.007531	0.014434	0.003452	-0.876343	0.473022	0.032227	1105	16_15_11_8830000
0.833155	-0.483871	0.248024	0.009727	0.011296	0.002824	-0.876343	0.473022	0.032104	1106	16_15_11_8910000
0.833155	-0.483871	0.248024	0.003452	-0.005334	0.003452	-0.876343	0.473145	0.031982	1107	16_15_11_8990000
0.833155	-0.483871	0.248024	-0.004393	-0.006589	0.005020	-0.876343	0.473145	0.031982	1108	16_15_11_9070000
0.833155	-0.483871	0.248024	-0.019454	0.006275	-0.000941	-0.876343	0.473145	0.032104	1109	16_15_11_9150000
0.833155	-0.484085	0.248024	-0.019454	0.005648	0.005648	-0.876343	0.473145	0.032104	1110	16_15_11_9230000
0.832942	-0.484085	0.248024	-0.013806	0.010041	0.009413	-0.876343	0.473145	0.032104	1111	16_15_11_9310000
0.832942	-0.484085	0.248024	-0.000628	0.018513	0.010982	-0.876343	0.473267	0.031982	1112	16_15_11_9390000
0.832942	-0.484298	0.248238	0.000000	0.000941	0.007217	-0.876343	0.473267	0.031982	1113	16_15_11_9470000
0.832942	-0.484298	0.248238	0.009099	0.000314	0.003138	-0.876221	0.473389	0.031860	1114	16_15_11_9550000
0.832942	-0.484298	0.248238	0.002510	-0.000941	-0.002510	-0.876221	0.473389	0.031860	1115	16_15_11_9630000
0.832942	-0.484298	0.248238	-0.010982	-0.000941	-0.001883	-0.876343	0.473267	0.031860	1116	16_15_11_9710000
0.832942	-0.484298	0.248238	-0.009727	0.008472	-0.009727	-0.876343	0.473267	0.031860	1117	16_15_11_9790000
0.832942	-0.484085	0.248238	-0.014434	0.017571	-0.014747	-0.876343	0.473145	0.031860	1118	16_15_11_9870000
0.832942	-0.484085	0.248238	-0.003452	0.001569	0.009413	-0.876343	0.473145	0.031860	1119	16_15_11_9950000
0.832942	-0.484085	0.248238	0.004079	-0.003452	0.000628	-0.876343	0.473145	0.031860	1120	16_15_12_0030000
0.832942	-0.484085	0.248238	0.005648	-0.009099	-0.014120	-0.876343	0.473145	0.031860	1121	16_15_12_0110000
0.832942	-0.484085	0.248238	0.020709	-0.010982	-0.010355	-0.876465	0.473022	0.031860	1122	16_15_12_0190000
0.832942	-0.483871	0.248238	0.005020	-0.007217	-0.001569	-0.876465	0.473022	0.031860	1123	16_15_12_0270000
0.833155	-0.483871	0.248238	-0.003138	0.007531	-0.006903	-0.876465	0.473022	0.031860	1124	16_15_12_0350000
0.833155	-0.483871	0.248238	-0.012551	-0.002824	-0.010041	-0.876465	0.472900	0.031860	1125	16_15_12_0430000
0.833155	-0.483871	0.248024	-0.008786	0.002824	-0.017258	-0.876587	0.472778	0.031860	1126	16_15_12_0510000
0.833155	-0.483871	0.248024	-0.020709	-0.000941	-0.005648	-0.876587	0.472778	0.031860	1127	16_15_12_0590000
0.833155	-0.483871	0.248024	-0.025416	0.020082	0.005020	-0.876587	0.472778	0.031860	1128	16_15_12_0670000
0.833155	-0.483871	0.248024	-0.019140	0.005334	-0.010668	-0.876587	0.472656	0.031860	1129	16_15_12_0750000
0.833155	-0.483871	0.248024	-0.019454	0.016316	-0.019140	-0.876709	0.472534	0.031860	1130	16_15_12_0830000
0.833155	-0.483657	0.248024	-0.026357	0.037025	-0.002510	-0.876709	0.472534	0.031738	1131	16_15_12_0910000
0.833155	-0.483657	0.248238	-0.030436	0.051459	-0.006589	-0.876831	0.472412	0.031616	1132	16_15_12_0990000
0.833155	-0.483871	0.248451	-0.019454	0.044870	-0.001883	-0.876831	0.472412	0.031372	1133	16_15_12_1070000
0.832942	-0.483657	0.248665	-0.008472	0.061186	-0.005648	-0.876831	0.472412	0.031006	1134	16_15_12_1150000
0.832942	-0.483657	0.249092	0.001255	0.064010	-0.004079	-0.876831	0.472412	0.030640	1135	16_15_12_1230000
0.832728	-0.483657	0.249519	-0.007217	0.080326	0.004707	-0.876953	0.472290	0.030151	1136	16_15_12_1310000
