sensor_ID	3337
Accel_X	Accel_Y	Accel_Z	Roll	Pitch	Yaw	Mag_X	Mag_Y	Mag_Z	Count	SysTime
0.187567	0.790643	0.572741	-0.004079	0.000628	-0.002510	-0.486938	-1.003174	-0.672485	0	16_15_03_0270000
0.187567	0.790643	0.572741	-0.003765	-0.005962	0.002824	-0.486938	-1.003174	-0.672607	1	16_15_03_0350000
0.187780	0.790643	0.572741	-0.005020	-0.008786	0.007217	-0.487061	-1.003174	-0.672607	2	16_15_03_0430000
0.187780	0.790643	0.572741	0.000314	-0.000314	-0.005334	-0.487061	-1.003174	-0.672607	3	16_15_03_0510000
0.187780	0.790643	0.572741	-0.002196	0.004393	-0.002196	-0.487061	-1.003174	-0.672607	4	16_15_03_0590000
0.187780	0.790643	0.572741	0.003138	-0.003138	-0.004393	-0.487061	-1.003174	-0.672607	5	16_15_03_0670000
0.187567	0.790857	0.572741	-0.001255	0.015061	-0.009099	-0.486938	-1.003174	-0.672607	6	16_15_03_0750000
0.187567	0.790857	0.572741	0.013492	0.010355	-0.002196	-0.486816	-1.003174	-0.672607	7	16_15_03_0830000
0.187353	0.790857	0.572741	0.000314	0.014747	-0.010355	-0.486694	-1.003296	-0.672607	8	16_15_03_0910000
0.187353	0.790857	0.572741	0.002824	-0.001883	-0.002196	-0.486572	-1.003296	-0.672607	9	16_15_03_0990000
0.187353	0.790857	0.572741	0.008472	-0.002824	-0.008472	-0.486572	-1.003296	-0.672485	10	16_15_03_1070000
0.187353	0.791070	0.572527	0.009099	0.005962	-0.006903	-0.486572	-1.003418	-0.672485	11	16_15_03_1150000
0.187353	0.791070	0.572527	0.002196	0.001255	0.000941	-0.486450	-1.003418	-0.672485	12	16_15_03_1230000
0.187139	0.791070	0.572527	0.011923	0.002824	-0.002510	-0.486450	-1.003540	-0.672363	13	16_15_03_1310000
0.187139	0.791070	0.572527	0.018199	-0.002196	-0.002510	-0.486450	-1.003540	-0.672241	14	16_15_03_1390000
0.187139	0.791284	0.572314	0.008472	0.003138	-0.006589	-0.486450	-1.003662	-0.672241	15	16_15_03_1470000
0.187139	0.791284	0.572314	0.007844	0.010668	-0.000941	-0.486328	-1.003784	-0.672119	16	16_15_03_1550000
0.187139	0.791284	0.572314	-0.001569	0.008472	-0.005334	-0.486206	-1.003784	-0.672119	17	16_15_03_1630000
0.187139	0.791284	0.572314	-0.001255	-0.008472	-0.000314	-0.486206	-1.003784	-0.672119	18	16_15_03_1710000
0.187139	0.791284	0.572314	0.004079	-0.002824	-0.000941	-0.486328	-1.003784	-0.672119	19	16_15_03_1790000
0.187139	0.791284	0.572314	0.007217	-0.000314	0.004393	-0.486328	-1.003784	-0.672119	20	16_15_03_1870000
0.187139	0.791284	0.572100	0.006589	-0.004707	-0.003452	-0.486328	-1.003784	-0.671997	21	16_15_03_1950000
0.187139	0.791284	0.572100	-0.000941	-0.001569	0.004079	-0.486328	-1.003784	-0.671997	22	16_15_03_2030000
0.187139	0.791284	0.572100	-0.007844	-0.001255	-0.010355	-0.486328	-1.003784	-0.671997	23	16_15_03_2110000
0.187139	0.791284	0.572314	-0.013492	0.003452	-0.009727	-0.486206	-1.003784	-0.672119	24	16_15_03_2190000
0.186926	0.791284	0.572314	-0.008158	0.000941	-0.023847	-0.486084	-1.003784	-0.672241	25	16_15_03_2270000
0.186926	0.791284	0.572314	0.002196	0.006589	-0.008786	-0.485962	-1.003906	-0.672241	26	16_15_03_2350000
0.186712	0.791284	0.572314	-0.007217	-0.003765	-0.005962	-0.485840	-1.003906	-0.672241	27	16_15_03_2430000
0.186712	0.791284	0.572314	0.004393	0.004079	-0.003452	-0.485840	-1.003906	-0.672241	28	16_15_03_2510000
0.186712	0.791284	0.572314	-0.003452	-0.008472	-0.007217	-0.485840	-1.003906	-0.672241	29	16_15_03_2590000
0.186712	0.791284	0.572314	-0.006589	-0.001569	-0.016003	-0.485718	-1.003906	-0.672241	30	16_15_03_2670000
0.186499	0.791284	0.572314	-0.006275	0.000000	-0.005020	-0.485718	-1.003906	-0.672363	31	16_15_03_2750000
0.186499	0.791284	0.572314	-0.000941	-0.001569	-0.005648	-0.485596	-1.003906	-0.672363	32	16_15_03_2830000
0.186499	0.791284	0.572314	0.005334	0.003138	0.001569	-0.485596	-1.003906	-0.672363	33	16_15_03_2910000
0.186499	0.791284	0.572314	0.000941	-0.000314	0.007531	-0.485596	-1.003906	-0.672241	34	16_15_03_2990000
0.186499	0.791284	0.572314	0.000628	0.004079	-0.003765	-0.485596	-1.003906	-0.672241	35	16_15_03_3070000
0.186499	0.791284	0.572314	-0.005020	-0.003452	0.005648	-0.485596	-1.003906	-0.672363	36	16_15_03_3150000
0.186499	0.791284	0.572314	-0.011610	-0.001569	-0.004707	-0.485718	-1.003906	-0.672363	37	16_15_03_3230000
0.186499	0.791284	0.572314	-0.006275	-0.001883	0.002196	-0.485718	-1.003784	-0.672485	38	16_15_03_3310000
0.186499	0.791284	0.572314	-0.000628	0.005962	-0.000628	-0.485718	-1.003784	-0.672485	39	16_15_03_3390000
0.186499	0.791284	0.572314	0.002510	-0.008472	-0.001255	-0.485718	-1.003784	-0.672485	40	16_15_03_3470000
0.186712	0.791284	0.572314	-0.004079	-0.009099	-0.004393	-0.485718	-1.003784	-0.672485	41	16_15_03_3550000
0.186712	0.791284	0.572314	-0.004707	-0.005962	0.006275	-0.485718	-1.003784	-0.672485	42	16_15_03_3630000
0.186712	0.791284	0.572527	-0.012551	-0.010982	-0.002824	-0.485840	-1.003784	-0.672485	43	16_15_03_3710000
0.186712	0.791284	0.572527	-0.005962	0.001569	0.001255	-0.485840	-1.003662	-0.672485	44	16_15_03_3790000
0.186712	0.791284	0.572527	-0.003138	0.005962	0.004079	-0.485840	-1.003662	-0.672607	45	16_15_03_3870000
0.186712	0.791284	0.572527	-0.012865	-0.002824	-0.000314	-0.485840	-1.003540	-0.672607	46	16_15_03_3950000
0.186712	0.791070	0.572741	-0.029809	0.002824	0.000941	-0.485840	-1.003540	-0.672852	47	16_15_03_4030000
0.186712	0.791070	0.572741	-0.003138	0.001883	0.002196	-0.485840	-1.003418	-0.672974	48	16_15_03_4110000
0.186712	0.791070	0.572741	-0.001255	0.007217	-0.006903	-0.485840	-1.003418	-0.672974	49	16_15_03_4190000
0.186712	0.791070	0.572741	-0.002824	0.006589	0.005962	-0.485718	-1.003418	-0.672974	50	16_15_03_4270000
0.186712	0.791070	0.572741	-0.005962	0.000941	0.001569	-0.485718	-1.003296	-0.673096	51	16_15_03_4350000
0.186712	0.791070	0.572954	-0.005334	-0.004079	0.001569	-0.485718	-1.003296	-0.673096	52	16_15_03_4430000
0.186712	0.791070	0.572741	0.002824	-0.005648	-0.010355	-0.485718	-1.003296	-0.673096	53	16_15_03_4510000
0.186712	0.791070	0.572741	-0.003138	-0.010355	-0.004393	-0.485718	-1.003296	-0.673096	54	16_15_03_4590000
0.186712	0.791070	0.572741	-0.008158	-0.010041	-0.009099	-0.485718	-1.003296	-0.673096	55	16_15_03_4670000
0.186712	0.790857	0.572954	-0.011923	-0.009727	0.005648	-0.485840	-1.003296	-0.673096	56	16_15_03_4750000
0.186712	0.790857	0.572954	0.000941	-0.018199	-0.000628	-0.485840	-1.003296	-0.673096	57	16_15_03_4830000
0.186926	0.790857	0.572954	-0.004707	-0.005962	-0.000941	-0.485962	-1.003174	-0.673096	58	16_15_03_4910000
0.186926	0.790857	0.572954	-0.005648	0.002510	-0.004393	-0.485962	-1.003174	-0.673096	59	16_15_03_4990000
0.186712	0.790857	0.572954	-0.000628	-0.001569	-0.008158	-0.485840	-1.003174	-0.673096	60	16_15_03_5070000
0.186712	0.790857	0.572954	0.001255	0.000000	-0.009413	-0.485840	-1.003296	-0.673096	61	16_15_03_5150000
0.186712	0.791070	0.572954	0.000314	-0.003138	-0.012237	-0.485718	-1.003296	-0.673096	62	16_15_03_5230000
0.186712	0.791070	0.572954	0.004707	-0.004079	-0.007531	-0.485718	-1.003296	-0.673096	63	16_15_03_5310000
0.186712	0.791070	0.572741	0.010982	-0.004079	0.001883	-0.485718	-1.003418	-0.672974	64	16_15_03_5390000
0.186712	0.791070	0.572741	0.002510	-0.003138	0.001883	-0.485718	-1.003418	-0.672974	65	16_15_03_5470000
0.186712	0.791070	0.572741	-0.018513	0.002824	-0.008786	-0.485718	-1.003418	-0.672974	66	16_15_03_5550000
0.186499	0.791070	0.572954	-0.016316	0.010041	-0.000941	-0.485596	-1.003296	-0.673218	67	16_15_03_5630000
0.186499	0.791070	0.572954	-0.002824	0.000000	0.002510	-0.485596	-1.003296	-0.673218	68	16_15_03_5710000
0.186499	0.790857	0.572954	-0.000941	0.006275	0.001255	-0.485596	-1.003296	-0.673340	69	16_15_03_5790000
0.186499	0.790857	0.572954	-0.001569	-0.004393	0.001569	-0.485596	-1.003174	-0.673340	70	16_15_03_5870000
0.186499	0.791070	0.572954	0.007844	-0.008158	-0.005334	-0.485596	-1.003296	-0.673218	71	16_15_03_5950000
0.186499	0.791070	0.572954	0.008786	-0.001883	0.010982	-0.485718	-1.003296	-0.673218	72	16_15_03_6030000
0.186712	0.791070	0.572741	0.009099	-0.009413	-0.004393	-0.485718	-1.003296	-0.673096	73	16_15_03_6110000
0.186712	0.791070	0.572741	0.002510	0.000000	0.002196	-0.485718	-1.003296	-0.672974	74	16_15_03_6190000
0.186712	0.791070	0.572741	-0.001883	0.000314	0.000000	-0.485718	-1.003296	-0.672974	75	16_15_03_6270000
0.186712	0.791070	0.572741	-0.012551	0.000000	-0.003138	-0.485718	-1.003296	-0.673096	76	16_15_03_6350000
0.186712	0.791070	0.572741	-0.006589	-0.001255	0.000314	-0.485718	-1.003296	-0.673096	77	16_15_03_6430000
0.186712	0.791070	0.572741	0.001255	0.000941	0.000000	-0.485718	-1.003296	-0.673218	78	16_15_03_6510000
0.186712	0.791070	0.572741	0.000314	0.004707	0.001883	-0.485718	-1.003296	-0.673218	79	16_15_03_6590000
0.186712	0.791070	0.572741	-0.000941	0.004079	0.001569	-0.485718	-1.003296	-0.673218	80	16_15_03_6670000
0.186499	0.791070	0.572741	-0.005648	-0.002824	-0.008158	-0.485718	-1.003296	-0.673218	81	16_15_03_6750000
0.186499	0.791070	0.572741	0.003765	-0.004079	0.000314	-0.485718	-1.003296	-0.673218	82	16_15_03_6830000
0.186499	0.791070	0.572741	-0.006589	-0.000314	-0.006589	-0.485718	-1.003296	-0.673218	83	16_15_03_6910000
0.186499	0.791070	0.572741	0.002824	-0.008158	-0.008158	-0.485596	-1.003296	-0.673218	84	16_15_03_6990000
0.186499	0.791070	0.572741	-0.004079	-0.015689	-0.004707	-0.485596	-1.003296	-0.673218	85	16_15_03_7070000
0.186712	0.791070	0.572741	-0.012237	-0.009099	0.001569	-0.485718	-1.003296	-0.673218	86	16_15_03_7150000
0.186712	0.791070	0.572954	-0.007531	-0.020709	-0.002196	-0.485840	-1.003174	-0.673218	87	16_15_03_7230000
0.186712	0.791070	0.572954	0.003452	-0.003765	0.004393	-0.485840	-1.003174	-0.673218	88	16_15_03_7310000
0.186712	0.791070	0.572741	0.007531	0.009727	-0.009727	-0.485840	-1.003174	-0.673218	89	16_15_03_7390000
0.186712	0.791070	0.572741	-0.004393	0.002196	0.002510	-0.485718	-1.003296	-0.673218	90	16_15_03_7470000
0.186712	0.791070	0.572954	-0.006903	0.010982	0.005334	-0.485718	-1.003174	-0.673218	91	16_15_03_7550000
0.186712	0.791070	0.572954	-0.007217	-0.001255	0.005648	-0.485840	-1.003174	-0.673340	92	16_15_03_7630000
0.186712	0.790857	0.572954	-0.011610	-0.005020	0.005962	-0.485840	-1.003052	-0.673340	93	16_15_03_7710000
0.186712	0.790857	0.572954	0.000000	-0.000314	0.010041	-0.485962	-1.003052	-0.673462	94	16_15_03_7790000
0.186926	0.790857	0.572954	-0.001255	0.002824	0.001569	-0.485962	-1.002930	-0.673462	95	16_15_03_7870000
0.186712	0.790857	0.572954	-0.004079	0.011610	-0.006903	-0.485962	-1.002930	-0.673462	96	16_15_03_7950000
0.186712	0.790857	0.572954	0.001883	0.013179	-0.010982	-0.485718	-1.003052	-0.673584	97	16_15_03_8030000
0.186499	0.790857	0.572954	0.002196	0.005962	-0.004393	-0.485718	-1.003052	-0.673584	98	16_15_03_8110000
0.186499	0.791070	0.572954	-0.000941	-0.001883	-0.001883	-0.485596	-1.003052	-0.673584	99	16_15_03_8190000
0.186499	0.791070	0.572954	-0.005648	-0.002824	-0.008786	-0.485596	-1.003052	-0.673584	100	16_15_03_8270000
0.186499	0.790857	0.572954	-0.005962	-0.010355	0.000628	-0.485596	-1.003052	-0.673584	101	16_15_03_8350000
0.186499	0.790857	0.572954	0.003452	-0.007217	0.003765	-0.485718	-1.003052	-0.673584	102	16_15_03_8430000
0.186712	0.791070	0.572954	-0.000314	-0.005020	-0.001883	-0.485718	-1.003052	-0.673584	103	16_15_03_8510000
0.186712	0.791070	0.572954	0.005334	-0.001883	0.002824	-0.485718	-1.003052	-0.673462	104	16_15_03_8590000
0.186712	0.791070	0.572954	0.017258	-0.006275	0.000941	-0.485718	-1.003052	-0.673340	105	16_15_03_8670000
0.186712	0.791070	0.572741	0.009413	-0.007217	0.004707	-0.485840	-1.003174	-0.673218	106	16_15_03_8750000
0.186712	0.791070	0.572741	0.003452	0.008158	0.002510	-0.485840	-1.003174	-0.673218	107	16_15_03_8830000
0.186712	0.791070	0.572741	0.000628	0.010355	0.003452	-0.485840	-1.003174	-0.673218	108	16_15_03_8910000
0.186712	0.791284	0.572741	0.012865	0.010668	0.005648	-0.485840	-1.003174	-0.673218	109	16_15_03_8990000
0.186712	0.791284	0.572527	0.003765	0.006275	-0.002824	-0.485718	-1.003174	-0.673218	110	16_15_03_9070000
0.186499	0.791284	0.572527	0.007844	0.003765	-0.006589	-0.485718	-1.003296	-0.673218	111	16_15_03_9150000
0.186499	0.791284	0.572527	-0.007844	0.006275	0.006903	-0.485718	-1.003296	-0.673218	112	16_15_03_9230000
0.186712	0.791284	0.572527	-0.005648	0.001883	0.009099	-0.485718	-1.003174	-0.673218	113	16_15_03_9310000
0.186712	0.791070	0.572741	-0.014434	0.007844	-0.003138	-0.485718	-1.003174	-0.673340	114	16_15_03_9390000
0.186499	0.791070	0.572741	-0.002510	0.000314	0.006275	-0.485718	-1.003052	-0.673462	115	16_15_03_9470000
0.186499	0.791070	0.572741	-0.009099	0.009099	0.001569	-0.485718	-1.003052	-0.673462	116	16_15_03_9550000
0.186499	0.791070	0.572741	-0.000628	0.013806	0.006903	-0.485718	-1.002930	-0.673584	117	16_15_03_9630000
0.186499	0.791070	0.572741	-0.003138	0.006903	0.011296	-0.485718	-1.002930	-0.673584	118	16_15_03_9710000
0.186712	0.791070	0.572741	0.007217	-0.001255	0.002510	-0.485718	-1.002930	-0.673584	119	16_15_03_9790000
0.186712	0.791070	0.572741	0.000941	0.000941	0.001883	-0.485840	-1.002930	-0.673584	120	16_15_03_9870000
0.186712	0.791070	0.572741	-0.005648	0.005962	0.013179	-0.485840	-1.002930	-0.673584	121	16_15_03_9950000
0.186712	0.791070	0.572741	0.005334	-0.002196	0.003452	-0.485840	-1.002808	-0.673584	122	16_15_04_0030000
0.186712	0.791070	0.572741	0.008472	-0.001255	0.006903	-0.485962	-1.002930	-0.673584	123	16_15_04_0110000
0.186712	0.791070	0.572741	0.003452	-0.003765	0.003138	-0.485962	-1.002930	-0.673462	124	16_15_04_0190000
0.186712	0.791070	0.572741	-0.015689	-0.004079	0.000314	-0.485962	-1.002808	-0.673584	125	16_15_04_0270000
0.186712	0.791070	0.572741	-0.016630	0.009413	-0.007217	-0.485962	-1.002808	-0.673706	126	16_15_04_0350000
0.186712	0.791070	0.572954	-0.016944	-0.006589	0.002510	-0.485962	-1.002686	-0.673828	127	16_15_04_0430000
0.186712	0.791070	0.572954	-0.000628	-0.003452	-0.004393	-0.485962	-1.002686	-0.673828	128	16_15_04_0510000
0.186712	0.791070	0.572954	-0.004393	-0.006903	-0.005020	-0.485962	-1.002686	-0.673828	129	16_15_04_0590000
0.186712	0.791070	0.572954	-0.001255	-0.005648	-0.000941	-0.485962	-1.002686	-0.673828	130	16_15_04_0670000
0.186712	0.791070	0.572954	0.005020	-0.003765	-0.004707	-0.485962	-1.002686	-0.673828	131	16_15_04_0750000
0.186712	0.791070	0.572954	-0.002824	-0.002196	-0.000628	-0.485962	-1.002686	-0.673828	132	16_15_04_0830000
0.186712	0.791070	0.572954	-0.004393	-0.009099	-0.000628	-0.485962	-1.002686	-0.673828	133	16_15_04_0910000
0.186926	0.791070	0.572954	0.000314	-0.003765	-0.004707	-0.485962	-1.002686	-0.673828	134	16_15_04_0990000
0.186926	0.791070	0.572954	-0.003765	-0.010355	0.000314	-0.486084	-1.002686	-0.673828	135	16_15_04_1070000
0.186926	0.791070	0.572954	-0.007217	-0.002196	-0.006275	-0.486084	-1.002563	-0.673828	136	16_15_04_1150000
0.186926	0.790857	0.572954	-0.010982	0.005334	0.002510	-0.485962	-1.002563	-0.673828	137	16_15_04_1230000
0.186926	0.790857	0.572954	-0.008472	-0.002824	0.008158	-0.486084	-1.002563	-0.673950	138	16_15_04_1310000
0.186926	0.790857	0.572954	-0.008472	0.003138	0.011610	-0.486084	-1.002441	-0.674072	139	16_15_04_1390000
0.186926	0.790857	0.572954	-0.005020	0.003138	0.008786	-0.486206	-1.002319	-0.674072	140	16_15_04_1470000
0.186926	0.790857	0.572954	0.003138	0.001883	0.010668	-0.486206	-1.002319	-0.674072	141	16_15_04_1550000
0.186926	0.790857	0.572954	0.001255	0.010355	0.002510	-0.486328	-1.002319	-0.674072	142	16_15_04_1630000
0.186926	0.790857	0.572954	-0.003138	0.003452	-0.003765	-0.486206	-1.002319	-0.674194	143	16_15_04_1710000
0.186926	0.790857	0.573168	-0.004707	0.005648	0.005648	-0.486206	-1.002319	-0.674194	144	16_15_04_1790000
0.186926	0.790857	0.573168	-0.009099	0.006589	0.010982	-0.486206	-1.002197	-0.674316	145	16_15_04_1870000
0.186926	0.790857	0.573168	-0.000314	0.003452	-0.001883	-0.486206	-1.002197	-0.674316	146	16_15_04_1950000
0.186926	0.790643	0.573168	-0.015689	0.000628	-0.000314	-0.486206	-1.002075	-0.674438	147	16_15_04_2030000
0.186926	0.790643	0.573382	-0.021337	0.001255	0.004707	-0.486206	-1.001953	-0.674561	148	16_15_04_2110000
0.186926	0.790643	0.573382	-0.006275	-0.003138	-0.010668	-0.486206	-1.001953	-0.674683	149	16_15_04_2190000
0.186926	0.790643	0.573382	-0.001255	0.003452	-0.003452	-0.486206	-1.001953	-0.674683	150	16_15_04_2270000
0.186926	0.790643	0.573382	-0.006589	-0.001569	-0.006275	-0.486084	-1.001953	-0.674683	151	16_15_04_2350000
0.186926	0.790643	0.573382	-0.003452	0.004707	0.007217	-0.486084	-1.001953	-0.674683	152	16_15_04_2430000
0.186926	0.790643	0.573382	-0.002824	0.010041	-0.006589	-0.486084	-1.001953	-0.674805	153	16_15_04_2510000
0.186712	0.790643	0.573382	-0.001255	0.004707	-0.011610	-0.485962	-1.001953	-0.674805	154	16_15_04_2590000
0.186712	0.790643	0.573382	0.014120	0.012237	-0.011296	-0.485840	-1.001953	-0.674805	155	16_15_04_2670000
0.186499	0.790643	0.573382	0.000314	-0.003765	-0.007217	-0.485718	-1.002075	-0.674805	156	16_15_04_2750000
0.186499	0.790643	0.573382	-0.003138	0.002196	0.001569	-0.485718	-1.002075	-0.674805	157	16_15_04_2830000
0.186499	0.790643	0.573382	0.022592	-0.003452	-0.001883	-0.485718	-1.002075	-0.674683	158	16_15_04_2910000
0.186499	0.790857	0.573168	0.011296	0.001255	-0.002510	-0.485718	-1.002197	-0.674561	159	16_15_04_2990000
0.186499	0.790857	0.573168	0.000000	0.002196	-0.006275	-0.485718	-1.002319	-0.674561	160	16_15_04_3070000
0.186499	0.790857	0.573168	-0.012551	0.000314	-0.004393	-0.485596	-1.002197	-0.674561	161	16_15_04_3150000
0.186499	0.790857	0.573168	0.001883	0.000941	-0.007844	-0.485596	-1.002197	-0.674561	162	16_15_04_3230000
0.186499	0.790857	0.573168	0.005648	-0.001883	0.003765	-0.485596	-1.002319	-0.674561	163	16_15_04_3310000
0.186499	0.790857	0.573168	-0.006589	0.004707	-0.003452	-0.485596	-1.002319	-0.674561	164	16_15_04_3390000
0.186499	0.790857	0.573168	-0.004707	0.002824	0.008472	-0.485596	-1.002197	-0.674683	165	16_15_04_3470000
0.186499	0.790857	0.573168	-0.012237	-0.002824	0.009099	-0.485596	-1.002197	-0.674683	166	16_15_04_3550000
0.186499	0.790857	0.573382	-0.004393	-0.001255	-0.003452	-0.485718	-1.002075	-0.674805	167	16_15_04_3630000
0.186499	0.790857	0.573382	-0.000941	-0.006903	0.002510	-0.485718	-1.002075	-0.674805	168	16_15_04_3710000
0.186499	0.790857	0.573168	0.010355	-0.007531	-0.003452	-0.485718	-1.002075	-0.674683	169	16_15_04_3790000
0.186712	0.790857	0.573168	0.001255	-0.003765	0.004393	-0.485718	-1.002075	-0.674683	170	16_15_04_3870000
0.186712	0.790857	0.573168	-0.004707	-0.007217	-0.006275	-0.485840	-1.002075	-0.674683	171	16_15_04_3950000
0.186499	0.790857	0.573168	0.000314	0.002196	-0.013179	-0.485718	-1.002197	-0.674683	172	16_15_04_4030000
0.186499	0.790857	0.573168	-0.006903	0.004707	0.001883	-0.485718	-1.002197	-0.674683	173	16_15_04_4110000
0.186499	0.790857	0.573168	-0.010355	0.001569	-0.009413	-0.485596	-1.002075	-0.674805	174	16_15_04_4190000
0.186499	0.790643	0.573382	-0.019454	-0.000941	0.001883	-0.485596	-1.002075	-0.674927	175	16_15_04_4270000
0.186499	0.790643	0.573382	-0.014120	0.003452	0.005020	-0.485596	-1.001953	-0.675049	176	16_15_04_4350000
0.186499	0.790643	0.573382	-0.003452	0.001883	0.004079	-0.485596	-1.001831	-0.675049	177	16_15_04_4430000
0.186499	0.790643	0.573595	-0.011610	0.008158	0.001569	-0.485596	-1.001831	-0.675171	178	16_15_04_4510000
0.186499	0.790643	0.573595	0.002196	0.012551	0.013492	-0.485596	-1.001831	-0.675171	179	16_15_04_4590000
0.186499	0.790643	0.573595	0.009727	0.011296	0.001255	-0.485596	-1.001831	-0.675171	180	16_15_04_4670000
0.186499	0.790643	0.573595	0.002510	0.004393	0.000628	-0.485596	-1.001831	-0.675171	181	16_15_04_4750000
0.186499	0.790643	0.573595	-0.004707	0.008786	-0.001883	-0.485596	-1.001831	-0.675293	182	16_15_04_4830000
0.186285	0.790643	0.573595	-0.009099	0.002510	-0.007217	-0.485474	-1.001831	-0.675293	183	16_15_04_4910000
0.186285	0.790643	0.573595	0.009727	0.002824	0.002510	-0.485474	-1.001831	-0.675293	184	16_15_04_4990000
0.186285	0.790643	0.573595	-0.005334	0.000314	0.000628	-0.485474	-1.001831	-0.675293	185	16_15_04_5070000
0.186285	0.790643	0.573595	-0.003138	0.001569	0.000628	-0.485474	-1.001831	-0.675293	186	16_15_04_5150000
0.186285	0.790643	0.573595	0.010668	0.017885	0.004393	-0.485474	-1.001831	-0.675293	187	16_15_04_5230000
0.186285	0.790643	0.573382	0.012865	0.017885	0.008786	-0.485352	-1.001831	-0.675293	188	16_15_04_5310000
0.186285	0.790643	0.573382	0.003138	0.002510	-0.002196	-0.485352	-1.001831	-0.675293	189	16_15_04_5390000
0.186285	0.790643	0.573382	-0.007844	0.007531	-0.001255	-0.485352	-1.001831	-0.675293	190	16_15_04_5470000
0.186071	0.790643	0.573382	-0.007217	0.002824	-0.009099	-0.485229	-1.001831	-0.675415	191	16_15_04_5550000
0.186071	0.790643	0.573595	-0.011923	-0.004707	0.008786	-0.485229	-1.001831	-0.675415	192	16_15_04_5630000
0.186285	0.790643	0.573595	-0.004707	0.007217	0.003765	-0.485352	-1.001709	-0.675537	193	16_15_04_5710000
0.186285	0.790643	0.573595	0.001255	0.002196	0.010982	-0.485352	-1.001709	-0.675537	194	16_15_04_5790000
0.186285	0.790643	0.573595	0.007531	0.009727	0.004079	-0.485352	-1.001709	-0.675537	195	16_15_04_5870000
0.186071	0.790643	0.573595	0.000628	0.017258	-0.005334	-0.485352	-1.001709	-0.675537	196	16_15_04_5950000
0.186071	0.790643	0.573595	0.002824	0.008472	-0.006275	-0.485229	-1.001709	-0.675659	197	16_15_04_6030000
0.186071	0.790643	0.573595	0.000314	0.003452	-0.010668	-0.485107	-1.001831	-0.675659	198	16_15_04_6110000
0.185858	0.790643	0.573595	-0.009413	0.006275	-0.013179	-0.484985	-1.001831	-0.675659	199	16_15_04_6190000
0.185858	0.790643	0.573595	-0.003452	-0.001569	0.012237	-0.484985	-1.001709	-0.675659	200	16_15_04_6270000
0.185858	0.790643	0.573595	0.008786	0.007844	0.001569	-0.484985	-1.001709	-0.675659	201	16_15_04_6350000
0.185858	0.790643	0.573595	-0.001883	0.010041	-0.010041	-0.484863	-1.001831	-0.675659	202	16_15_04_6430000
0.185858	0.790643	0.573595	0.003452	0.001255	0.001255	-0.484863	-1.001831	-0.675659	203	16_15_04_6510000
0.185858	0.790857	0.573595	0.001255	-0.004079	0.007531	-0.484863	-1.001831	-0.675659	204	16_15_04_6590000
0.185858	0.790643	0.573595	-0.003765	-0.004393	-0.000314	-0.484985	-1.001831	-0.675659	205	16_15_04_6670000
0.185858	0.790643	0.573595	-0.010355	-0.005334	-0.001255	-0.484985	-1.001709	-0.675659	206	16_15_04_6750000
0.185858	0.790643	0.573595	0.000941	-0.012237	-0.010668	-0.484985	-1.001709	-0.675781	207	16_15_04_6830000
0.185858	0.790643	0.573595	-0.009099	-0.001255	-0.006275	-0.484985	-1.001709	-0.675781	208	16_15_04_6910000
0.185858	0.790643	0.573595	-0.024161	0.001255	0.001883	-0.484985	-1.001709	-0.675903	209	16_15_04_6990000
0.185858	0.790643	0.573809	-0.024474	0.002510	-0.004079	-0.484863	-1.001587	-0.676025	210	16_15_04_7070000
0.185858	0.790429	0.573809	-0.009727	0.011610	-0.004707	-0.484863	-1.001465	-0.676147	211	16_15_04_7150000
0.185644	0.790429	0.574023	0.003765	0.013492	0.000628	-0.484741	-1.001465	-0.676270	212	16_15_04_7230000
0.185644	0.790429	0.573809	0.001569	0.008786	-0.003138	-0.484741	-1.001465	-0.676270	213	16_15_04_7310000
0.185644	0.790429	0.574023	-0.004079	0.006903	-0.010982	-0.484619	-1.001465	-0.676392	214	16_15_04_7390000
0.185430	0.790429	0.574023	0.000314	0.008786	-0.004393	-0.484497	-1.001465	-0.676392	215	16_15_04_7470000
0.185430	0.790429	0.574023	-0.010355	0.005020	-0.007217	-0.484375	-1.001465	-0.676392	216	16_15_04_7550000
0.185430	0.790429	0.574023	-0.005648	0.007531	-0.003765	-0.484375	-1.001465	-0.676514	217	16_15_04_7630000
0.185430	0.790429	0.574023	-0.005648	-0.007531	-0.005648	-0.484375	-1.001465	-0.676514	218	16_15_04_7710000
0.185430	0.790429	0.574023	-0.010355	-0.006589	0.005020	-0.484375	-1.001465	-0.676636	219	16_15_04_7790000
0.185430	0.790429	0.574236	-0.020395	-0.007217	-0.001883	-0.484375	-1.001343	-0.676636	220	16_15_04_7870000
0.185430	0.790216	0.574236	-0.019454	-0.021337	-0.000628	-0.484497	-1.001221	-0.676758	221	16_15_04_7950000
0.185644	0.790216	0.574236	-0.013806	-0.015375	-0.011296	-0.484497	-1.001221	-0.676880	222	16_15_04_8030000
0.185644	0.790216	0.574450	0.000000	-0.002196	-0.005334	-0.484497	-1.001221	-0.676880	223	16_15_04_8110000
0.185644	0.790216	0.574236	0.004707	-0.006275	0.002196	-0.484497	-1.001221	-0.676880	224	16_15_04_8190000
0.185644	0.790216	0.574236	0.000000	-0.001569	0.000314	-0.484619	-1.001221	-0.676758	225	16_15_04_8270000
0.185644	0.790216	0.574236	0.000628	-0.002196	-0.003138	-0.484619	-1.001221	-0.676758	226	16_15_04_8350000
0.185644	0.790216	0.574236	0.002824	-0.009727	-0.000628	-0.484619	-1.001221	-0.676758	227	16_15_04_8430000
0.185644	0.790429	0.574236	0.001255	-0.001883	-0.017571	-0.484497	-1.001343	-0.676758	228	16_15_04_8510000
0.185430	0.790429	0.574236	0.006903	-0.004079	-0.013179	-0.484375	-1.001343	-0.676636	229	16_15_04_8590000
0.185430	0.790429	0.574023	0.007844	0.013179	-0.002196	-0.484375	-1.001465	-0.676636	230	16_15_04_8670000
0.185430	0.790429	0.574023	0.002824	0.007844	0.006589	-0.484375	-1.001465	-0.676636	231	16_15_04_8750000
0.185430	0.790429	0.574023	0.001569	0.014434	0.004079	-0.484253	-1.001465	-0.676636	232	16_15_04_8830000
0.185217	0.790429	0.574023	0.013179	0.013492	-0.009413	-0.484253	-1.001465	-0.676636	233	16_15_04_8910000
0.185217	0.790643	0.574023	0.005648	0.000314	-0.003765	-0.484131	-1.001587	-0.676636	234	16_15_04_8990000
0.185217	0.790643	0.574023	0.005334	-0.002510	0.000628	-0.484131	-1.001587	-0.676514	235	16_15_04_9070000
0.185217	0.790643	0.573809	0.005648	0.004707	-0.001883	-0.484131	-1.001587	-0.676514	236	16_15_04_9150000
0.185217	0.790643	0.573809	-0.001883	-0.001569	0.009099	-0.484131	-1.001587	-0.676514	237	16_15_04_9230000
0.185217	0.790643	0.573809	0.000628	-0.001883	0.013179	-0.484253	-1.001587	-0.676514	238	16_15_04_9310000
0.185430	0.790643	0.573809	0.008158	0.002196	0.005648	-0.484253	-1.001587	-0.676392	239	16_15_04_9390000
0.185430	0.790643	0.573809	0.005648	0.003765	0.002196	-0.484375	-1.001587	-0.676392	240	16_15_04_9470000
0.185430	0.790643	0.573809	-0.007531	0.001569	-0.003452	-0.484253	-1.001587	-0.676392	241	16_15_04_9550000
0.185217	0.790643	0.573809	0.001255	0.005962	-0.011923	-0.484253	-1.001587	-0.676392	242	16_15_04_9630000
0.185217	0.790643	0.573809	-0.003452	0.014120	-0.000314	-0.484131	-1.001587	-0.676514	243	16_15_04_9710000
0.185217	0.790643	0.573809	-0.017258	0.000000	-0.000628	-0.484131	-1.001587	-0.676636	244	16_15_04_9790000
0.185217	0.790643	0.574023	-0.009413	0.000314	-0.004393	-0.484131	-1.001587	-0.676758	245	16_15_04_9870000
0.185217	0.790643	0.574023	-0.001255	-0.008472	0.001569	-0.484131	-1.001465	-0.676758	246	16_15_04_9950000
0.185217	0.790643	0.574023	-0.004707	-0.003765	0.004079	-0.484131	-1.001465	-0.676758	247	16_15_05_0030000
0.185217	0.790643	0.574023	0.011296	0.001255	0.006275	-0.484253	-1.001465	-0.676636	248	16_15_05_0110000
0.185217	0.790643	0.573809	0.002196	0.003765	0.008786	-0.484253	-1.001465	-0.676636	249	16_15_05_0190000
0.185217	0.790643	0.573809	0.010041	0.001255	0.002510	-0.484253	-1.001465	-0.676636	250	16_15_05_0270000
0.185217	0.790643	0.573809	-0.006589	0.001569	0.000628	-0.484253	-1.001465	-0.676636	251	16_15_05_0350000
0.185217	0.790643	0.573809	0.005648	0.009413	0.009413	-0.484253	-1.001465	-0.676636	252	16_15_05_0430000
0.185430	0.790643	0.573809	-0.002510	-0.006589	0.013806	-0.484375	-1.001465	-0.676636	253	16_15_05_0510000
0.185430	0.790643	0.573809	-0.003138	0.005648	0.004707	-0.484497	-1.001343	-0.676636	254	16_15_05_0590000
0.185430	0.790643	0.573809	0.002196	-0.000628	-0.003138	-0.484497	-1.001343	-0.676636	255	16_15_05_0670000
0.185430	0.790643	0.573809	0.010982	0.000314	0.010041	-0.484497	-1.001465	-0.676636	256	16_15_05_0750000
0.185430	0.790643	0.573809	0.016630	0.007844	0.010668	-0.484497	-1.001465	-0.676514	257	16_15_05_0830000
0.185644	0.790857	0.573595	0.011610	0.002196	0.006589	-0.484619	-1.001465	-0.676392	258	16_15_05_0910000
0.185644	0.790857	0.573595	0.006275	0.005334	0.006903	-0.484619	-1.001465	-0.676392	259	16_15_05_0990000
0.185644	0.790857	0.573595	-0.003138	0.005648	0.014434	-0.484619	-1.001465	-0.676392	260	16_15_05_1070000
0.185644	0.790857	0.573595	0.004707	0.005648	0.005648	-0.484741	-1.001465	-0.676392	261	16_15_05_1150000
0.185644	0.790857	0.573595	-0.002196	0.004707	0.007217	-0.484741	-1.001465	-0.676392	262	16_15_05_1230000
0.185644	0.790857	0.573595	-0.004393	0.004079	0.002196	-0.484741	-1.001343	-0.676392	263	16_15_05_1310000
0.185644	0.790857	0.573595	-0.006589	0.002510	0.003765	-0.484741	-1.001343	-0.676514	264	16_15_05_1390000
0.185644	0.790643	0.573595	-0.001255	0.007844	0.011923	-0.484863	-1.001343	-0.676514	265	16_15_05_1470000
0.185644	0.790643	0.573595	-0.001569	0.007531	0.009413	-0.484863	-1.001221	-0.676514	266	16_15_05_1550000
0.185858	0.790643	0.573595	-0.001569	-0.005334	0.002824	-0.484863	-1.001221	-0.676636	267	16_15_05_1630000
0.185858	0.790643	0.573595	0.006275	0.005648	0.008786	-0.484985	-1.001221	-0.676514	268	16_15_05_1710000
0.185858	0.790643	0.573595	-0.000628	0.008158	0.005020	-0.484985	-1.001221	-0.676514	269	16_15_05_1790000
0.185858	0.790643	0.573595	-0.011610	0.001569	0.008472	-0.484985	-1.001099	-0.676636	270	16_15_05_1870000
0.185858	0.790643	0.573595	-0.013806	-0.009099	-0.000941	-0.484985	-1.001099	-0.676758	271	16_15_05_1950000
0.185858	0.790643	0.573809	0.002196	-0.000628	-0.001569	-0.485107	-1.000977	-0.676758	272	16_15_05_2030000
0.185858	0.790643	0.573809	-0.000628	0.000941	-0.003765	-0.484985	-1.001099	-0.676758	273	16_15_05_2110000
0.185858	0.790643	0.573595	0.002510	0.004079	-0.001569	-0.484985	-1.001099	-0.676758	274	16_15_05_2190000
0.185858	0.790643	0.573595	-0.002510	-0.003138	0.001255	-0.484985	-1.001099	-0.676758	275	16_15_05_2270000
0.185858	0.790643	0.573809	-0.011610	-0.005962	0.000941	-0.484985	-1.000977	-0.676758	276	16_15_05_2350000
0.185858	0.790643	0.573809	-0.003765	0.001255	0.005648	-0.485107	-1.000977	-0.676758	277	16_15_05_2430000
0.185858	0.790429	0.573809	-0.016003	0.004707	0.007531	-0.485107	-1.000854	-0.676880	278	16_15_05_2510000
0.185858	0.790429	0.573809	-0.001255	0.001883	0.000314	-0.485107	-1.000854	-0.677002	279	16_15_05_2590000
0.185858	0.790429	0.573809	-0.001569	-0.002510	0.000628	-0.485107	-1.000854	-0.677002	280	16_15_05_2670000
0.185858	0.790429	0.573809	-0.007531	-0.002510	-0.001255	-0.485107	-1.000732	-0.677002	281	16_15_05_2750000
0.185858	0.790429	0.573809	0.000628	0.007844	0.005334	-0.485107	-1.000732	-0.677002	282	16_15_05_2830000
0.186071	0.790429	0.573809	0.000941	0.000941	0.011923	-0.485229	-1.000732	-0.677002	283	16_15_05_2910000
0.186071	0.790429	0.573809	-0.006589	0.009413	0.010982	-0.485229	-1.000732	-0.677124	284	16_15_05_2990000
0.186071	0.790429	0.574023	-0.006275	0.006589	0.010982	-0.485352	-1.000610	-0.677124	285	16_15_05_3070000
0.186071	0.790429	0.574023	-0.000628	0.008786	0.017258	-0.485352	-1.000488	-0.677246	286	16_15_05_3150000
0.186285	0.790429	0.574023	0.007844	-0.001883	0.012865	-0.485474	-1.000488	-0.677246	287	16_15_05_3230000
0.186285	0.790429	0.573809	0.015061	-0.008472	0.011610	-0.485596	-1.000488	-0.677124	288	16_15_05_3310000
0.186499	0.790429	0.573809	0.012551	-0.002196	0.014747	-0.485718	-1.000488	-0.677002	289	16_15_05_3390000
0.186499	0.790429	0.573809	-0.001255	0.001569	0.005648	-0.485840	-1.000488	-0.676880	290	16_15_05_3470000
0.186499	0.790429	0.573809	-0.004393	-0.003765	0.012551	-0.485962	-1.000488	-0.676880	291	16_15_05_3550000
0.186712	0.790429	0.573809	-0.011296	0.001883	0.005962	-0.485962	-1.000366	-0.677002	292	16_15_05_3630000
0.186712	0.790429	0.573809	-0.013492	0.003138	0.007217	-0.486084	-1.000244	-0.677124	293	16_15_05_3710000
0.186712	0.790429	0.573809	-0.008472	-0.001255	0.010668	-0.486084	-1.000244	-0.677124	294	16_15_05_3790000
0.186712	0.790216	0.573809	0.003138	0.006275	0.009727	-0.486206	-1.000122	-0.677246	295	16_15_05_3870000
0.186712	0.790429	0.573809	0.009727	0.006903	-0.008472	-0.486084	-1.000244	-0.677124	296	16_15_05_3950000
0.186712	0.790429	0.573809	0.000628	-0.002196	0.004707	-0.486084	-1.000244	-0.677124	297	16_15_05_4030000
0.186712	0.790429	0.573809	-0.003452	0.003452	0.003452	-0.486084	-1.000244	-0.677124	298	16_15_05_4110000
0.186712	0.790429	0.573809	0.003765	0.001255	-0.000628	-0.486084	-1.000244	-0.677124	299	16_15_05_4190000
0.186712	0.790429	0.573809	-0.003138	0.007217	-0.004393	-0.486084	-1.000244	-0.677124	300	16_15_05_4270000
0.186712	0.790429	0.573809	-0.002824	0.000628	0.012551	-0.486084	-1.000122	-0.677246	301	16_15_05_4350000
0.186712	0.790429	0.573809	0.003138	0.004079	-0.005334	-0.486084	-1.000122	-0.677246	302	16_15_05_4430000
0.186712	0.790429	0.573809	0.013179	-0.004079	-0.002510	-0.486084	-1.000244	-0.677124	303	16_15_05_4510000
0.186712	0.790429	0.573809	-0.004707	0.003452	0.000628	-0.486084	-1.000244	-0.677124	304	16_15_05_4590000
0.186712	0.790429	0.573809	0.010668	0.005648	0.002196	-0.486084	-1.000244	-0.677124	305	16_15_05_4670000
0.186712	0.790429	0.573595	0.004393	0.001883	-0.002824	-0.486084	-1.000244	-0.677002	306	16_15_05_4750000
0.186712	0.790429	0.573595	0.003138	0.018826	0.006275	-0.485962	-1.000366	-0.677124	307	16_15_05_4830000
0.186499	0.790429	0.573595	0.010982	0.010355	-0.005962	-0.485962	-1.000366	-0.677124	308	16_15_05_4910000
0.186499	0.790429	0.573595	-0.010982	-0.005334	-0.003452	-0.485962	-1.000366	-0.677124	309	16_15_05_4990000
0.186499	0.790429	0.573809	-0.017571	0.007217	0.007531	-0.485962	-1.000244	-0.677246	310	16_15_05_5070000
0.186499	0.790429	0.573809	-0.010982	0.000628	0.012865	-0.485962	-1.000122	-0.677368	311	16_15_05_5150000
0.186712	0.790429	0.573809	-0.014120	0.009727	0.011923	-0.486084	-1.000000	-0.677368	312	16_15_05_5230000
0.186712	0.790216	0.573809	0.002510	0.006589	-0.001255	-0.486084	-1.000000	-0.677490	313	16_15_05_5310000
0.186712	0.790216	0.573809	-0.003452	-0.003452	0.005962	-0.486084	-1.000000	-0.677490	314	16_15_05_5390000
0.186712	0.790216	0.574023	-0.015061	-0.008786	-0.002824	-0.486084	-0.999878	-0.677612	315	16_15_05_5470000
0.186712	0.790216	0.574023	-0.012237	0.000941	0.000941	-0.486084	-0.999878	-0.677612	316	16_15_05_5550000
0.186712	0.790216	0.574023	-0.009727	0.003138	-0.001255	-0.486084	-0.999756	-0.677734	317	16_15_05_5630000
0.186712	0.790216	0.574023	-0.002510	0.003765	0.003138	-0.486084	-0.999756	-0.677734	318	16_15_05_5710000
0.186712	0.790216	0.574023	0.002824	-0.005962	-0.003138	-0.486084	-0.999756	-0.677734	319	16_15_05_5790000
0.186712	0.790216	0.574023	-0.007217	0.002510	-0.004079	-0.486084	-0.999756	-0.677734	320	16_15_05_5870000
0.186712	0.790216	0.574236	-0.005334	0.008158	-0.004079	-0.486084	-0.999756	-0.677856	321	16_15_05_5950000
0.186499	0.790216	0.574236	-0.013179	0.001883	0.002510	-0.485962	-0.999756	-0.677979	322	16_15_05_6030000
0.186712	0.790002	0.574236	0.003765	0.001255	0.009413	-0.486084	-0.999634	-0.677979	323	16_15_05_6110000
0.186712	0.790002	0.574236	0.003138	0.006589	-0.002510	-0.486084	-0.999634	-0.677979	324	16_15_05_6190000
0.186499	0.790002	0.574236	-0.021650	0.000941	-0.000314	-0.485962	-0.999634	-0.678101	325	16_15_05_6270000
0.186499	0.790002	0.574236	-0.013492	-0.004393	-0.005962	-0.485962	-0.999512	-0.678223	326	16_15_05_6350000
0.186499	0.790002	0.574450	-0.013492	-0.002196	-0.004707	-0.485962	-0.999512	-0.678223	327	16_15_05_6430000
0.186499	0.790002	0.574450	-0.001569	0.000314	0.007217	-0.485962	-0.999390	-0.678345	328	16_15_05_6510000
0.186712	0.790002	0.574450	0.000000	-0.000941	0.003138	-0.486084	-0.999390	-0.678345	329	16_15_05_6590000
0.186499	0.790002	0.574450	0.004393	0.000314	-0.007531	-0.486084	-0.999390	-0.678345	330	16_15_05_6670000
0.186499	0.790002	0.574450	0.005962	0.000000	-0.006903	-0.485962	-0.999512	-0.678223	331	16_15_05_6750000
0.186499	0.790002	0.574236	0.011610	0.009727	0.000314	-0.485962	-0.999512	-0.678223	332	16_15_05_6830000
0.186499	0.790002	0.574236	-0.001255	0.002824	0.006589	-0.485962	-0.999512	-0.678223	333	16_15_05_6910000
0.186499	0.790002	0.574236	0.005020	-0.000941	-0.005648	-0.485962	-0.999512	-0.678223	334	16_15_05_6990000
0.186499	0.790002	0.574236	-0.002510	-0.006275	-0.009413	-0.485840	-0.999634	-0.678101	335	16_15_05_7070000
0.186499	0.790216	0.574236	0.005962	-0.004707	-0.006275	-0.485840	-0.999634	-0.678101	336	16_15_05_7150000
0.186499	0.790216	0.574236	0.000000	-0.007531	0.000314	-0.485840	-0.999634	-0.678101	337	16_15_05_7230000
0.186499	0.790216	0.574236	0.001255	0.002510	0.011610	-0.485962	-0.999634	-0.678101	338	16_15_05_7310000
0.186499	0.790216	0.574236	-0.000314	0.005020	0.001883	-0.485962	-0.999634	-0.678101	339	16_15_05_7390000
0.186499	0.790216	0.574236	-0.004393	-0.004079	-0.000314	-0.485962	-0.999634	-0.678101	340	16_15_05_7470000
0.186499	0.790002	0.574236	-0.010355	-0.004707	-0.004079	-0.485962	-0.999634	-0.678101	341	16_15_05_7550000
0.186499	0.790002	0.574236	-0.011296	0.001569	-0.006275	-0.485962	-0.999512	-0.678223	342	16_15_05_7630000
0.186499	0.790002	0.574236	-0.009727	-0.005334	-0.006903	-0.485962	-0.999512	-0.678223	343	16_15_05_7710000
0.186499	0.790002	0.574450	-0.005648	-0.005962	-0.011610	-0.485840	-0.999512	-0.678345	344	16_15_05_7790000
0.186499	0.790002	0.574450	-0.000314	0.000628	-0.010982	-0.485840	-0.999512	-0.678345	345	16_15_05_7870000
0.186499	0.790002	0.574450	-0.007531	-0.005334	-0.005962	-0.485718	-0.999512	-0.678345	346	16_15_05_7950000
0.186285	0.790002	0.574450	0.003452	-0.001255	-0.010041	-0.485718	-0.999512	-0.678345	347	16_15_05_8030000
0.186285	0.790002	0.574450	-0.002510	-0.009727	-0.014434	-0.485596	-0.999634	-0.678345	348	16_15_05_8110000
0.186285	0.790002	0.574450	-0.008158	-0.007217	-0.011610	-0.485596	-0.999634	-0.678345	349	16_15_05_8190000
0.186285	0.790002	0.574450	0.003138	-0.000314	-0.005648	-0.485596	-0.999634	-0.678345	350	16_15_05_8270000
0.186285	0.790002	0.574450	-0.010668	-0.009413	-0.007217	-0.485474	-0.999634	-0.678345	351	16_15_05_8350000
0.186285	0.790002	0.574450	-0.007844	-0.010982	-0.017571	-0.485474	-0.999634	-0.678345	352	16_15_05_8430000
0.186071	0.790002	0.574450	-0.005020	0.005334	-0.006275	-0.485352	-0.999634	-0.678345	353	16_15_05_8510000
0.186071	0.790002	0.574450	-0.000628	-0.007217	-0.001255	-0.485352	-0.999634	-0.678345	354	16_15_05_8590000
0.186071	0.790002	0.574450	0.000314	0.001883	0.006275	-0.485474	-0.999634	-0.678345	355	16_15_05_8670000
0.186071	0.790002	0.574450	0.009413	0.005020	0.004393	-0.485474	-0.999634	-0.678345	356	16_15_05_8750000
0.186285	0.790002	0.574236	0.009727	0.002510	0.009413	-0.485474	-0.999634	-0.678345	357	16_15_05_8830000
0.186285	0.790216	0.574236	0.004393	-0.001255	-0.003452	-0.485474	-0.999756	-0.678223	358	16_15_05_8910000
0.186071	0.790216	0.574236	0.002824	-0.002510	-0.004707	-0.485474	-0.999756	-0.678223	359	16_15_05_8990000
0.186071	0.790216	0.574236	0.002824	-0.000314	-0.004393	-0.485474	-0.999756	-0.678223	360	16_15_05_9070000
0.186071	0.790216	0.574236	0.000314	-0.000628	-0.001883	-0.485474	-0.999756	-0.678101	361	16_15_05_9150000
0.186071	0.790216	0.574236	0.014120	-0.009727	-0.004707	-0.485474	-0.999878	-0.678101	362	16_15_05_9230000
0.186071	0.790216	0.574023	0.003452	-0.003765	0.000000	-0.485474	-0.999878	-0.677979	363	16_15_05_9310000
0.186285	0.790429	0.574023	0.000628	-0.003452	0.007531	-0.485474	-0.999878	-0.677979	364	16_15_05_9390000
0.186285	0.790216	0.574023	-0.006903	-0.001569	-0.000941	-0.485596	-0.999878	-0.677979	365	16_15_05_9470000
0.186071	0.790216	0.574023	-0.010041	0.001569	-0.015689	-0.485474	-0.999878	-0.677979	366	16_15_05_9550000
0.186071	0.790216	0.574236	0.001883	0.002510	-0.003765	-0.485352	-0.999878	-0.678101	367	16_15_05_9630000
0.186071	0.790216	0.574023	-0.002510	-0.005334	0.001569	-0.485352	-0.999878	-0.678101	368	16_15_05_9710000
0.186071	0.790216	0.574023	-0.001255	-0.005020	0.002196	-0.485474	-0.999878	-0.678101	369	16_15_05_9790000
0.186071	0.790216	0.574023	0.005020	0.004393	0.000941	-0.485474	-0.999878	-0.677979	370	16_15_05_9870000
0.186071	0.790216	0.574023	-0.003765	0.000000	-0.001569	-0.485474	-0.999878	-0.677979	371	16_15_05_9950000
0.186071	0.790429	0.574023	0.002824	-0.002510	-0.006275	-0.485474	-0.999878	-0.677979	372	16_15_06_0030000
0.186071	0.790429	0.574023	0.003452	-0.000941	-0.008786	-0.485352	-0.999878	-0.677979	373	16_15_06_0110000
0.186071	0.790429	0.574023	0.005020	-0.005334	-0.007217	-0.485352	-1.000000	-0.677979	374	16_15_06_0190000
0.186071	0.790429	0.574023	0.002824	0.001883	0.007217	-0.485352	-1.000000	-0.677856	375	16_15_06_0270000
0.186071	0.790429	0.574023	-0.000628	-0.001569	0.000314	-0.485352	-1.000000	-0.677856	376	16_15_06_0350000
0.186071	0.790429	0.574023	0.000941	-0.002824	-0.010982	-0.485352	-1.000000	-0.677856	377	16_15_06_0430000
0.186071	0.790429	0.574023	-0.008472	-0.004079	-0.002196	-0.485352	-1.000000	-0.677856	378	16_15_06_0510000
0.186071	0.790429	0.574023	-0.011296	-0.002510	-0.005962	-0.485352	-1.000000	-0.677979	379	16_15_06_0590000
0.186071	0.790429	0.574023	-0.008472	-0.002510	-0.001255	-0.485352	-1.000000	-0.677979	380	16_15_06_0670000
0.186071	0.790216	0.574023	-0.000314	-0.005962	-0.006275	-0.485229	-0.999878	-0.677979	381	16_15_06_0750000
0.186071	0.790216	0.574023	-0.007531	-0.007217	0.001255	-0.485352	-0.999878	-0.677979	382	16_15_06_0830000
0.186071	0.790216	0.574236	-0.010041	-0.004079	0.006589	-0.485352	-0.999878	-0.678101	383	16_15_06_0910000
0.186071	0.790216	0.574236	0.000628	-0.001255	-0.005648	-0.485352	-0.999878	-0.678101	384	16_15_06_0990000
0.186071	0.790216	0.574023	0.001255	-0.002824	-0.009413	-0.485352	-0.999878	-0.678101	385	16_15_06_1070000
0.186071	0.790216	0.574023	-0.004393	-0.006903	-0.009413	-0.485352	-0.999878	-0.678101	386	16_15_06_1150000
0.186071	0.790216	0.574023	-0.003138	-0.012865	-0.008158	-0.485229	-0.999878	-0.678101	387	16_15_06_1230000
0.186071	0.790429	0.574023	0.005962	-0.009727	-0.015375	-0.485229	-1.000000	-0.677979	388	16_15_06_1310000
0.186071	0.790429	0.574023	0.015689	-0.013806	-0.011296	-0.485229	-1.000122	-0.677856	389	16_15_06_1390000
0.186071	0.790429	0.573809	0.001883	-0.008472	-0.005648	-0.485229	-1.000122	-0.677734	390	16_15_06_1470000
0.186071	0.790429	0.573809	-0.002510	-0.012237	-0.003765	-0.485229	-1.000122	-0.677734	391	16_15_06_1550000
0.186071	0.790429	0.573809	0.000000	-0.004393	-0.002510	-0.485229	-1.000244	-0.677734	392	16_15_06_1630000
0.186071	0.790429	0.573809	-0.008158	-0.007217	0.001255	-0.485229	-1.000122	-0.677734	393	16_15_06_1710000
0.186071	0.790429	0.574023	-0.020709	-0.000628	0.011296	-0.485352	-1.000122	-0.677856	394	16_15_06_1790000
0.186071	0.790429	0.574023	-0.008158	0.000941	0.009727	-0.485474	-1.000000	-0.677856	395	16_15_06_1870000
0.186285	0.790216	0.574023	0.001883	-0.003138	0.010355	-0.485474	-0.999878	-0.677979	396	16_15_06_1950000
0.186285	0.790429	0.574023	0.018513	-0.002510	0.009413	-0.485596	-0.999878	-0.677856	397	16_15_06_2030000
0.186285	0.790429	0.573809	0.000314	0.002510	0.006589	-0.485718	-0.999878	-0.677734	398	16_15_06_2110000
0.186285	0.790429	0.573809	0.001255	0.001883	-0.003452	-0.485718	-0.999878	-0.677734	399	16_15_06_2190000
0.186285	0.790429	0.573809	0.003138	0.003138	0.005020	-0.485718	-1.000000	-0.677734	400	16_15_06_2270000
0.186285	0.790429	0.573809	0.009099	0.006589	-0.001255	-0.485718	-1.000000	-0.677734	401	16_15_06_2350000
0.186285	0.790429	0.573809	-0.002196	0.009099	-0.000314	-0.485596	-1.000000	-0.677734	402	16_15_06_2430000
0.186285	0.790429	0.573809	-0.002196	0.008786	-0.002196	-0.485596	-1.000000	-0.677734	403	16_15_06_2510000
0.186285	0.790429	0.573809	-0.003765	0.004079	0.016003	-0.485596	-1.000000	-0.677856	404	16_15_06_2590000
0.186285	0.790429	0.573809	-0.016944	-0.001569	0.011296	-0.485718	-0.999878	-0.677856	405	16_15_06_2670000
0.186499	0.790216	0.574023	-0.013179	-0.005020	0.013179	-0.485840	-0.999756	-0.677979	406	16_15_06_2750000
0.186499	0.790216	0.574023	-0.017258	-0.003138	0.002824	-0.485840	-0.999634	-0.678101	407	16_15_06_2830000
0.186499	0.790216	0.574023	-0.003138	0.005648	0.005648	-0.485962	-0.999512	-0.678223	408	16_15_06_2910000
0.186499	0.790216	0.574023	0.006903	0.002510	-0.000314	-0.485962	-0.999512	-0.678223	409	16_15_06_2990000
0.186499	0.790216	0.574023	0.007844	-0.000314	0.000941	-0.485962	-0.999512	-0.678101	410	16_15_06_3070000
0.186499	0.790216	0.574023	-0.003765	-0.001883	-0.001569	-0.485962	-0.999634	-0.678101	411	16_15_06_3150000
0.186499	0.790216	0.574023	-0.007844	-0.002510	0.005334	-0.485962	-0.999512	-0.678101	412	16_15_06_3230000
0.186499	0.790216	0.574023	-0.013492	-0.011296	0.002824	-0.485962	-0.999512	-0.678223	413	16_15_06_3310000
0.186712	0.790216	0.574236	0.000941	-0.006589	0.003452	-0.486084	-0.999390	-0.678223	414	16_15_06_3390000
0.186712	0.790216	0.574236	-0.003765	0.001255	0.003765	-0.486084	-0.999390	-0.678223	415	16_15_06_3470000
0.186712	0.790216	0.574023	0.000314	-0.012865	0.008158	-0.486206	-0.999390	-0.678223	416	16_15_06_3550000
0.186712	0.790216	0.574023	0.003138	0.002510	0.005648	-0.486328	-0.999390	-0.678101	417	16_15_06_3630000
0.186712	0.790216	0.574023	-0.004393	-0.001569	-0.001883	-0.486328	-0.999390	-0.678101	418	16_15_06_3710000
0.186712	0.790216	0.574023	-0.000628	0.003138	0.004707	-0.486328	-0.999390	-0.678223	419	16_15_06_3790000
0.186926	0.790216	0.574023	0.009727	-0.006589	0.004707	-0.486328	-0.999390	-0.678101	420	16_15_06_3870000
0.186926	0.790216	0.574023	0.003765	-0.006589	-0.001883	-0.486450	-0.999390	-0.678101	421	16_15_06_3950000
0.186926	0.790216	0.574023	0.004707	-0.001883	-0.000941	-0.486450	-0.999390	-0.677979	422	16_15_06_4030000
0.186926	0.790216	0.574023	0.005648	0.006589	0.000628	-0.486450	-0.999390	-0.677979	423	16_15_06_4110000
0.186926	0.790216	0.574023	-0.001255	0.007844	0.003452	-0.486328	-0.999390	-0.677979	424	16_15_06_4190000
0.186926	0.790216	0.574023	0.002510	0.010041	-0.000941	-0.486328	-0.999390	-0.677979	425	16_15_06_4270000
0.186712	0.790216	0.573809	0.002824	0.009727	0.001255	-0.486328	-0.999390	-0.677979	426	16_15_06_4350000
0.186712	0.790216	0.573809	0.005648	0.009099	0.008158	-0.486328	-0.999390	-0.677979	427	16_15_06_4430000
0.186712	0.790216	0.573809	-0.004707	0.003138	0.005020	-0.486328	-0.999390	-0.677979	428	16_15_06_4510000
0.186712	0.790216	0.573809	-0.000314	0.010668	0.016003	-0.486328	-0.999390	-0.678101	429	16_15_06_4590000
0.186926	0.790216	0.573809	0.002824	0.005648	-0.001569	-0.486328	-0.999390	-0.678101	430	16_15_06_4670000
0.186712	0.790216	0.573809	-0.006275	0.011610	-0.000941	-0.486328	-0.999390	-0.678101	431	16_15_06_4750000
0.186712	0.790216	0.574023	0.000628	0.002510	-0.007531	-0.486206	-0.999390	-0.678223	432	16_15_06_4830000
0.186712	0.790216	0.574023	-0.013492	0.009413	-0.006275	-0.486206	-0.999390	-0.678223	433	16_15_06_4910000
0.186499	0.790216	0.574023	-0.004393	0.011923	-0.005334	-0.486084	-0.999268	-0.678345	434	16_15_06_4990000
0.186499	0.790216	0.574023	-0.002196	0.011923	-0.002196	-0.485962	-0.999268	-0.678467	435	16_15_06_5070000
0.186499	0.790216	0.574023	0.014120	0.005334	0.006589	-0.485962	-0.999390	-0.678345	436	16_15_06_5150000
0.186499	0.790429	0.574023	0.012237	0.002824	0.018199	-0.485962	-0.999390	-0.678345	437	16_15_06_5230000
0.186499	0.790429	0.573809	0.011296	0.017571	0.021650	-0.486084	-0.999390	-0.678223	438	16_15_06_5310000
0.186712	0.790429	0.573809	0.005962	0.017571	0.022906	-0.486206	-0.999268	-0.678223	439	16_15_06_5390000
0.186712	0.790429	0.573809	0.018513	0.019768	0.020395	-0.486206	-0.999268	-0.678223	440	16_15_06_5470000
0.186712	0.790643	0.573595	0.023847	0.022906	0.015689	-0.486328	-0.999390	-0.678101	441	16_15_06_5550000
0.186712	0.790643	0.573595	0.017258	0.015375	0.012237	-0.486328	-0.999390	-0.678101	442	16_15_06_5630000
0.186712	0.790643	0.573382	0.013492	0.018199	0.005648	-0.486328	-0.999390	-0.677979	443	16_15_06_5710000
0.186712	0.790643	0.573382	0.014434	0.019768	0.010355	-0.486206	-0.999512	-0.677979	444	16_15_06_5790000
0.186712	0.790857	0.573382	0.007217	0.016316	0.008786	-0.486206	-0.999512	-0.677979	445	16_15_06_5870000
0.186712	0.790857	0.573382	0.010041	0.010355	0.012865	-0.486206	-0.999512	-0.677856	446	16_15_06_5950000
0.186712	0.790857	0.573382	0.010041	0.010982	0.006275	-0.486206	-0.999512	-0.677856	447	16_15_06_6030000
0.186712	0.790857	0.573168	0.010355	0.004707	0.000628	-0.486206	-0.999512	-0.677856	448	16_15_06_6110000
0.186712	0.790857	0.573168	0.001569	0.009099	0.002196	-0.486206	-0.999634	-0.677856	449	16_15_06_6190000
0.186499	0.790857	0.573168	0.000941	0.006903	-0.005334	-0.486206	-0.999634	-0.677856	450	16_15_06_6270000
0.186499	0.790857	0.573168	-0.002196	0.005962	0.004079	-0.486084	-0.999634	-0.677856	451	16_15_06_6350000
0.186499	0.790857	0.573168	-0.004707	0.001883	-0.004079	-0.486084	-0.999634	-0.677856	452	16_15_06_6430000
0.186499	0.790857	0.573168	-0.002196	0.002196	-0.007217	-0.486084	-0.999634	-0.677856	453	16_15_06_6510000
0.186499	0.790857	0.573382	-0.010982	0.009099	-0.008472	-0.485962	-0.999634	-0.677979	454	16_15_06_6590000
0.186285	0.790857	0.573382	-0.010982	0.006903	-0.008472	-0.485840	-0.999512	-0.678101	455	16_15_06_6670000
0.186285	0.790857	0.573382	-0.015689	-0.003765	-0.005962	-0.485840	-0.999512	-0.678223	456	16_15_06_6750000
0.186285	0.790643	0.573595	-0.008158	-0.006903	-0.019140	-0.485718	-0.999512	-0.678223	457	16_15_06_6830000
0.186285	0.790643	0.573595	-0.016003	-0.023219	-0.021337	-0.485596	-0.999512	-0.678345	458	16_15_06_6910000
0.186071	0.790643	0.573595	-0.012237	-0.010668	-0.016630	-0.485596	-0.999512	-0.678345	459	16_15_06_6990000
0.186071	0.790643	0.573595	-0.014747	-0.014434	-0.014120	-0.485596	-0.999512	-0.678345	460	16_15_06_7070000
0.186071	0.790643	0.573809	-0.007531	-0.004707	-0.015689	-0.485474	-0.999512	-0.678467	461	16_15_06_7150000
0.186071	0.790643	0.573809	-0.009413	-0.015061	-0.008472	-0.485474	-0.999512	-0.678467	462	16_15_06_7230000
0.186071	0.790643	0.573809	0.000628	-0.015061	-0.015689	-0.485474	-0.999512	-0.678467	463	16_15_06_7310000
0.186071	0.790643	0.573809	0.000000	-0.012237	-0.017885	-0.485352	-0.999634	-0.678345	464	16_15_06_7390000
0.186071	0.790643	0.573595	0.003138	-0.001883	0.005334	-0.485352	-0.999634	-0.678345	465	16_15_06_7470000
0.186071	0.790643	0.573595	-0.006275	-0.004079	-0.001255	-0.485352	-0.999634	-0.678345	466	16_15_06_7550000
0.186071	0.790643	0.573595	0.000314	-0.002510	-0.003138	-0.485352	-0.999634	-0.678345	467	16_15_06_7630000
0.186071	0.790643	0.573595	-0.008786	-0.008472	0.000000	-0.485474	-0.999634	-0.678345	468	16_15_06_7710000
0.186071	0.790643	0.573595	0.001255	-0.008158	0.004707	-0.485474	-0.999512	-0.678345	469	16_15_06_7790000
0.186071	0.790643	0.573595	-0.006903	-0.010041	0.000941	-0.485596	-0.999512	-0.678345	470	16_15_06_7870000
0.186071	0.790643	0.573809	-0.009099	-0.008472	0.000628	-0.485596	-0.999512	-0.678345	471	16_15_06_7950000
0.186071	0.790643	0.573809	0.007531	0.001883	-0.000941	-0.485596	-0.999512	-0.678345	472	16_15_06_8030000
0.186071	0.790643	0.573595	0.009413	0.004707	0.001255	-0.485596	-0.999512	-0.678345	473	16_15_06_8110000
0.186071	0.790643	0.573595	0.003452	-0.007531	-0.000941	-0.485596	-0.999512	-0.678223	474	16_15_06_8190000
0.186071	0.790643	0.573595	0.002510	0.002510	-0.005648	-0.485596	-0.999634	-0.678223	475	16_15_06_8270000
0.186071	0.790857	0.573595	0.010355	-0.005648	0.000314	-0.485596	-0.999634	-0.678223	476	16_15_06_8350000
0.186071	0.790857	0.573595	-0.005334	0.000314	-0.000941	-0.485596	-0.999634	-0.678101	477	16_15_06_8430000
0.186071	0.790857	0.573595	-0.005334	-0.004079	0.000941	-0.485596	-0.999634	-0.678223	478	16_15_06_8510000
0.186285	0.790643	0.573595	-0.010668	0.000941	0.003138	-0.485596	-0.999634	-0.678223	479	16_15_06_8590000
0.186285	0.790643	0.573595	-0.013179	-0.008786	0.007531	-0.485718	-0.999512	-0.678345	480	16_15_06_8670000
0.186285	0.790643	0.573809	-0.019454	-0.005648	-0.004393	-0.485718	-0.999390	-0.678345	481	16_15_06_8750000
0.186285	0.790643	0.573809	-0.007531	-0.001883	-0.001255	-0.485718	-0.999390	-0.678467	482	16_15_06_8830000
0.186285	0.790429	0.573809	-0.007531	0.002510	-0.004079	-0.485718	-0.999268	-0.678589	483	16_15_06_8910000
0.186285	0.790429	0.573809	0.005020	0.003765	-0.003138	-0.485718	-0.999268	-0.678589	484	16_15_06_8990000
0.186285	0.790643	0.573809	0.005962	-0.004393	0.009099	-0.485718	-0.999390	-0.678467	485	16_15_06_9070000
0.186285	0.790643	0.573809	-0.004707	-0.006903	0.007217	-0.485840	-0.999268	-0.678467	486	16_15_06_9150000
0.186285	0.790643	0.573809	0.007531	-0.010041	0.000941	-0.485840	-0.999268	-0.678467	487	16_15_06_9230000
0.186285	0.790643	0.573595	0.000314	0.009413	0.001569	-0.485962	-0.999268	-0.678345	488	16_15_06_9310000
0.186285	0.790643	0.573595	0.001883	0.009099	0.005334	-0.485840	-0.999268	-0.678467	489	16_15_06_9390000
0.186285	0.790643	0.573595	0.004079	0.013179	0.007531	-0.485840	-0.999268	-0.678467	490	16_15_06_9470000
0.186285	0.790643	0.573595	0.015689	0.006275	0.010041	-0.485840	-0.999268	-0.678345	491	16_15_06_9550000
0.186285	0.790643	0.573595	0.010982	0.010982	0.012551	-0.485962	-0.999390	-0.678345	492	16_15_06_9630000
0.186285	0.790857	0.573382	0.010668	0.014120	0.005962	-0.485962	-0.999390	-0.678223	493	16_15_06_9710000
0.186285	0.790857	0.573382	0.013179	0.023847	0.005962	-0.485840	-0.999390	-0.678223	494	16_15_06_9790000
0.186285	0.790857	0.573382	0.016003	0.022592	0.011923	-0.485840	-0.999512	-0.678223	495	16_15_06_9870000
0.186285	0.790857	0.573168	0.016944	0.011610	0.000314	-0.485840	-0.999512	-0.678101	496	16_15_06_9950000
0.186285	0.791070	0.573168	0.026357	0.006275	0.008472	-0.485840	-0.999634	-0.677979	497	16_15_07_0030000
0.186285	0.791070	0.572954	0.012551	0.010668	0.008786	-0.485840	-0.999634	-0.677856	498	16_15_07_0110000
0.186285	0.791070	0.572954	0.000314	-0.000314	0.006589	-0.485840	-0.999634	-0.677856	499	16_15_07_0190000
0.186285	0.791070	0.572954	-0.003765	0.001255	0.016944	-0.485962	-0.999634	-0.677856	500	16_15_07_0270000
0.186499	0.791070	0.572954	0.001255	0.008786	0.009099	-0.485962	-0.999634	-0.677856	501	16_15_07_0350000
0.186499	0.791070	0.572954	0.002196	0.014747	0.016944	-0.486084	-0.999512	-0.677979	502	16_15_07_0430000
0.186499	0.791070	0.572954	0.003138	-0.004393	0.006903	-0.486084	-0.999512	-0.677979	503	16_15_07_0510000
0.186499	0.791070	0.572954	0.008158	0.001883	-0.002510	-0.486084	-0.999512	-0.677856	504	16_15_07_0590000
0.186499	0.791070	0.572954	0.009727	0.005962	0.001883	-0.486084	-0.999634	-0.677856	505	16_15_07_0670000
0.186499	0.791070	0.572741	-0.000941	-0.003138	-0.016003	-0.486084	-0.999634	-0.677734	506	16_15_07_0750000
0.186499	0.791070	0.572954	-0.000941	0.001883	-0.005648	-0.485962	-0.999634	-0.677734	507	16_15_07_0830000
0.186285	0.791284	0.572741	0.008158	-0.009727	-0.003138	-0.485962	-0.999756	-0.677734	508	16_15_07_0910000
0.186285	0.791284	0.572741	-0.000628	-0.004079	-0.008158	-0.485962	-0.999756	-0.677734	509	16_15_07_0990000
0.186285	0.791284	0.572741	-0.006275	-0.009413	-0.006903	-0.485962	-0.999756	-0.677734	510	16_15_07_1070000
0.186285	0.791284	0.572741	-0.007844	-0.004707	0.006275	-0.485962	-0.999756	-0.677734	511	16_15_07_1150000
0.186499	0.791070	0.572741	-0.009727	-0.004393	-0.005962	-0.485962	-0.999634	-0.677734	512	16_15_07_1230000
0.186285	0.791070	0.572954	-0.002196	-0.002510	-0.004393	-0.485962	-0.999634	-0.677734	513	16_15_07_1310000
0.186285	0.791070	0.572954	0.000000	0.012551	0.000941	-0.485962	-0.999634	-0.677856	514	16_15_07_1390000
0.186285	0.791284	0.572954	0.001569	0.013179	0.000941	-0.485840	-0.999634	-0.677856	515	16_15_07_1470000
0.186285	0.791284	0.572741	0.001255	0.004393	-0.001569	-0.485840	-0.999634	-0.677856	516	16_15_07_1550000
0.186285	0.791284	0.572741	0.008786	0.010355	-0.001883	-0.485840	-0.999756	-0.677856	517	16_15_07_1630000
0.186285	0.791284	0.572741	0.016316	0.004707	-0.000628	-0.485718	-0.999756	-0.677734	518	16_15_07_1710000
0.186071	0.791284	0.572741	0.010041	-0.004707	-0.004393	-0.485718	-0.999878	-0.677734	519	16_15_07_1790000
0.186285	0.791498	0.572527	0.005648	-0.003452	0.005648	-0.485718	-0.999878	-0.677612	520	16_15_07_1870000
0.186285	0.791498	0.572527	0.013492	0.002196	0.003452	-0.485840	-0.999878	-0.677490	521	16_15_07_1950000
0.186285	0.791498	0.572314	0.018826	0.008158	0.009099	-0.485840	-1.000000	-0.677368	522	16_15_07_2030000
0.186285	0.791498	0.572314	0.007844	0.004079	-0.000941	-0.485840	-1.000000	-0.677368	523	16_15_07_2110000
0.186285	0.791498	0.572314	-0.006903	0.000628	-0.003452	-0.485840	-1.000122	-0.677368	524	16_15_07_2190000
0.186285	0.791498	0.572314	-0.005020	0.008158	0.005648	-0.485718	-1.000000	-0.677368	525	16_15_07_2270000
0.186285	0.791498	0.572314	0.006275	0.000628	-0.001883	-0.485718	-1.000000	-0.677368	526	16_15_07_2350000
0.186285	0.791498	0.572314	-0.007844	-0.005962	-0.003765	-0.485718	-1.000000	-0.677368	527	16_15_07_2430000
0.186285	0.791498	0.572314	-0.002824	0.005962	0.008472	-0.485840	-1.000000	-0.677368	528	16_15_07_2510000
0.186285	0.791498	0.572314	0.008158	0.002824	-0.001569	-0.485840	-1.000000	-0.677368	529	16_15_07_2590000
0.186285	0.791498	0.572314	-0.012551	0.000628	-0.006275	-0.485718	-1.000000	-0.677490	530	16_15_07_2670000
0.186071	0.791498	0.572527	-0.007531	0.003765	-0.007217	-0.485718	-1.000000	-0.677490	531	16_15_07_2750000
0.186071	0.791498	0.572527	-0.010668	0.011610	-0.015689	-0.485596	-1.000000	-0.677612	532	16_15_07_2830000
0.185858	0.791498	0.572527	-0.006903	0.000000	-0.007844	-0.485474	-1.000000	-0.677734	533	16_15_07_2910000
0.185858	0.791498	0.572527	-0.006275	0.000628	-0.006589	-0.485352	-1.000000	-0.677734	534	16_15_07_2990000
0.185858	0.791498	0.572527	-0.006903	-0.006903	-0.009727	-0.485352	-1.000000	-0.677734	535	16_15_07_3070000
0.185858	0.791498	0.572741	-0.019768	-0.002196	-0.008158	-0.485352	-0.999878	-0.677856	536	16_15_07_3150000
0.185858	0.791284	0.572741	-0.008786	-0.005020	0.012865	-0.485352	-0.999878	-0.677979	537	16_15_07_3230000
0.185858	0.791284	0.572741	-0.003765	-0.004707	0.005020	-0.485474	-0.999756	-0.677979	538	16_15_07_3310000
0.185858	0.791284	0.572741	-0.008786	-0.006589	-0.007217	-0.485474	-0.999756	-0.677979	539	16_15_07_3390000
0.185858	0.791284	0.572741	0.002824	0.009099	-0.000628	-0.485352	-0.999756	-0.678101	540	16_15_07_3470000
0.185858	0.791284	0.572741	-0.003765	-0.004707	0.002510	-0.485352	-0.999756	-0.678101	541	16_15_07_3550000
0.185858	0.791284	0.572741	0.009727	0.000941	0.008158	-0.485474	-0.999756	-0.677979	542	16_15_07_3630000
0.186071	0.791284	0.572741	0.008786	0.010668	0.012551	-0.485474	-0.999756	-0.677979	543	16_15_07_3710000
0.186071	0.791284	0.572741	-0.004079	0.010041	-0.001255	-0.485474	-0.999756	-0.677979	544	16_15_07_3790000
0.185858	0.791284	0.572741	0.000314	0.006903	-0.003138	-0.485474	-0.999756	-0.677979	545	16_15_07_3870000
0.185858	0.791284	0.572741	-0.006275	0.010041	0.003765	-0.485352	-0.999756	-0.678101	546	16_15_07_3950000
0.185858	0.791284	0.572741	-0.003452	0.016316	0.011296	-0.485352	-0.999634	-0.678223	547	16_15_07_4030000
0.185858	0.791284	0.572741	-0.007217	0.012865	0.011610	-0.485352	-0.999634	-0.678223	548	16_15_07_4110000
0.185858	0.791284	0.572954	0.004393	0.010982	0.005962	-0.485352	-0.999512	-0.678345	549	16_15_07_4190000
0.185858	0.791284	0.572741	0.006275	0.001569	0.004707	-0.485474	-0.999634	-0.678345	550	16_15_07_4270000
0.185858	0.791284	0.572741	0.005020	0.006903	-0.004393	-0.485352	-0.999634	-0.678223	551	16_15_07_4350000
0.185858	0.791284	0.572741	0.011296	-0.008158	-0.005648	-0.485352	-0.999634	-0.678223	552	16_15_07_4430000
0.185858	0.791284	0.572741	-0.000628	-0.002196	-0.010982	-0.485352	-0.999756	-0.678101	553	16_15_07_4510000
0.185858	0.791284	0.572741	-0.003452	-0.005962	-0.010041	-0.485229	-0.999756	-0.678101	554	16_15_07_4590000
0.185858	0.791284	0.572741	-0.013492	-0.008472	0.003452	-0.485229	-0.999756	-0.678223	555	16_15_07_4670000
0.185858	0.791284	0.572741	0.000000	-0.001255	-0.001569	-0.485352	-0.999634	-0.678223	556	16_15_07_4750000
0.185858	0.791284	0.572741	-0.008472	-0.004079	0.000314	-0.485352	-0.999634	-0.678223	557	16_15_07_4830000
0.185858	0.791284	0.572741	-0.002196	0.001569	0.003765	-0.485352	-0.999634	-0.678223	558	16_15_07_4910000
0.185858	0.791284	0.572741	-0.003452	0.008158	-0.005020	-0.485352	-0.999634	-0.678345	559	16_15_07_4990000
0.185858	0.791284	0.572741	0.003765	0.000000	-0.009413	-0.485229	-0.999634	-0.678345	560	16_15_07_5070000
0.185644	0.791284	0.572741	-0.008786	0.001883	-0.018826	-0.485107	-0.999634	-0.678345	561	16_15_07_5150000
0.185644	0.791284	0.572954	-0.009413	-0.000628	-0.012551	-0.484985	-0.999756	-0.678345	562	16_15_07_5230000
0.185430	0.791284	0.572954	-0.011923	0.001883	-0.007531	-0.484985	-0.999634	-0.678467	563	16_15_07_5310000
0.185430	0.791284	0.572954	0.006275	0.004393	-0.005020	-0.484863	-0.999634	-0.678467	564	16_15_07_5390000
0.185430	0.791284	0.572954	-0.010668	-0.003765	-0.002824	-0.484863	-0.999634	-0.678467	565	16_15_07_5470000
0.185430	0.791284	0.572954	-0.010355	-0.001883	-0.007217	-0.484863	-0.999634	-0.678589	566	16_15_07_5550000
0.185430	0.791284	0.572954	-0.000941	-0.009099	-0.002510	-0.484863	-0.999634	-0.678589	567	16_15_07_5630000
0.185430	0.791284	0.572954	-0.002196	-0.010982	0.003765	-0.484863	-0.999634	-0.678589	568	16_15_07_5710000
0.185430	0.791284	0.572954	0.003138	0.004393	-0.005020	-0.484863	-0.999634	-0.678589	569	16_15_07_5790000
0.185430	0.791284	0.572954	0.002196	0.001883	0.002510	-0.484863	-0.999634	-0.678589	570	16_15_07_5870000
0.185430	0.791284	0.572954	0.006589	0.001569	0.012551	-0.484863	-0.999634	-0.678467	571	16_15_07_5950000
0.185644	0.791284	0.572954	0.000314	-0.010041	0.010355	-0.484985	-0.999634	-0.678467	572	16_15_07_6030000
0.185644	0.791284	0.572954	-0.001883	0.005020	0.003765	-0.485107	-0.999634	-0.678467	573	16_15_07_6110000
0.185644	0.791284	0.572954	0.001569	0.003452	0.001569	-0.485107	-0.999634	-0.678467	574	16_15_07_6190000
0.185644	0.791284	0.572954	0.003138	0.012551	-0.006275	-0.484985	-0.999634	-0.678467	575	16_15_07_6270000
0.185644	0.791284	0.572954	0.004079	0.007531	0.008158	-0.484985	-0.999634	-0.678467	576	16_15_07_6350000
0.185644	0.791284	0.572954	-0.005020	0.001569	0.005020	-0.484985	-0.999634	-0.678467	577	16_15_07_6430000
0.185644	0.791284	0.572954	-0.007531	0.003765	0.002510	-0.484985	-0.999512	-0.678589	578	16_15_07_6510000
0.185644	0.791284	0.572954	-0.003765	0.000000	0.005020	-0.485107	-0.999512	-0.678589	579	16_15_07_6590000
0.185644	0.791284	0.572954	-0.005020	-0.000314	0.001569	-0.485107	-0.999512	-0.678589	580	16_15_07_6670000
0.185644	0.791284	0.572954	-0.011923	0.006275	0.007217	-0.485107	-0.999390	-0.678711	581	16_15_07_6750000
0.185644	0.791070	0.573168	-0.001883	0.008472	0.006589	-0.485107	-0.999390	-0.678833	582	16_15_07_6830000
0.185644	0.791070	0.573168	0.002510	0.013806	0.018826	-0.485107	-0.999268	-0.678833	583	16_15_07_6910000
0.185644	0.791070	0.573168	-0.001255	0.011610	0.008786	-0.485229	-0.999268	-0.678833	584	16_15_07_6990000
0.185644	0.791070	0.573168	0.009413	0.000000	0.005334	-0.485229	-0.999268	-0.678833	585	16_15_07_7070000
0.185644	0.791284	0.572954	0.007844	0.006589	-0.004079	-0.485229	-0.999268	-0.678833	586	16_15_07_7150000
0.185644	0.791284	0.572954	-0.002824	0.001255	0.002510	-0.485229	-0.999268	-0.678833	587	16_15_07_7230000
0.185858	0.791284	0.572954	-0.005020	0.005020	0.014120	-0.485229	-0.999268	-0.678833	588	16_15_07_7310000
0.185858	0.791070	0.572954	0.004079	0.009099	0.016316	-0.485352	-0.999268	-0.678833	589	16_15_07_7390000
0.185858	0.791284	0.572954	0.004393	0.008158	0.005020	-0.485352	-0.999146	-0.678833	590	16_15_07_7470000
0.185858	0.791284	0.572954	0.005962	0.005020	-0.005648	-0.485352	-0.999268	-0.678833	591	16_15_07_7550000
0.185858	0.791284	0.572954	0.011296	0.006903	0.006275	-0.485352	-0.999268	-0.678833	592	16_15_07_7630000
0.185858	0.791284	0.572741	0.018199	0.003452	0.008786	-0.485352	-0.999268	-0.678711	593	16_15_07_7710000
0.185858	0.791284	0.572741	0.008472	-0.001255	0.005334	-0.485352	-0.999390	-0.678589	594	16_15_07_7790000
0.185858	0.791498	0.572741	0.010355	-0.002510	0.000941	-0.485474	-0.999390	-0.678467	595	16_15_07_7870000
0.185858	0.791498	0.572741	-0.010668	-0.005962	0.005648	-0.485474	-0.999390	-0.678467	596	16_15_07_7950000
0.186071	0.791284	0.572741	-0.015375	-0.006589	0.007217	-0.485596	-0.999268	-0.678589	597	16_15_07_8030000
0.186071	0.791284	0.572741	-0.012237	0.000941	0.006589	-0.485596	-0.999146	-0.678711	598	16_15_07_8110000
0.186071	0.791284	0.572741	0.006275	-0.010355	0.013806	-0.485718	-0.999146	-0.678711	599	16_15_07_8190000
0.186285	0.791284	0.572741	0.009413	-0.000628	-0.001569	-0.485840	-0.999146	-0.678589	600	16_15_07_8270000
0.186285	0.791284	0.572741	0.008786	0.001569	0.008158	-0.485840	-0.999146	-0.678467	601	16_15_07_8350000
0.186285	0.791284	0.572741	0.006275	0.005962	0.010041	-0.485840	-0.999268	-0.678467	602	16_15_07_8430000
0.186285	0.791498	0.572527	0.010668	0.010041	0.002824	-0.485962	-0.999268	-0.678467	603	16_15_07_8510000
0.186285	0.791498	0.572527	0.007844	0.000314	-0.009413	-0.485840	-0.999268	-0.678345	604	16_15_07_8590000
0.186071	0.791498	0.572527	0.014120	0.006275	-0.004079	-0.485840	-0.999390	-0.678345	605	16_15_07_8670000
0.186071	0.791498	0.572314	0.011923	0.001255	0.001883	-0.485718	-0.999390	-0.678223	606	16_15_07_8750000
0.186071	0.791711	0.572314	0.006275	0.005020	0.001569	-0.485718	-0.999512	-0.678101	607	16_15_07_8830000
0.186071	0.791711	0.572314	0.007531	0.010982	0.005648	-0.485718	-0.999512	-0.678101	608	16_15_07_8910000
0.186071	0.791711	0.572314	0.011610	0.010355	-0.002510	-0.485718	-0.999512	-0.678101	609	16_15_07_8990000
0.186071	0.791711	0.572100	0.028553	0.005648	0.002510	-0.485718	-0.999634	-0.677979	610	16_15_07_9070000
0.186071	0.791925	0.571886	0.013806	0.010355	0.007217	-0.485718	-0.999756	-0.677856	611	16_15_07_9150000
0.186071	0.791925	0.571886	0.006275	0.014120	0.006903	-0.485596	-0.999756	-0.677734	612	16_15_07_9230000
0.186071	0.791925	0.571886	-0.001883	0.005334	0.005648	-0.485596	-0.999756	-0.677856	613	16_15_07_9310000
0.186071	0.791925	0.571886	-0.004707	0.003765	0.010041	-0.485718	-0.999756	-0.677856	614	16_15_07_9390000
0.186071	0.791925	0.571886	-0.000314	0.008472	0.020395	-0.485718	-0.999634	-0.677856	615	16_15_07_9470000
0.186285	0.791925	0.571886	-0.001883	-0.005962	0.001255	-0.485840	-0.999634	-0.677856	616	16_15_07_9550000
0.186285	0.791711	0.571886	-0.010668	0.004707	-0.009727	-0.485840	-0.999634	-0.677979	617	16_15_07_9630000
0.186071	0.791711	0.572100	0.002196	0.009099	-0.005962	-0.485718	-0.999634	-0.677979	618	16_15_07_9710000
0.186071	0.791925	0.572100	-0.001883	-0.004393	-0.006589	-0.485718	-0.999634	-0.677979	619	16_15_07_9790000
0.186071	0.791711	0.572100	-0.009099	-0.004079	-0.008158	-0.485596	-0.999634	-0.677979	620	16_15_07_9870000
0.186071	0.791711	0.572100	-0.001883	-0.002196	0.005334	-0.485596	-0.999634	-0.678101	621	16_15_07_9950000
0.186071	0.791711	0.572100	0.004079	-0.005334	0.003452	-0.485718	-0.999634	-0.677979	622	16_15_08_0030000
0.186071	0.791925	0.572100	-0.002510	-0.002196	-0.005334	-0.485718	-0.999634	-0.677979	623	16_15_08_0110000
0.186071	0.791925	0.572100	0.001255	-0.000628	0.012551	-0.485718	-0.999512	-0.677979	624	16_15_08_0190000
0.186071	0.791711	0.572100	-0.007531	0.001569	-0.002824	-0.485840	-0.999512	-0.677979	625	16_15_08_0270000
0.186071	0.791711	0.572100	-0.008158	0.003138	0.000314	-0.485718	-0.999512	-0.678101	626	16_15_08_0350000
0.186071	0.791711	0.572100	-0.003138	0.000314	0.000314	-0.485718	-0.999512	-0.678101	627	16_15_08_0430000
0.186071	0.791711	0.572100	-0.010355	-0.004393	-0.001883	-0.485718	-0.999390	-0.678223	628	16_15_08_0510000
0.186285	0.791711	0.572100	-0.005334	-0.009413	0.009099	-0.485840	-0.999390	-0.678223	629	16_15_08_0590000
0.186285	0.791711	0.572100	0.001569	-0.006589	0.003765	-0.485962	-0.999390	-0.678223	630	16_15_08_0670000
0.186285	0.791711	0.572100	0.004707	-0.005648	0.005648	-0.485962	-0.999390	-0.678101	631	16_15_08_0750000
0.186285	0.791711	0.572100	-0.008786	0.001883	-0.006275	-0.485962	-0.999268	-0.678223	632	16_15_08_0830000
0.186285	0.791711	0.572100	-0.002196	0.005020	-0.002510	-0.485962	-0.999268	-0.678223	633	16_15_08_0910000
0.186285	0.791711	0.572100	0.004393	0.005962	0.002510	-0.485962	-0.999268	-0.678223	634	16_15_08_0990000
0.186285	0.791711	0.572100	-0.005962	0.002824	0.007531	-0.485962	-0.999268	-0.678223	635	16_15_08_1070000
0.186285	0.791711	0.572100	-0.011923	0.010041	0.007844	-0.485962	-0.999268	-0.678345	636	16_15_08_1150000
0.186285	0.791498	0.572314	-0.019140	-0.005334	0.000941	-0.485962	-0.999146	-0.678467	637	16_15_08_1230000
0.186285	0.791498	0.572314	-0.012865	0.000000	0.017258	-0.486084	-0.999023	-0.678589	638	16_15_08_1310000
0.186499	0.791498	0.572527	-0.000628	0.012865	0.011296	-0.486206	-0.998901	-0.678711	639	16_15_08_1390000
0.186499	0.791498	0.572314	0.007844	0.014120	0.016944	-0.486206	-0.998901	-0.678711	640	16_15_08_1470000
0.186499	0.791498	0.572314	0.007531	0.010041	0.014120	-0.486206	-0.998901	-0.678711	641	16_15_08_1550000
0.186499	0.791498	0.572314	-0.001883	0.009099	-0.005334	-0.486206	-0.998901	-0.678711	642	16_15_08_1630000
0.186499	0.791498	0.572314	-0.004707	-0.002824	0.002196	-0.486206	-0.998779	-0.678711	643	16_15_08_1710000
0.186499	0.791498	0.572314	0.014747	-0.004079	0.009727	-0.486328	-0.998779	-0.678711	644	16_15_08_1790000
0.186499	0.791498	0.572314	0.005334	-0.001255	0.008158	-0.486328	-0.998901	-0.678589	645	16_15_08_1870000
0.186712	0.791498	0.572314	-0.012237	-0.002510	0.009099	-0.486450	-0.998779	-0.678589	646	16_15_08_1950000
0.186712	0.791498	0.572314	-0.016944	-0.015689	-0.005648	-0.486572	-0.998657	-0.678711	647	16_15_08_2030000
0.186712	0.791284	0.572314	-0.002196	-0.003452	0.003765	-0.486572	-0.998657	-0.678711	648	16_15_08_2110000
0.186712	0.791284	0.572527	-0.015689	-0.013806	0.008158	-0.486694	-0.998535	-0.678711	649	16_15_08_2190000
0.186926	0.791284	0.572527	-0.010982	-0.004707	-0.005334	-0.486694	-0.998535	-0.678833	650	16_15_08_2270000
0.186926	0.791284	0.572527	-0.010668	-0.002510	0.008158	-0.486694	-0.998413	-0.678833	651	16_15_08_2350000
0.186926	0.791070	0.572527	-0.018199	0.010355	-0.001883	-0.486694	-0.998413	-0.678955	652	16_15_08_2430000
0.186926	0.791070	0.572741	-0.014120	-0.000314	0.007531	-0.486694	-0.998291	-0.679077	653	16_15_08_2510000
0.186926	0.791070	0.572741	-0.005020	0.007217	0.010668	-0.486816	-0.998169	-0.679199	654	16_15_08_2590000
0.186926	0.791070	0.572741	0.005962	-0.002196	-0.000941	-0.486816	-0.998169	-0.679199	655	16_15_08_2670000
0.186926	0.791070	0.572741	0.001569	0.000628	-0.005020	-0.486816	-0.998169	-0.679199	656	16_15_08_2750000
0.186926	0.791070	0.572741	-0.005962	0.006275	0.001255	-0.486816	-0.998169	-0.679199	657	16_15_08_2830000
0.186926	0.791070	0.572741	-0.008786	0.000000	0.012865	-0.486816	-0.998169	-0.679321	658	16_15_08_2910000
0.186926	0.791070	0.572741	0.004079	0.007844	0.004079	-0.486816	-0.998047	-0.679321	659	16_15_08_2990000
0.186926	0.791070	0.572741	0.004079	0.002824	0.006275	-0.486816	-0.998047	-0.679321	660	16_15_08_3070000
0.186926	0.791070	0.572741	0.000314	-0.005020	0.004707	-0.486938	-0.998047	-0.679321	661	16_15_08_3150000
0.186926	0.791070	0.572741	0.000314	0.011923	0.001883	-0.486938	-0.998047	-0.679321	662	16_15_08_3230000
0.186926	0.791070	0.572741	0.004707	0.005648	-0.005962	-0.486816	-0.998047	-0.679321	663	16_15_08_3310000
0.186926	0.791070	0.572741	0.010982	0.000000	-0.003138	-0.486816	-0.998169	-0.679199	664	16_15_08_3390000
0.186926	0.791070	0.572741	0.007844	-0.002196	-0.002196	-0.486816	-0.998169	-0.679199	665	16_15_08_3470000
0.186926	0.791070	0.572527	-0.003452	0.002196	-0.004393	-0.486816	-0.998169	-0.679199	666	16_15_08_3550000
0.186926	0.791070	0.572741	-0.011610	0.000314	0.005648	-0.486816	-0.998169	-0.679199	667	16_15_08_3630000
0.186926	0.791070	0.572741	0.001255	0.003765	0.008158	-0.486816	-0.998169	-0.679199	668	16_15_08_3710000
0.186926	0.791070	0.572741	-0.003452	0.008158	0.008786	-0.486816	-0.998047	-0.679321	669	16_15_08_3790000
0.186926	0.791070	0.572741	-0.006589	-0.002510	0.010355	-0.486938	-0.998047	-0.679321	670	16_15_08_3870000
0.187139	0.791070	0.572741	-0.001883	0.001883	0.011923	-0.487061	-0.997925	-0.679321	671	16_15_08_3950000
0.187139	0.791070	0.572741	-0.008158	0.002510	0.007844	-0.487061	-0.997925	-0.679443	672	16_15_08_4030000
0.187139	0.791070	0.572741	0.005648	-0.006275	0.006589	-0.487183	-0.997803	-0.679443	673	16_15_08_4110000
0.187353	0.791070	0.572741	-0.007217	-0.005648	0.011923	-0.487183	-0.997803	-0.679321	674	16_15_08_4190000
0.187353	0.790857	0.572741	0.000941	-0.002510	0.013179	-0.487305	-0.997803	-0.679443	675	16_15_08_4270000
0.187353	0.790857	0.572741	-0.004707	0.009099	0.002824	-0.487427	-0.997681	-0.679443	676	16_15_08_4350000
0.187353	0.790857	0.572741	-0.003138	0.007844	0.012551	-0.487427	-0.997681	-0.679443	677	16_15_08_4430000
0.187567	0.790857	0.572741	0.009099	0.003138	0.013492	-0.487549	-0.997681	-0.679443	678	16_15_08_4510000
0.187567	0.790857	0.572741	0.005648	0.001883	0.012551	-0.487549	-0.997559	-0.679443	679	16_15_08_4590000
0.187567	0.790857	0.572741	0.002196	-0.002196	0.009099	-0.487671	-0.997559	-0.679321	680	16_15_08_4670000
0.187567	0.790857	0.572741	-0.004079	0.003138	0.002510	-0.487671	-0.997559	-0.679443	681	16_15_08_4750000
0.187780	0.790857	0.572741	-0.006589	-0.003765	0.009727	-0.487793	-0.997559	-0.679443	682	16_15_08_4830000
0.187780	0.790857	0.572741	-0.006275	0.000314	0.023533	-0.487915	-0.997437	-0.679443	683	16_15_08_4910000
0.187780	0.790857	0.572741	-0.009099	0.010355	0.009727	-0.488037	-0.997314	-0.679565	684	16_15_08_4990000
0.187780	0.790857	0.572741	0.003765	0.001569	0.006589	-0.488037	-0.997314	-0.679565	685	16_15_08_5070000
0.187994	0.790857	0.572741	0.009099	0.002510	0.008158	-0.488037	-0.997314	-0.679565	686	16_15_08_5150000
0.187994	0.790857	0.572741	-0.000314	0.013492	0.012865	-0.488159	-0.997192	-0.679565	687	16_15_08_5230000
0.187994	0.790857	0.572741	-0.001883	-0.003452	0.004079	-0.488159	-0.997192	-0.679565	688	16_15_08_5310000
0.187994	0.790857	0.572741	0.006275	-0.001255	0.005962	-0.488281	-0.997192	-0.679565	689	16_15_08_5390000
0.187994	0.790857	0.572741	0.004393	-0.007531	0.009727	-0.488281	-0.997192	-0.679443	690	16_15_08_5470000
0.188208	0.790857	0.572741	-0.005334	-0.001883	-0.001883	-0.488403	-0.997192	-0.679443	691	16_15_08_5550000
0.188208	0.790857	0.572741	-0.002510	0.001883	-0.006903	-0.488281	-0.997192	-0.679443	692	16_15_08_5630000
0.187994	0.790857	0.572741	-0.008786	0.004393	-0.005648	-0.488281	-0.997192	-0.679565	693	16_15_08_5710000
0.187994	0.790857	0.572741	0.001255	0.006275	0.001883	-0.488281	-0.997192	-0.679565	694	16_15_08_5790000
0.187994	0.790857	0.572741	0.002824	-0.000941	-0.002196	-0.488159	-0.997192	-0.679565	695	16_15_08_5870000
0.187994	0.790857	0.572741	0.004079	-0.006275	0.004079	-0.488281	-0.997192	-0.679565	696	16_15_08_5950000
0.187994	0.790857	0.572741	-0.003452	-0.011296	-0.002510	-0.488281	-0.997192	-0.679443	697	16_15_08_6030000
0.188208	0.790857	0.572741	-0.004079	-0.010355	0.005648	-0.488403	-0.997192	-0.679443	698	16_15_08_6110000
0.188208	0.790857	0.572741	0.004393	-0.005648	0.001255	-0.488403	-0.997192	-0.679443	699	16_15_08_6190000
0.188208	0.790857	0.572741	-0.006275	0.002824	-0.008786	-0.488403	-0.997192	-0.679443	700	16_15_08_6270000
0.188208	0.790857	0.572741	-0.000941	0.006903	-0.003765	-0.488281	-0.997192	-0.679443	701	16_15_08_6350000
0.188208	0.790857	0.572741	-0.007217	0.000000	0.002510	-0.488281	-0.997070	-0.679565	702	16_15_08_6430000
0.188208	0.790857	0.572741	0.001883	-0.017571	-0.000314	-0.488403	-0.997070	-0.679565	703	16_15_08_6510000
0.188208	0.790857	0.572741	-0.010355	-0.005020	0.000314	-0.488403	-0.997070	-0.679443	704	16_15_08_6590000
0.188208	0.790643	0.572741	-0.010355	-0.006275	0.000628	-0.488403	-0.997070	-0.679565	705	16_15_08_6670000
0.188208	0.790643	0.572741	0.007844	0.006275	-0.000314	-0.488403	-0.997070	-0.679565	706	16_15_08_6750000
0.188208	0.790857	0.572741	-0.001255	-0.006589	-0.004707	-0.488403	-0.997070	-0.679565	707	16_15_08_6830000
0.188208	0.790857	0.572741	0.004707	-0.005962	-0.004079	-0.488403	-0.997070	-0.679443	708	16_15_08_6910000
0.188208	0.790857	0.572741	0.009413	-0.005962	-0.008472	-0.488403	-0.997192	-0.679443	709	16_15_08_6990000
0.188208	0.790857	0.572527	0.006275	-0.010041	-0.006589	-0.488403	-0.997192	-0.679321	710	16_15_08_7070000
0.188208	0.790857	0.572527	-0.002824	-0.000628	-0.004707	-0.488403	-0.997192	-0.679321	711	16_15_08_7150000
0.187994	0.790857	0.572527	0.005962	0.008158	-0.018199	-0.488281	-0.997314	-0.679321	712	16_15_08_7230000
0.187994	0.790857	0.572527	0.003452	0.001883	-0.013806	-0.488159	-0.997314	-0.679199	713	16_15_08_7310000
0.187780	0.791070	0.572527	0.005334	0.008786	-0.008472	-0.488037	-0.997437	-0.679199	714	16_15_08_7390000
0.187780	0.791070	0.572527	-0.000941	-0.000628	-0.014434	-0.487915	-0.997437	-0.679199	715	16_15_08_7470000
0.187780	0.791070	0.572527	-0.009099	0.003765	-0.006275	-0.487793	-0.997559	-0.679321	716	16_15_08_7550000
0.187567	0.791070	0.572527	-0.006903	-0.001569	-0.007844	-0.487793	-0.997437	-0.679321	717	16_15_08_7630000
0.187567	0.791070	0.572527	0.002196	-0.001255	-0.005962	-0.487671	-0.997437	-0.679321	718	16_15_08_7710000
0.187567	0.791070	0.572527	-0.001255	-0.002824	0.000000	-0.487671	-0.997559	-0.679321	719	16_15_08_7790000
0.187567	0.791070	0.572527	-0.007217	0.002196	-0.000628	-0.487671	-0.997437	-0.679321	720	16_15_08_7870000
0.187567	0.790857	0.572741	-0.008786	0.003138	0.005648	-0.487671	-0.997437	-0.679443	721	16_15_08_7950000
0.187567	0.790857	0.572741	-0.013806	-0.004393	-0.005648	-0.487671	-0.997437	-0.679565	722	16_15_08_8030000
0.187567	0.790857	0.572741	-0.016316	-0.006903	-0.004707	-0.487671	-0.997314	-0.679565	723	16_15_08_8110000
0.187567	0.790857	0.572954	-0.018513	-0.017571	-0.007531	-0.487671	-0.997192	-0.679688	724	16_15_08_8190000
0.187567	0.790643	0.572954	-0.010041	-0.007844	-0.010355	-0.487671	-0.997192	-0.679810	725	16_15_08_8270000
0.187567	0.790643	0.572954	-0.011610	-0.011296	-0.012551	-0.487671	-0.997192	-0.679810	726	16_15_08_8350000
0.187567	0.790643	0.572954	-0.000628	-0.001255	-0.011296	-0.487671	-0.997192	-0.679810	727	16_15_08_8430000
0.187567	0.790643	0.572954	0.000941	0.004707	-0.004707	-0.487549	-0.997192	-0.679810	728	16_15_08_8510000
0.187353	0.790643	0.572954	0.001883	0.010355	-0.006903	-0.487427	-0.997314	-0.679810	729	16_15_08_8590000
0.187353	0.790857	0.572954	0.003452	0.000628	-0.005962	-0.487427	-0.997314	-0.679810	730	16_15_08_8670000
0.187353	0.790857	0.572954	-0.001883	-0.006275	-0.002196	-0.487427	-0.997314	-0.679810	731	16_15_08_8750000
0.187353	0.790857	0.572954	-0.009099	0.004707	0.003452	-0.487427	-0.997314	-0.679810	732	16_15_08_8830000
0.187353	0.790643	0.572954	-0.012237	-0.002196	0.008472	-0.487427	-0.997192	-0.679932	733	16_15_08_8910000
0.187353	0.790643	0.573168	0.001255	0.007844	0.002510	-0.487427	-0.997192	-0.680054	734	16_15_08_8990000
0.187353	0.790643	0.572954	0.016003	0.006903	-0.006903	-0.487427	-0.997192	-0.679932	735	16_15_08_9070000
0.187353	0.790857	0.572954	0.018826	0.001255	0.002824	-0.487427	-0.997314	-0.679810	736	16_15_08_9150000
0.187353	0.790857	0.572741	0.013806	0.001569	0.002196	-0.487427	-0.997437	-0.679688	737	16_15_08_9230000
0.187353	0.790857	0.572741	0.008158	0.004707	0.008472	-0.487427	-0.997437	-0.679688	738	16_15_08_9310000
0.187353	0.790857	0.572741	0.001883	0.003138	0.015689	-0.487427	-0.997437	-0.679565	739	16_15_08_9390000
0.187353	0.790857	0.572741	-0.006589	0.004393	-0.006275	-0.487549	-0.997437	-0.679688	740	16_15_08_9470000
0.187353	0.790857	0.572741	-0.001883	0.018199	0.006589	-0.487427	-0.997437	-0.679688	741	16_15_08_9550000
0.187353	0.790857	0.572741	-0.001883	0.004079	0.003765	-0.487427	-0.997314	-0.679810	742	16_15_08_9630000
0.187353	0.790857	0.572741	0.001883	0.003138	-0.001569	-0.487427	-0.997314	-0.679810	743	16_15_08_9710000
0.187353	0.790857	0.572741	-0.011296	0.003765	0.001255	-0.487427	-0.997314	-0.679810	744	16_15_08_9790000
0.187353	0.790857	0.572741	0.001569	-0.001883	0.003138	-0.487427	-0.997314	-0.679810	745	16_15_08_9870000
0.187353	0.790857	0.572741	0.000314	-0.001569	0.002824	-0.487427	-0.997314	-0.679810	746	16_15_08_9950000
0.187353	0.790857	0.572741	0.011296	-0.007844	-0.003452	-0.487427	-0.997314	-0.679810	747	16_15_09_0030000
0.187353	0.790857	0.572741	0.003765	-0.009727	-0.001569	-0.487549	-0.997314	-0.679688	748	16_15_09_0110000
0.187353	0.790857	0.572741	-0.004707	-0.012551	-0.007844	-0.487549	-0.997437	-0.679688	749	16_15_09_0190000
0.187353	0.790857	0.572741	-0.001255	-0.007217	-0.005962	-0.487549	-0.997437	-0.679688	750	16_15_09_0270000
0.187353	0.790857	0.572741	-0.008158	0.002824	0.006903	-0.487549	-0.997437	-0.679688	751	16_15_09_0350000
0.187567	0.790857	0.572741	-0.008158	-0.000628	0.001569	-0.487549	-0.997314	-0.679688	752	16_15_09_0430000
0.187567	0.790857	0.572741	-0.005962	0.002196	0.003765	-0.487549	-0.997314	-0.679810	753	16_15_09_0510000
0.187567	0.790857	0.572741	0.003452	0.009099	-0.000941	-0.487549	-0.997314	-0.679810	754	16_15_09_0590000
0.187353	0.790857	0.572741	0.002196	0.002196	-0.002196	-0.487549	-0.997314	-0.679810	755	16_15_09_0670000
0.187353	0.790857	0.572741	0.011610	0.003138	-0.011923	-0.487427	-0.997314	-0.679810	756	16_15_09_0750000
0.187353	0.790857	0.572741	-0.006903	-0.001883	-0.009099	-0.487427	-0.997437	-0.679688	757	16_15_09_0830000
0.187353	0.790857	0.572741	-0.000628	-0.000314	-0.003765	-0.487305	-0.997437	-0.679810	758	16_15_09_0910000
0.187353	0.790857	0.572741	-0.011610	0.002824	-0.000628	-0.487305	-0.997437	-0.679810	759	16_15_09_0990000
0.187353	0.790857	0.572741	0.000628	-0.000941	-0.001255	-0.487305	-0.997314	-0.679810	760	16_15_09_1070000
0.187353	0.790857	0.572741	-0.000314	-0.001255	0.002196	-0.487305	-0.997314	-0.679810	761	16_15_09_1150000
0.187353	0.790857	0.572741	0.003138	-0.001255	-0.005648	-0.487305	-0.997314	-0.679810	762	16_15_09_1230000
0.187353	0.790857	0.572741	-0.006903	-0.004707	0.000941	-0.487305	-0.997314	-0.679810	763	16_15_09_1310000
0.187353	0.790857	0.572741	-0.012237	-0.001255	0.001255	-0.487305	-0.997314	-0.679932	764	16_15_09_1390000
0.187353	0.790857	0.572954	-0.012551	0.001255	-0.006903	-0.487305	-0.997314	-0.680054	765	16_15_09_1470000
0.187353	0.790857	0.572954	0.000314	-0.013806	0.008472	-0.487305	-0.997192	-0.680054	766	16_15_09_1550000
0.187353	0.790857	0.572954	0.004393	0.000314	0.002196	-0.487427	-0.997192	-0.679932	767	16_15_09_1630000
0.187353	0.790857	0.572954	0.005334	0.005648	0.006275	-0.487427	-0.997192	-0.679932	768	16_15_09_1710000
0.187353	0.790857	0.572741	-0.002196	0.002510	-0.001883	-0.487427	-0.997192	-0.679932	769	16_15_09_1790000
0.187353	0.790857	0.572741	0.013179	0.003765	-0.004707	-0.487427	-0.997314	-0.679932	770	16_15_09_1870000
0.187353	0.790857	0.572741	0.003138	-0.001883	-0.000628	-0.487427	-0.997314	-0.679810	771	16_15_09_1950000
0.187353	0.790857	0.572741	0.010668	0.003138	0.000628	-0.487427	-0.997314	-0.679810	772	16_15_09_2030000
0.187353	0.791070	0.572741	0.002824	0.008786	-0.004707	-0.487305	-0.997437	-0.679810	773	16_15_09_2110000
0.187139	0.791070	0.572741	-0.001883	0.002824	-0.007217	-0.487305	-0.997437	-0.679810	774	16_15_09_2190000
0.187139	0.791070	0.572741	0.000314	0.008158	-0.004707	-0.487183	-0.997437	-0.679810	775	16_15_09_2270000
0.187139	0.791070	0.572741	-0.003138	-0.005020	-0.003138	-0.487183	-0.997437	-0.679810	776	16_15_09_2350000
0.187139	0.791070	0.572741	-0.006275	-0.005962	-0.002510	-0.487183	-0.997437	-0.679810	777	16_15_09_2430000
0.187139	0.791070	0.572741	0.002510	0.005020	0.002510	-0.487183	-0.997437	-0.679810	778	16_15_09_2510000
0.187139	0.791070	0.572741	0.008786	0.005648	0.000941	-0.487183	-0.997437	-0.679810	779	16_15_09_2590000
0.187139	0.791070	0.572527	0.003765	0.003138	0.007217	-0.487183	-0.997437	-0.679810	780	16_15_09_2670000
0.187139	0.791070	0.572527	0.010668	0.005020	0.003765	-0.487183	-0.997559	-0.679810	781	16_15_09_2750000
0.187139	0.791070	0.572527	0.002824	-0.001569	0.013179	-0.487183	-0.997559	-0.679688	782	16_15_09_2830000
0.187139	0.791070	0.572527	0.004079	0.003452	-0.001255	-0.487305	-0.997559	-0.679688	783	16_15_09_2910000
0.187139	0.791070	0.572527	-0.005962	0.011923	-0.002196	-0.487183	-0.997559	-0.679688	784	16_15_09_2990000
0.187139	0.791070	0.572527	0.005020	0.013806	0.001255	-0.487183	-0.997559	-0.679810	785	16_15_09_3070000
0.187139	0.791070	0.572527	0.002824	0.003138	-0.004707	-0.487061	-0.997559	-0.679810	786	16_15_09_3150000
0.186926	0.791284	0.572527	0.005648	0.003452	0.004707	-0.487061	-0.997559	-0.679810	787	16_15_09_3230000
0.187139	0.791284	0.572527	0.005648	0.005648	0.010355	-0.487061	-0.997559	-0.679688	788	16_15_09_3310000
0.187139	0.791284	0.572527	-0.001883	-0.000941	0.015375	-0.487183	-0.997559	-0.679688	789	16_15_09_3390000
0.187139	0.791070	0.572527	0.000941	-0.001255	0.005648	-0.487305	-0.997437	-0.679688	790	16_15_09_3470000
0.187139	0.791070	0.572527	0.001883	0.003452	0.002510	-0.487305	-0.997437	-0.679688	791	16_15_09_3550000
0.187139	0.791070	0.572527	-0.010355	-0.007844	-0.010041	-0.487305	-0.997437	-0.679688	792	16_15_09_3630000
0.187139	0.791070	0.572527	0.002196	-0.008472	-0.003138	-0.487305	-0.997437	-0.679688	793	16_15_09_3710000
0.187139	0.791284	0.572314	0.003452	-0.007531	-0.002510	-0.487305	-0.997559	-0.679688	794	16_15_09_3790000
0.187139	0.791284	0.572314	0.008158	-0.007844	0.000628	-0.487305	-0.997559	-0.679565	795	16_15_09_3870000
0.187353	0.791284	0.572314	0.000000	-0.008158	0.002824	-0.487427	-0.997559	-0.679565	796	16_15_09_3950000
0.187353	0.791284	0.572314	0.002510	0.004707	-0.011923	-0.487305	-0.997559	-0.679565	797	16_15_09_4030000
0.187139	0.791284	0.572314	-0.003765	0.007844	-0.009413	-0.487305	-0.997559	-0.679565	798	16_15_09_4110000
0.187139	0.791284	0.572314	-0.001883	-0.006589	-0.013806	-0.487183	-0.997681	-0.679565	799	16_15_09_4190000
0.186926	0.791284	0.572314	-0.002824	0.013806	-0.020082	-0.487061	-0.997681	-0.679565	800	16_15_09_4270000
0.186926	0.791284	0.572314	-0.006275	0.006903	-0.014434	-0.486816	-0.997681	-0.679688	801	16_15_09_4350000
0.186712	0.791284	0.572314	0.009413	0.003138	-0.009099	-0.486694	-0.997803	-0.679688	802	16_15_09_4430000
0.186712	0.791284	0.572314	-0.007844	0.003138	-0.007531	-0.486572	-0.997803	-0.679688	803	16_15_09_4510000
0.186712	0.791284	0.572314	0.010355	-0.000941	-0.009413	-0.486572	-0.997803	-0.679688	804	16_15_09_4590000
0.186499	0.791498	0.572314	0.010668	-0.010041	-0.002510	-0.486572	-0.997925	-0.679565	805	16_15_09_4670000
0.186712	0.791498	0.572100	0.013179	-0.008158	0.012551	-0.486572	-0.997925	-0.679443	806	16_15_09_4750000
0.186712	0.791498	0.572100	0.002824	0.007531	0.011923	-0.486694	-0.997925	-0.679321	807	16_15_09_4830000
0.186712	0.791498	0.572100	-0.004707	0.015061	0.015375	-0.486816	-0.997925	-0.679443	808	16_15_09_4910000
0.186926	0.791498	0.572100	-0.004079	-0.002196	0.016316	-0.486816	-0.997803	-0.679443	809	16_15_09_4990000
0.186926	0.791498	0.572100	-0.003138	-0.005962	0.018199	-0.487061	-0.997803	-0.679443	810	16_15_09_5070000
0.187139	0.791498	0.572100	0.005020	0.002196	0.026985	-0.487183	-0.997681	-0.679443	811	16_15_09_5150000
0.187353	0.791498	0.572100	0.012237	-0.004707	0.036084	-0.487427	-0.997559	-0.679443	812	16_15_09_5230000
0.187567	0.791498	0.571886	0.026357	0.006589	0.030122	-0.487671	-0.997559	-0.679199	813	16_15_09_5310000
0.187567	0.791711	0.571673	0.041418	0.008472	0.032319	-0.487915	-0.997681	-0.678955	814	16_15_09_5390000
0.187780	0.791711	0.571459	0.043301	0.018513	0.026671	-0.488037	-0.997803	-0.678711	815	16_15_09_5470000
0.187780	0.791925	0.571245	0.039849	0.022906	0.024788	-0.488159	-0.997925	-0.678467	816	16_15_09_5550000
0.187994	0.792138	0.571032	0.056479	0.012865	0.031377	-0.488281	-0.998047	-0.678223	817	16_15_09_5630000
0.187994	0.792352	0.570818	0.039849	0.011296	0.028240	-0.488403	-0.998169	-0.677856	818	16_15_09_5710000
0.188208	0.792352	0.570391	0.046439	0.016944	0.031377	-0.488647	-0.998291	-0.677612	819	16_15_09_5790000
0.188421	0.792566	0.570177	0.045497	0.001883	0.032005	-0.488770	-0.998413	-0.677246	820	16_15_09_5870000
0.188635	0.792779	0.569964	0.037025	0.003765	0.032633	-0.489014	-0.998535	-0.676880	821	16_15_09_5950000
0.188849	0.792779	0.569750	0.038908	0.005648	0.042360	-0.489258	-0.998535	-0.676636	822	16_15_09_6030000
0.189062	0.792993	0.569536	0.043301	0.002510	0.057735	-0.489624	-0.998535	-0.676392	823	16_15_09_6110000
0.189489	0.792993	0.569323	0.037025	0.000628	0.055852	-0.490112	-0.998535	-0.676025	824	16_15_09_6190000
0.189703	0.792993	0.569109	0.039536	0.009413	0.062441	-0.490601	-0.998535	-0.675781	825	16_15_09_6270000
0.190130	0.793207	0.568682	0.037025	0.012551	0.056166	-0.490967	-0.998535	-0.675537	826	16_15_09_6350000
0.190344	0.793207	0.568468	0.038281	0.008786	0.068403	-0.491333	-0.998413	-0.675293	827	16_15_09_6430000
0.190771	0.793420	0.568255	0.030750	0.005020	0.063382	-0.491821	-0.998413	-0.675049	828	16_15_09_6510000
0.191198	0.793420	0.568255	0.037653	0.008786	0.056479	-0.492310	-0.998291	-0.674805	829	16_15_09_6590000
0.191412	0.793420	0.567827	0.043301	0.002196	0.055852	-0.492676	-0.998291	-0.674438	830	16_15_09_6670000
0.191839	0.793634	0.567614	0.048949	0.002196	0.061814	-0.493164	-0.998291	-0.674072	831	16_15_09_6750000
0.192053	0.793847	0.567400	0.048008	-0.001255	0.049890	-0.493530	-0.998413	-0.673706	832	16_15_09_6830000
0.192480	0.793847	0.566973	0.055538	-0.012865	0.058048	-0.494019	-0.998413	-0.673340	833	16_15_09_6910000
0.192907	0.794061	0.566759	0.044242	-0.007844	0.044870	-0.494507	-0.998535	-0.672852	834	16_15_09_6990000
0.193121	0.794061	0.566332	0.030436	-0.009727	0.039222	-0.494873	-0.998535	-0.672485	835	16_15_09_7070000
0.193548	0.794275	0.566332	0.020082	-0.018826	0.043301	-0.495239	-0.998535	-0.672241	836	16_15_09_7150000
0.193762	0.794275	0.566118	0.012237	-0.018826	0.040163	-0.495728	-0.998413	-0.672119	837	16_15_09_7230000
0.194189	0.794275	0.565905	0.028867	-0.010982	0.038281	-0.496094	-0.998413	-0.671875	838	16_15_09_7310000
0.194403	0.794275	0.565691	0.034201	-0.009727	0.030122	-0.496460	-0.998413	-0.671631	839	16_15_09_7390000
0.194617	0.794488	0.565477	0.033260	-0.010668	0.027298	-0.496704	-0.998535	-0.671265	840	16_15_09_7470000
0.194830	0.794488	0.565264	0.031377	-0.016316	0.027926	-0.496948	-0.998535	-0.671021	841	16_15_09_7550000
0.195044	0.794488	0.565050	0.024474	0.000314	0.019454	-0.497192	-0.998657	-0.670654	842	16_15_09_7630000
0.195257	0.794702	0.564837	0.023219	-0.001255	0.022906	-0.497314	-0.998657	-0.670532	843	16_15_09_7710000
0.195257	0.794702	0.564837	0.014747	0.002510	0.014747	-0.497559	-0.998657	-0.670410	844	16_15_09_7790000
0.195257	0.794702	0.564623	0.005334	0.002510	0.009727	-0.497559	-0.998657	-0.670288	845	16_15_09_7870000
0.195471	0.794702	0.564623	0.016944	0.007217	0.009099	-0.497681	-0.998657	-0.670288	846	16_15_09_7950000
0.195471	0.794702	0.564409	0.012237	0.007844	-0.001883	-0.497681	-0.998779	-0.670166	847	16_15_09_8030000
0.195257	0.794916	0.564409	-0.004707	0.017258	0.001883	-0.497559	-0.998779	-0.670166	848	16_15_09_8110000
0.195257	0.794702	0.564623	-0.025416	0.007531	0.000941	-0.497559	-0.998657	-0.670288	849	16_15_09_8190000
0.195257	0.794702	0.564837	-0.023533	0.011296	-0.011296	-0.497437	-0.998535	-0.670532	850	16_15_09_8270000
0.195044	0.794488	0.564837	-0.026671	0.010982	-0.009727	-0.497314	-0.998535	-0.670776	851	16_15_09_8350000
0.195044	0.794488	0.565050	-0.023219	0.017571	-0.019140	-0.497070	-0.998413	-0.671021	852	16_15_09_8430000
0.194830	0.794275	0.565264	-0.030750	0.020709	-0.014120	-0.496948	-0.998291	-0.671265	853	16_15_09_8510000
0.194617	0.794275	0.565477	-0.034829	0.019140	-0.018199	-0.496704	-0.998169	-0.671631	854	16_15_09_8590000
0.194403	0.794061	0.565691	-0.027612	0.017885	-0.021023	-0.496460	-0.998169	-0.671997	855	16_15_09_8670000
0.194189	0.794061	0.565905	-0.033574	0.011610	-0.023219	-0.496216	-0.998047	-0.672241	856	16_15_09_8750000
0.193976	0.793847	0.566118	-0.028240	0.004393	-0.040477	-0.495850	-0.998047	-0.672485	857	16_15_09_8830000
0.193548	0.793847	0.566332	-0.033260	0.023847	-0.043615	-0.495483	-0.998047	-0.672852	858	16_15_09_8910000
0.193335	0.793847	0.566546	-0.029495	0.013806	-0.053342	-0.494995	-0.998047	-0.673096	859	16_15_09_8990000
0.192907	0.793847	0.566759	-0.031064	0.007844	-0.048949	-0.494507	-0.998047	-0.673340	860	16_15_09_9070000
0.192694	0.793634	0.566973	-0.028240	0.004707	-0.048949	-0.494141	-0.998047	-0.673706	861	16_15_09_9150000
0.192267	0.793634	0.566973	-0.021337	0.008158	-0.039849	-0.493774	-0.998169	-0.673828	862	16_15_09_9230000
0.192053	0.793634	0.567186	-0.032946	-0.002196	-0.034829	-0.493530	-0.998169	-0.674072	863	16_15_09_9310000
0.191839	0.793420	0.567400	-0.033888	0.001883	-0.041104	-0.493164	-0.998169	-0.674316	864	16_15_09_9390000
0.191626	0.793420	0.567614	-0.035457	-0.001569	-0.051145	-0.492798	-0.998047	-0.674561	865	16_15_09_9470000
0.191198	0.793207	0.567827	-0.045497	-0.002510	-0.043615	-0.492432	-0.998047	-0.674927	866	16_15_09_9550000
0.190985	0.793207	0.568041	-0.039222	0.009099	-0.037653	-0.492188	-0.998047	-0.675293	867	16_15_09_9630000
0.190771	0.792993	0.568468	-0.039536	0.007217	-0.041418	-0.491821	-0.997925	-0.675537	868	16_15_09_9710000
0.190344	0.792993	0.568682	-0.043928	0.005020	-0.052087	-0.491455	-0.997925	-0.675903	869	16_15_09_9790000
0.190130	0.792779	0.568896	-0.039849	0.001883	-0.045184	-0.490967	-0.997925	-0.676270	870	16_15_09_9870000
0.189703	0.792779	0.569109	-0.037339	0.013492	-0.040163	-0.490601	-0.997803	-0.676636	871	16_15_09_9950000
0.189489	0.792779	0.569323	-0.023533	0.028553	-0.031377	-0.490234	-0.997803	-0.676880	872	16_15_10_0030000
0.189276	0.792566	0.569536	-0.026671	0.017258	-0.036398	-0.489868	-0.997803	-0.677246	873	16_15_10_0110000
0.188849	0.792566	0.569750	-0.023533	0.007844	-0.035143	-0.489502	-0.997803	-0.677368	874	16_15_10_0190000
0.188635	0.792566	0.569964	-0.026671	0.015689	-0.022906	-0.489258	-0.997803	-0.677612	875	16_15_10_0270000
0.188421	0.792352	0.570177	-0.026671	0.003452	-0.024161	-0.489014	-0.997803	-0.677856	876	16_15_10_0350000
0.188421	0.792352	0.570177	-0.026357	-0.003765	-0.025416	-0.488770	-0.997681	-0.678101	877	16_15_10_0430000
0.188208	0.792352	0.570391	-0.021023	-0.006275	-0.016630	-0.488647	-0.997681	-0.678223	878	16_15_10_0510000
0.188208	0.792138	0.570605	-0.025102	0.007531	-0.021023	-0.488525	-0.997559	-0.678467	879	16_15_10_0590000
0.187994	0.792138	0.570605	-0.024474	-0.000314	-0.015061	-0.488403	-0.997559	-0.678711	880	16_15_10_0670000
0.187780	0.792138	0.570818	-0.019140	0.005962	-0.009727	-0.488281	-0.997437	-0.678833	881	16_15_10_0750000
0.187780	0.791925	0.571032	-0.022278	0.003765	-0.019454	-0.488159	-0.997437	-0.678955	882	16_15_10_0830000
0.187567	0.791925	0.571032	-0.018826	0.002510	-0.010041	-0.488037	-0.997437	-0.679199	883	16_15_10_0910000
0.187567	0.791925	0.571245	-0.021023	0.006903	-0.009413	-0.487915	-0.997314	-0.679321	884	16_15_10_0990000
0.187567	0.791711	0.571459	-0.018199	0.015061	0.003452	-0.487793	-0.997192	-0.679565	885	16_15_10_1070000
0.187353	0.791711	0.571459	-0.003452	0.006903	0.000000	-0.487793	-0.997192	-0.679688	886	16_15_10_1150000
0.187353	0.791711	0.571459	-0.004707	0.009099	0.009413	-0.487793	-0.997070	-0.679688	887	16_15_10_1230000
0.187353	0.791711	0.571459	-0.001569	0.015061	0.008786	-0.487793	-0.997070	-0.679810	888	16_15_10_1310000
0.187353	0.791711	0.571673	-0.001883	0.007531	0.009727	-0.487793	-0.997070	-0.679810	889	16_15_10_1390000
0.187353	0.791711	0.571673	0.001569	0.009099	0.005962	-0.487793	-0.996948	-0.679932	890	16_15_10_1470000
0.187353	0.791711	0.571459	0.012551	0.005648	0.006589	-0.487793	-0.996948	-0.679810	891	16_15_10_1550000
0.187567	0.791711	0.571459	0.003765	0.002824	0.015375	-0.487915	-0.996948	-0.679810	892	16_15_10_1630000
0.187567	0.791711	0.571459	0.013806	-0.009727	0.014434	-0.488037	-0.996948	-0.679688	893	16_15_10_1710000
0.187780	0.791711	0.571459	0.008158	-0.005648	0.007531	-0.488159	-0.997070	-0.679565	894	16_15_10_1790000
0.187780	0.791925	0.571245	0.010041	-0.006903	0.005962	-0.488281	-0.997070	-0.679443	895	16_15_10_1870000
0.187780	0.791925	0.571245	0.001883	-0.000628	0.010668	-0.488281	-0.997070	-0.679443	896	16_15_10_1950000
0.187994	0.791925	0.571245	0.014120	0.019454	0.021964	-0.488403	-0.997070	-0.679443	897	16_15_10_2030000
0.187994	0.791925	0.571032	0.026357	0.007217	0.021337	-0.488525	-0.997070	-0.679321	898	16_15_10_2110000
0.187994	0.791925	0.571032	0.007531	0.002510	0.016630	-0.488647	-0.997070	-0.679199	899	16_15_10_2190000
0.188208	0.791925	0.571032	0.014434	0.007844	0.026043	-0.488770	-0.997070	-0.679077	900	16_15_10_2270000
0.188208	0.791925	0.570818	0.003765	0.008158	0.021964	-0.488892	-0.996948	-0.679077	901	16_15_10_2350000
0.188421	0.791925	0.570818	-0.001883	0.010982	0.033260	-0.489136	-0.996948	-0.679077	902	16_15_10_2430000
0.188635	0.791925	0.570818	0.006589	-0.003765	0.042360	-0.489380	-0.996826	-0.679077	903	16_15_10_2510000
0.188849	0.791925	0.570818	0.014120	-0.008472	0.037967	-0.489746	-0.996704	-0.678955	904	16_15_10_2590000
0.189062	0.791925	0.570605	0.022592	-0.011923	0.026671	-0.489990	-0.996704	-0.678833	905	16_15_10_2670000
0.189276	0.792138	0.570605	0.021964	-0.004079	0.033888	-0.490356	-0.996704	-0.678589	906	16_15_10_2750000
0.189489	0.792138	0.570391	0.022592	0.003452	0.026043	-0.490601	-0.996704	-0.678467	907	16_15_10_2830000
0.189703	0.792138	0.570177	0.032319	0.001883	0.029495	-0.490723	-0.996704	-0.678223	908	16_15_10_2910000
0.189917	0.792352	0.569964	0.029181	-0.013179	0.035770	-0.490967	-0.996704	-0.677979	909	16_15_10_2990000
0.190344	0.792352	0.569750	0.030750	-0.016944	0.051773	-0.491455	-0.996704	-0.677612	910	16_15_10_3070000
0.190771	0.792566	0.569536	0.027298	-0.024474	0.044870	-0.491943	-0.996704	-0.677368	911	16_15_10_3150000
0.190985	0.792566	0.569323	0.028553	-0.029181	0.042046	-0.492432	-0.996704	-0.677002	912	16_15_10_3230000
0.191412	0.792566	0.569109	0.021964	-0.041732	0.047694	-0.492920	-0.996582	-0.676758	913	16_15_10_3310000
0.192053	0.792566	0.568896	0.031377	-0.035457	0.049890	-0.493530	-0.996582	-0.676392	914	16_15_10_3390000
0.192480	0.792779	0.568682	0.042360	-0.036084	0.054597	-0.494141	-0.996582	-0.675903	915	16_15_10_3470000
0.192907	0.792779	0.568468	0.043928	-0.036712	0.059931	-0.494751	-0.996582	-0.675415	916	16_15_10_3550000
0.193548	0.792993	0.568041	0.032946	-0.031064	0.063696	-0.495483	-0.996582	-0.675049	917	16_15_10_3630000
0.193976	0.792993	0.567827	0.023219	-0.014747	0.052400	-0.495972	-0.996460	-0.674683	918	16_15_10_3710000
0.194403	0.792993	0.567614	0.027926	-0.015375	0.055224	-0.496460	-0.996338	-0.674438	919	16_15_10_3790000
0.194830	0.792993	0.567400	0.016630	-0.009413	0.050204	-0.496948	-0.996338	-0.674194	920	16_15_10_3870000
0.195044	0.792993	0.567400	0.012865	-0.008158	0.050832	-0.497437	-0.996216	-0.674072	921	16_15_10_3950000
0.195471	0.792993	0.567400	-0.005962	-0.016630	0.031691	-0.497803	-0.996094	-0.673950	922	16_15_10_4030000
0.195685	0.792779	0.567400	-0.000628	-0.013492	0.047066	-0.498169	-0.995850	-0.673950	923	16_15_10_4110000
0.196112	0.792779	0.567186	0.009727	-0.008786	0.052400	-0.498657	-0.995728	-0.673828	924	16_15_10_4190000
0.196539	0.792779	0.567186	0.011610	-0.019140	0.053028	-0.499146	-0.995605	-0.673706	925	16_15_10_4270000
0.196966	0.792779	0.566973	0.007844	-0.009413	0.065893	-0.499634	-0.995361	-0.673584	926	16_15_10_4350000
0.197394	0.792566	0.566973	-0.002510	-0.004393	0.058676	-0.500122	-0.995117	-0.673584	927	16_15_10_4430000
0.197607	0.792566	0.566973	0.002196	-0.009413	0.049890	-0.500610	-0.994873	-0.673462	928	16_15_10_4510000
0.198035	0.792566	0.566973	0.002196	-0.015375	0.055852	-0.501099	-0.994751	-0.673462	929	16_15_10_4590000
0.198462	0.792566	0.566973	0.010668	-0.008472	0.056166	-0.501587	-0.994507	-0.673340	930	16_15_10_4670000
0.198889	0.792352	0.566759	0.017258	0.006275	0.065265	-0.502075	-0.994385	-0.673218	931	16_15_10_4750000
0.199103	0.792352	0.566759	0.012551	0.002196	0.069658	-0.502563	-0.994141	-0.673096	932	16_15_10_4830000
0.199744	0.792352	0.566546	0.031064	-0.002196	0.078130	-0.503174	-0.994019	-0.672974	933	16_15_10_4910000
0.200171	0.792566	0.566332	0.032946	0.009413	0.092250	-0.503784	-0.993896	-0.672729	934	16_15_10_4990000
0.200812	0.792566	0.566118	0.040791	0.011610	0.105742	-0.504517	-0.993652	-0.672485	935	16_15_10_5070000
0.201239	0.792566	0.565905	0.039849	0.022906	0.094446	-0.505249	-0.993408	-0.672241	936	16_15_10_5150000
0.201880	0.792566	0.565691	0.034201	0.029809	0.112018	-0.505859	-0.993286	-0.671997	937	16_15_10_5230000
0.202307	0.792566	0.565477	0.051773	0.034201	0.120176	-0.506592	-0.993042	-0.671875	938	16_15_10_5310000
0.202948	0.792566	0.565050	0.053969	0.036712	0.124255	-0.507324	-0.992798	-0.671509	939	16_15_10_5390000
0.203589	0.792566	0.564837	0.058990	0.033574	0.133354	-0.508179	-0.992554	-0.671265	940	16_15_10_5470000
0.204230	0.792566	0.564623	0.037653	0.046439	0.126765	-0.508911	-0.992310	-0.671021	941	16_15_10_5550000
0.204871	0.792566	0.564409	0.019140	0.032005	0.123000	-0.509766	-0.991943	-0.670898	942	16_15_10_5630000
0.205512	0.792352	0.564409	0.000000	0.025102	0.123941	-0.510498	-0.991577	-0.671021	943	16_15_10_5710000
0.206153	0.792138	0.564409	0.001569	0.019454	0.116410	-0.511353	-0.991089	-0.671021	944	16_15_10_5790000
0.206793	0.791925	0.564409	0.010041	0.021964	0.096956	-0.512085	-0.990601	-0.671143	945	16_15_10_5870000
0.207221	0.791925	0.564409	0.002510	0.015061	0.098211	-0.512695	-0.990356	-0.671143	946	16_15_10_5950000
0.207862	0.791711	0.564409	-0.007531	0.004707	0.093819	-0.513428	-0.989868	-0.671143	947	16_15_10_6030000
0.208502	0.791498	0.564409	-0.006903	0.010355	0.091622	-0.514038	-0.989502	-0.671265	948	16_15_10_6110000
0.208930	0.791284	0.564623	-0.022906	0.004707	0.085660	-0.514771	-0.989014	-0.671387	949	16_15_10_6190000
0.209357	0.791070	0.564837	-0.040163	-0.002196	0.074365	-0.515381	-0.988525	-0.671631	950	16_15_10_6270000
0.209784	0.790643	0.565050	-0.039222	0.002824	0.063696	-0.515869	-0.988037	-0.671875	951	16_15_10_6350000
0.210212	0.790429	0.565264	-0.023533	0.016316	0.067462	-0.516357	-0.987671	-0.672241	952	16_15_10_6430000
0.210425	0.790216	0.565477	-0.017258	0.031064	0.059931	-0.516724	-0.987305	-0.672485	953	16_15_10_6510000
0.210639	0.790216	0.565477	-0.005020	0.022592	0.050204	-0.516968	-0.987061	-0.672607	954	16_15_10_6590000
0.210852	0.790002	0.565477	0.006589	0.021337	0.048635	-0.517212	-0.986816	-0.672729	955	16_15_10_6670000
0.211066	0.790002	0.565477	-0.019768	0.012237	0.047066	-0.517578	-0.986572	-0.672852	956	16_15_10_6750000
0.211280	0.789788	0.565691	-0.037653	0.011610	0.042673	-0.517822	-0.986206	-0.673096	957	16_15_10_6830000
0.211493	0.789361	0.566118	-0.045811	-0.002196	0.037653	-0.518066	-0.985840	-0.673462	958	16_15_10_6910000
0.211707	0.789148	0.566332	-0.056479	-0.007844	0.034829	-0.518433	-0.985474	-0.673828	959	16_15_10_6990000
0.212134	0.788934	0.566759	-0.056793	-0.018826	0.028240	-0.518799	-0.984985	-0.674194	960	16_15_10_7070000
0.212348	0.788507	0.566973	-0.050518	-0.017885	0.037339	-0.519043	-0.984619	-0.674561	961	16_15_10_7150000
0.212561	0.788293	0.567186	-0.043615	-0.007531	0.046439	-0.519531	-0.984253	-0.674805	962	16_15_10_7230000
0.212989	0.788079	0.567614	-0.039222	0.000000	0.069658	-0.520020	-0.983765	-0.675049	963	16_15_10_7310000
0.213416	0.787866	0.567827	-0.027298	0.008472	0.092564	-0.520508	-0.983276	-0.675415	964	16_15_10_7390000
0.214057	0.787439	0.568041	-0.024474	0.005020	0.124569	-0.521362	-0.982666	-0.675537	965	16_15_10_7470000
0.214911	0.787225	0.568041	-0.031377	0.000628	0.150298	-0.522461	-0.981934	-0.675781	966	16_15_10_7550000
0.215979	0.786798	0.568255	-0.043928	0.002196	0.188892	-0.523682	-0.981079	-0.676147	967	16_15_10_7630000
0.217048	0.786370	0.568682	-0.050832	0.000628	0.207719	-0.525146	-0.979980	-0.676514	968	16_15_10_7710000
0.218543	0.785730	0.568896	-0.043928	0.015375	0.241607	-0.526855	-0.978882	-0.676880	969	16_15_10_7790000
0.219825	0.785089	0.569109	-0.040791	0.032633	0.266081	-0.528687	-0.977539	-0.677246	970	16_15_10_7870000
0.221320	0.784661	0.569323	-0.005962	0.043928	0.278632	-0.530518	-0.976318	-0.677612	971	16_15_10_7950000
0.222816	0.784448	0.569323	0.055224	0.054283	0.293693	-0.532471	-0.975220	-0.677612	972	16_15_10_8030000
0.224311	0.784234	0.568896	0.096015	0.079385	0.289300	-0.534302	-0.974487	-0.677246	973	16_15_10_8110000
0.225806	0.784234	0.568255	0.142140	0.090367	0.286790	-0.536133	-0.973877	-0.676758	974	16_15_10_8190000
0.227088	0.784448	0.567614	0.134923	0.099780	0.301851	-0.537842	-0.973389	-0.676025	975	16_15_10_8270000
0.228370	0.784448	0.566973	0.134609	0.104487	0.307185	-0.539551	-0.972778	-0.675537	976	16_15_10_8350000
0.229865	0.784448	0.566332	0.125510	0.093819	0.322247	-0.541504	-0.972168	-0.674927	977	16_15_10_8430000
0.231574	0.784234	0.565691	0.111704	0.095701	0.342328	-0.543457	-0.971313	-0.674438	978	16_15_10_8510000
0.233283	0.784020	0.565477	0.076247	0.075620	0.374647	-0.545776	-0.970337	-0.674072	979	16_15_10_8590000
0.235420	0.783593	0.565264	0.032319	0.068717	0.409790	-0.548340	-0.968994	-0.673950	980	16_15_10_8670000
0.237770	0.782739	0.565264	-0.013492	0.069972	0.459366	-0.551270	-0.967163	-0.674194	981	16_15_10_8750000
0.240333	0.781671	0.565691	-0.063069	0.086288	0.526200	-0.554565	-0.964844	-0.674805	982	16_15_10_8830000
0.243324	0.780389	0.566332	-0.080326	0.100722	0.590210	-0.558228	-0.962036	-0.675659	983	16_15_10_8910000
0.246529	0.779107	0.566973	-0.065579	0.123313	0.639473	-0.562256	-0.958984	-0.676758	984	16_15_10_8990000
0.249947	0.777612	0.567614	-0.021337	0.153122	0.681205	-0.566528	-0.955811	-0.677612	985	16_15_10_9070000
0.253365	0.776543	0.567827	0.041104	0.182931	0.714465	-0.570801	-0.952759	-0.678345	986	16_15_10_9150000
0.256783	0.775475	0.567827	0.124255	0.208346	0.730154	-0.575073	-0.949951	-0.678589	987	16_15_10_9230000
0.260414	0.775048	0.566973	0.244744	0.223408	0.733919	-0.579346	-0.947632	-0.678223	988	16_15_10_9310000
0.263833	0.774834	0.565691	0.367430	0.228742	0.729526	-0.583618	-0.945923	-0.676880	989	16_15_10_9390000
0.267251	0.775262	0.563555	0.462190	0.216505	0.713210	-0.587769	-0.944824	-0.674927	990	16_15_10_9470000
0.270669	0.775903	0.560991	0.494823	0.176655	0.692815	-0.591919	-0.944092	-0.672241	991	16_15_10_9550000
0.274087	0.776543	0.558428	0.470976	0.128020	0.647003	-0.596069	-0.943481	-0.669434	992	16_15_10_9630000
0.277718	0.776757	0.556078	0.378412	0.070913	0.620960	-0.600220	-0.942749	-0.666748	993	16_15_10_9710000
0.281137	0.776971	0.553941	0.298714	0.020709	0.576718	-0.604370	-0.941650	-0.664429	994	16_15_10_9790000
0.284555	0.776543	0.552446	0.204581	-0.016630	0.536241	-0.608398	-0.940308	-0.662598	995	16_15_10_9870000
0.287759	0.776116	0.551378	0.120803	-0.047380	0.499843	-0.612427	-0.938721	-0.661255	996	16_15_10_9950000
0.290963	0.775262	0.550737	0.049890	-0.068403	0.465014	-0.616211	-0.936890	-0.660400	997	16_15_11_0030000
0.293954	0.774407	0.550523	0.021023	-0.079071	0.436774	-0.619873	-0.934814	-0.659668	998	16_15_11_0110000
0.296731	0.773339	0.550096	0.020709	-0.071854	0.396297	-0.623291	-0.932861	-0.659180	999	16_15_11_0190000
0.299295	0.772698	0.549669	0.073423	-0.064324	0.354252	-0.626465	-0.931274	-0.658447	1000	16_15_11_0270000
0.301431	0.772485	0.549028	0.124882	-0.046439	0.306558	-0.629150	-0.930176	-0.657471	1001	16_15_11_0350000
0.303354	0.772271	0.548173	0.162222	-0.039222	0.270160	-0.631470	-0.929565	-0.656250	1002	16_15_11_0430000
0.305063	0.772485	0.546892	0.192971	-0.027612	0.219642	-0.633423	-0.929199	-0.654785	1003	16_15_11_0510000
0.306345	0.772698	0.545824	0.197364	-0.021650	0.172576	-0.634888	-0.929199	-0.653198	1004	16_15_11_0590000
0.307199	0.773125	0.544542	0.179165	-0.017258	0.128334	-0.636108	-0.929443	-0.651733	1005	16_15_11_0670000
0.308054	0.773553	0.543687	0.130844	-0.028553	0.093505	-0.637085	-0.929688	-0.650513	1006	16_15_11_0750000
0.308695	0.773766	0.542833	0.099780	-0.042360	0.059303	-0.637817	-0.929810	-0.649536	1007	16_15_11_0830000
0.309122	0.773980	0.542192	0.051459	-0.057735	0.043615	-0.638428	-0.929932	-0.648682	1008	16_15_11_0910000
0.309763	0.773980	0.541978	0.022278	-0.068403	0.018826	-0.639038	-0.929932	-0.648071	1009	16_15_11_0990000
0.309976	0.773766	0.541765	-0.026357	-0.077502	0.000941	-0.639404	-0.929932	-0.647705	1010	16_15_11_1070000
0.310404	0.773553	0.541765	-0.042673	-0.077816	-0.003765	-0.639893	-0.929688	-0.647583	1011	16_15_11_1150000
0.310617	0.773553	0.541765	-0.047066	-0.071854	-0.011610	-0.640137	-0.929565	-0.647583	1012	16_15_11_1230000
0.310831	0.773339	0.541978	-0.046125	-0.058676	-0.016630	-0.640381	-0.929321	-0.647583	1013	16_15_11_1310000
0.311045	0.773125	0.541978	-0.029181	-0.056166	-0.021023	-0.640625	-0.929199	-0.647461	1014	16_15_11_1390000
0.311258	0.773125	0.541978	0.011610	-0.048321	-0.020395	-0.640747	-0.929321	-0.647339	1015	16_15_11_1470000
0.311258	0.773339	0.541765	0.025730	-0.046439	-0.027926	-0.640747	-0.929443	-0.646973	1016	16_15_11_1550000
0.311258	0.773553	0.541337	0.029181	-0.050204	-0.030436	-0.640747	-0.929688	-0.646484	1017	16_15_11_1630000
0.311258	0.773766	0.541124	0.014747	-0.064638	-0.044242	-0.640869	-0.930054	-0.645996	1018	16_15_11_1710000
0.311258	0.773766	0.540910	-0.010041	-0.066206	-0.045497	-0.640869	-0.930298	-0.645630	1019	16_15_11_1790000
0.311258	0.773980	0.540910	-0.019140	-0.080013	-0.051145	-0.640869	-0.930420	-0.645386	1020	16_15_11_1870000
0.311258	0.773980	0.540910	-0.023533	-0.090367	-0.052400	-0.640991	-0.930542	-0.645142	1021	16_15_11_1950000
0.311472	0.773980	0.540696	-0.020709	-0.106997	-0.054597	-0.640991	-0.930664	-0.644775	1022	16_15_11_2030000
0.311472	0.774194	0.540483	-0.016003	-0.116724	-0.057735	-0.641235	-0.930908	-0.644287	1023	16_15_11_2110000
0.311472	0.774194	0.540269	0.011296	-0.091308	-0.044870	-0.641357	-0.931152	-0.643799	1024	16_15_11_2190000
0.311686	0.774407	0.540056	0.038281	-0.104173	-0.029181	-0.641602	-0.931396	-0.643066	1025	16_15_11_2270000
0.311899	0.774834	0.539415	0.052714	-0.091308	-0.022906	-0.641968	-0.931763	-0.642334	1026	16_15_11_2350000
0.312113	0.775048	0.538987	0.052714	-0.080013	-0.018199	-0.642212	-0.932129	-0.641479	1027	16_15_11_2430000
0.312326	0.775262	0.538347	0.058990	-0.057107	-0.005648	-0.642456	-0.932373	-0.640747	1028	16_15_11_2510000
0.312754	0.775475	0.537919	0.062441	-0.053028	0.020709	-0.642822	-0.932617	-0.640015	1029	16_15_11_2590000
0.312967	0.775903	0.537278	0.083778	-0.031691	0.032946	-0.643188	-0.932861	-0.639282	1030	16_15_11_2670000
0.313395	0.776116	0.536637	0.094132	-0.023219	0.033574	-0.643555	-0.933105	-0.638428	1031	16_15_11_2750000
0.313608	0.776543	0.535997	0.106370	-0.021337	0.047694	-0.644043	-0.933472	-0.637573	1032	16_15_11_2830000
0.314035	0.776757	0.535356	0.117352	-0.013179	0.052087	-0.644531	-0.933716	-0.636719	1033	16_15_11_2910000
0.314463	0.777184	0.534501	0.118607	-0.008786	0.046752	-0.644897	-0.934082	-0.635742	1034	16_15_11_2990000
0.314676	0.777612	0.533860	0.114842	0.003452	0.057735	-0.645264	-0.934326	-0.634888	1035	16_15_11_3070000
0.315104	0.778039	0.533006	0.106370	-0.000314	0.047380	-0.645630	-0.934570	-0.634033	1036	16_15_11_3150000
0.315317	0.778252	0.532365	0.086602	-0.011923	0.048949	-0.646118	-0.934814	-0.633301	1037	16_15_11_3230000
0.315744	0.778466	0.531938	0.086602	-0.024788	0.043301	-0.646484	-0.935059	-0.632568	1038	16_15_11_3310000
0.315958	0.778680	0.531297	0.074678	-0.027926	0.025730	-0.646851	-0.935181	-0.631836	1039	16_15_11_3390000
0.316172	0.778893	0.530869	0.064324	-0.030122	0.011296	-0.647217	-0.935425	-0.631226	1040	16_15_11_3470000
0.316385	0.779107	0.530442	0.044870	-0.032319	0.014434	-0.647461	-0.935669	-0.630615	1041	16_15_11_3550000
0.316599	0.779321	0.530015	0.048321	-0.014120	0.020395	-0.647705	-0.935791	-0.630127	1042	16_15_11_3630000
0.316813	0.779534	0.529801	0.047066	-0.000314	0.019454	-0.647827	-0.935913	-0.629761	1043	16_15_11_3710000
0.316813	0.779534	0.529374	0.054597	0.025730	0.019140	-0.647949	-0.936035	-0.629395	1044	16_15_11_3790000
0.316813	0.779748	0.529160	0.077816	0.043615	0.020395	-0.647949	-0.936157	-0.629150	1045	16_15_11_3870000
0.316813	0.779962	0.528733	0.090053	0.055538	0.036398	-0.647949	-0.936523	-0.628784	1046	16_15_11_3950000
0.316813	0.780389	0.528306	0.096329	0.056166	0.030122	-0.647827	-0.936768	-0.628296	1047	16_15_11_4030000
0.316813	0.780602	0.527879	0.089426	0.048008	0.039222	-0.647949	-0.937012	-0.627930	1048	16_15_11_4110000
0.316813	0.780816	0.527451	0.052087	0.038281	0.038594	-0.647949	-0.937134	-0.627563	1049	16_15_11_4190000
0.317026	0.780816	0.527451	0.020082	0.024161	0.030436	-0.648071	-0.937134	-0.627441	1050	16_15_11_4270000
0.317026	0.780816	0.527451	0.001255	0.027926	0.026043	-0.648193	-0.937012	-0.627563	1051	16_15_11_4350000
0.317026	0.780816	0.527451	-0.004079	0.019768	0.008472	-0.648193	-0.936890	-0.627686	1052	16_15_11_4430000
0.317026	0.780816	0.527451	-0.001883	0.009727	-0.005334	-0.648193	-0.936890	-0.627686	1053	16_15_11_4510000
0.316813	0.780816	0.527451	0.002824	0.009099	-0.030122	-0.647949	-0.936890	-0.627686	1054	16_15_11_4590000
0.316813	0.780816	0.527451	-0.001255	-0.001569	-0.031377	-0.647705	-0.937134	-0.627808	1055	16_15_11_4670000
0.316599	0.781030	0.527451	0.008472	-0.011923	-0.045811	-0.647461	-0.937256	-0.627686	1056	16_15_11_4750000
0.316385	0.781030	0.527451	-0.008158	-0.012237	-0.047066	-0.647217	-0.937500	-0.627563	1057	16_15_11_4830000
0.316172	0.781030	0.527451	-0.027298	-0.016316	-0.040791	-0.646973	-0.937622	-0.627686	1058	16_15_11_4910000
0.315958	0.781030	0.527665	-0.025102	-0.020082	-0.040477	-0.646729	-0.937622	-0.627686	1059	16_15_11_4990000
0.315958	0.781030	0.527665	-0.031064	-0.024474	-0.024474	-0.646606	-0.937744	-0.627808	1060	16_15_11_5070000
0.315958	0.781030	0.527879	-0.031064	-0.021023	-0.017258	-0.646606	-0.937622	-0.627930	1061	16_15_11_5150000
0.315744	0.780816	0.527879	-0.020082	-0.021023	-0.019454	-0.646606	-0.937622	-0.627930	1062	16_15_11_5230000
0.315744	0.780816	0.528092	-0.025730	-0.017571	-0.019768	-0.646606	-0.937500	-0.628052	1063	16_15_11_5310000
0.315744	0.780816	0.528092	-0.026357	-0.012865	-0.016003	-0.646484	-0.937500	-0.628174	1064	16_15_11_5390000
0.315744	0.780816	0.528092	-0.010982	-0.012551	-0.022278	-0.646484	-0.937500	-0.628174	1065	16_15_11_5470000
0.315531	0.780816	0.528306	-0.008158	-0.003452	-0.024474	-0.646362	-0.937500	-0.628174	1066	16_15_11_5550000
0.315531	0.780816	0.528306	-0.019454	-0.013179	-0.026671	-0.646240	-0.937622	-0.628296	1067	16_15_11_5630000
0.315317	0.780816	0.528306	-0.023219	-0.008472	-0.018513	-0.646118	-0.937622	-0.628418	1068	16_15_11_5710000
0.315317	0.780816	0.528520	-0.018199	-0.021337	-0.019140	-0.645996	-0.937622	-0.628418	1069	16_15_11_5790000
0.315317	0.780602	0.528520	-0.037653	-0.019454	-0.003452	-0.646118	-0.937500	-0.628540	1070	16_15_11_5870000
0.315317	0.780602	0.528733	-0.023847	-0.025102	-0.005648	-0.646118	-0.937378	-0.628662	1071	16_15_11_5950000
0.315531	0.780602	0.528733	-0.013179	-0.020082	0.005648	-0.646240	-0.937256	-0.628662	1072	16_15_11_6030000
0.315531	0.780389	0.528733	-0.016316	-0.028240	0.001883	-0.646362	-0.937134	-0.628662	1073	16_15_11_6110000
0.315744	0.780389	0.528733	-0.017258	-0.018513	0.000314	-0.646484	-0.937012	-0.628540	1074	16_15_11_6190000
0.315744	0.780389	0.528947	-0.024788	-0.019768	-0.011923	-0.646606	-0.936890	-0.628662	1075	16_15_11_6270000
0.315744	0.780175	0.528947	-0.024161	-0.021650	-0.011923	-0.646606	-0.936890	-0.628662	1076	16_15_11_6350000
0.315744	0.780175	0.529160	-0.027612	-0.007844	-0.005334	-0.646606	-0.936768	-0.628784	1077	16_15_11_6430000
0.315744	0.779962	0.529160	-0.033260	-0.005020	-0.006275	-0.646606	-0.936646	-0.629028	1078	16_15_11_6510000
0.315744	0.779962	0.529374	-0.020709	0.000000	-0.009413	-0.646606	-0.936523	-0.629150	1079	16_15_11_6590000
0.315531	0.779962	0.529588	-0.005648	0.016003	-0.013806	-0.646484	-0.936523	-0.629272	1080	16_15_11_6670000
0.315531	0.779962	0.529588	0.007844	0.026043	-0.002510	-0.646362	-0.936523	-0.629395	1081	16_15_11_6750000
0.315317	0.779962	0.529588	-0.003765	0.029495	-0.008158	-0.646118	-0.936523	-0.629517	1082	16_15_11_6830000
0.315104	0.779962	0.529801	-0.013806	0.043615	-0.018513	-0.645874	-0.936523	-0.629761	1083	16_15_11_6910000
0.314676	0.779962	0.529801	-0.020709	0.055224	-0.026671	-0.645508	-0.936646	-0.630127	1084	16_15_11_6990000
0.314463	0.779962	0.530229	-0.020082	0.048321	-0.008786	-0.645142	-0.936523	-0.630493	1085	16_15_11_7070000
0.314249	0.779748	0.530442	-0.016630	0.051145	-0.007531	-0.644775	-0.936523	-0.630859	1086	16_15_11_7150000
0.314035	0.779748	0.530656	-0.014434	0.058362	-0.008472	-0.644531	-0.936401	-0.631226	1087	16_15_11_7230000
0.313608	0.779748	0.530869	-0.024788	0.034515	-0.015061	-0.644165	-0.936401	-0.631592	1088	16_15_11_7310000
0.313395	0.779748	0.531083	-0.020082	0.030750	-0.018826	-0.643921	-0.936401	-0.631958	1089	16_15_11_7390000
0.313181	0.779748	0.531083	-0.017885	0.028553	-0.015689	-0.643677	-0.936279	-0.632202	1090	16_15_11_7470000
0.312967	0.779534	0.531510	-0.037339	0.030122	-0.011296	-0.643433	-0.936279	-0.632568	1091	16_15_11_7550000
0.312967	0.779321	0.531724	-0.044556	0.023847	-0.004393	-0.643311	-0.936035	-0.632935	1092	16_15_11_7630000
0.312754	0.779321	0.532151	-0.043301	0.021337	-0.005962	-0.643066	-0.935913	-0.633423	1093	16_15_11_7710000
0.312754	0.779107	0.532365	-0.037967	0.008158	-0.007217	-0.643066	-0.935669	-0.633789	1094	16_15_11_7790000
0.312540	0.778893	0.532579	-0.027612	0.003138	-0.001569	-0.642944	-0.935547	-0.634033	1095	16_15_11_7870000
0.312540	0.778893	0.532792	-0.021023	0.004707	0.004393	-0.642944	-0.935425	-0.634155	1096	16_15_11_7950000
0.312540	0.778680	0.533006	-0.040791	0.005020	0.019454	-0.643066	-0.935181	-0.634399	1097	16_15_11_8030000
0.312754	0.778466	0.533219	-0.045811	-0.007531	0.018826	-0.643188	-0.934814	-0.634766	1098	16_15_11_8110000
0.312967	0.778252	0.533647	-0.052087	-0.010668	0.012237	-0.643311	-0.934570	-0.635010	1099	16_15_11_8190000
0.312967	0.778039	0.533860	-0.042673	-0.003765	0.019768	-0.643555	-0.934204	-0.635254	1100	16_15_11_8270000
0.313181	0.778039	0.534074	-0.007844	0.002824	0.013179	-0.643677	-0.933960	-0.635498	1101	16_15_11_8350000
0.313181	0.778039	0.534074	0.001255	0.016944	0.025730	-0.643799	-0.933838	-0.635498	1102	16_15_11_8430000
0.313181	0.777825	0.534074	0.019768	0.010041	0.026043	-0.643921	-0.933716	-0.635498	1103	16_15_11_8510000
0.313395	0.778039	0.533860	0.035770	0.002824	0.024474	-0.644043	-0.933716	-0.635376	1104	16_15_11_8590000
0.313395	0.778039	0.533647	0.024474	0.006275	0.012865	-0.644165	-0.933838	-0.635132	1105	16_15_11_8670000
0.313608	0.778039	0.533433	0.013179	0.000000	0.011296	-0.644287	-0.933838	-0.635010	1106	16_15_11_8750000
0.313608	0.778039	0.533433	-0.006903	-0.005648	0.010355	-0.644287	-0.933716	-0.635010	1107	16_15_11_8830000
0.313608	0.778039	0.533433	-0.010355	-0.009727	0.005648	-0.644409	-0.933716	-0.635010	1108	16_15_11_8910000
0.313822	0.777825	0.533647	-0.032633	-0.003765	0.003765	-0.644531	-0.933594	-0.635132	1109	16_15_11_8990000
0.313822	0.777825	0.533860	-0.041732	-0.006589	-0.020709	-0.644531	-0.933350	-0.635376	1110	16_15_11_9070000
0.313608	0.777612	0.534074	-0.046125	-0.010982	-0.016003	-0.644409	-0.933228	-0.635620	1111	16_15_11_9150000
0.313608	0.777398	0.534288	-0.035457	-0.003138	-0.031691	-0.644287	-0.933105	-0.635864	1112	16_15_11_9230000
0.313395	0.777398	0.534501	-0.032946	-0.006903	-0.049890	-0.644043	-0.933228	-0.636108	1113	16_15_11_9310000
0.312967	0.777398	0.534715	-0.040163	-0.001569	-0.057421	-0.643677	-0.933228	-0.636230	1114	16_15_11_9390000
0.312754	0.777184	0.534928	-0.054597	-0.007844	-0.049890	-0.643311	-0.933228	-0.636597	1115	16_15_11_9470000
0.312540	0.777184	0.535356	-0.068403	-0.005020	-0.056166	-0.642944	-0.933228	-0.636963	1116	16_15_11_9550000
0.312113	0.776971	0.535783	-0.067462	0.005334	-0.060559	-0.642578	-0.933228	-0.637451	1117	16_15_11_9630000
0.311686	0.776971	0.536210	-0.043301	0.012551	-0.046125	-0.642090	-0.933105	-0.637939	1118	16_15_11_9710000
0.311472	0.776971	0.536424	-0.036084	0.022906	-0.039536	-0.641724	-0.933105	-0.638306	1119	16_15_11_9790000
0.311045	0.776971	0.536637	-0.021337	0.033260	-0.015061	-0.641357	-0.933105	-0.638672	1120	16_15_11_9870000
0.310831	0.776971	0.536851	-0.012237	0.033574	-0.016316	-0.641113	-0.933105	-0.638916	1121	16_15_11_9950000
0.310617	0.776971	0.536851	-0.002196	0.028867	-0.025730	-0.640869	-0.933228	-0.639160	1122	16_15_12_0030000
0.310404	0.776971	0.537065	-0.008786	0.027612	-0.026671	-0.640503	-0.933228	-0.639282	1123	16_15_12_0110000
0.309976	0.776971	0.537065	-0.010041	0.028240	-0.033260	-0.640137	-0.933350	-0.639526	1124	16_15_12_0190000
0.309763	0.776971	0.537278	-0.016003	0.019454	-0.039536	-0.639771	-0.933472	-0.639648	1125	16_15_12_0270000
