sensor_ID	000666015711
Accel_X	Accel_Y	Accel_Z	Roll	Pitch	Yaw	Mag_X	Mag_Y	Mag_Z	Count	SysTime
0.073242	-0.205078	0.711914	-0.778068	-0.318727	-0.478090	-0.351563	-0.046875	-0.164063	0	16_30_31_3438700
0.076172	-0.216797	0.694336	-0.778068	-0.318727	-0.478090	-0.351563	-0.058594	-0.105469	1	16_30_31_3599990
0.079102	-0.228516	0.700195	-0.787443	-0.318727	-0.459342	-0.351563	-0.070313	-0.093750	2	16_30_31_3761280
0.084961	-0.208008	0.711914	-0.778068	-0.318727	-0.459342	-0.351563	-0.105469	-0.093750	3	16_30_31_3922570
0.070313	-0.205078	0.691406	-0.778068	-0.318727	-0.459342	-0.351563	-0.117188	-0.082031	4	16_30_31_4083860
0.067383	-0.210938	0.694336	-0.778068	-0.309353	-0.459342	-0.351563	-0.117188	-0.058594	5	16_30_31_4245150
0.064453	-0.216797	0.703125	-0.778068	-0.309353	-0.459342	-0.351563	-0.093750	-0.011719	6	16_30_31_4406440
0.070313	-0.210938	0.694336	-0.768694	-0.299978	-0.459342	-0.339844	-0.082031	-0.035156	7	16_30_31_4567730
0.064453	-0.219727	0.685547	-0.778068	-0.299978	-0.449967	-0.351563	-0.093750	-0.035156	8	16_30_31_4729020
0.058594	-0.222656	0.697266	-0.768694	-0.299978	-0.449967	-0.351563	-0.082031	-0.058594	9	16_30_31_4890310
0.067383	-0.210938	0.700195	-0.778068	-0.299978	-0.440593	-0.351563	-0.117188	-0.117188	10	16_30_31_5051600
0.052734	-0.219727	0.694336	-0.768694	-0.299978	-0.440593	-0.351563	-0.070313	-0.140625	11	16_30_31_5212890
0.046875	-0.222656	0.691406	-0.778068	-0.299978	-0.440593	-0.351563	-0.058594	-0.117188	12	16_30_31_5374180
0.061523	-0.222656	0.691406	-0.768694	-0.299978	-0.449967	-0.351563	-0.070313	-0.093750	13	16_30_31_5535470
0.041016	-0.225586	0.688477	-0.768694	-0.299978	-0.449967	-0.351563	-0.105469	-0.093750	14	16_30_31_5696760
0.026367	-0.205078	0.688477	-0.759320	-0.299978	-0.459342	-0.363281	-0.082031	-0.082031	15	16_30_31_5858050
0.026367	-0.208008	0.682617	-0.768694	-0.299978	-0.459342	-0.234375	0.023438	-0.011719	16	16_30_31_6019340
0.035156	-0.222656	0.682617	-0.768694	-0.299978	-0.468716	-0.351563	-0.058594	-0.070313	17	16_30_31_6180630
0.023438	-0.231445	0.694336	-0.768694	-0.299978	-0.478090	-0.351563	-0.082031	-0.046875	18	16_30_31_6341920
0.023438	-0.216797	0.685547	-0.759320	-0.299978	-0.487465	-0.363281	-0.128906	-0.070313	19	16_30_31_6503210
0.043945	-0.222656	0.682617	-0.759320	-0.309353	-0.496839	-0.351563	-0.082031	-0.082031	20	16_30_31_6664500
0.052734	-0.219727	0.700195	-0.768694	-0.299978	-0.496839	-0.363281	-0.070313	-0.046875	21	16_30_31_6825790
0.046875	-0.219727	0.694336	-0.759320	-0.299978	-0.496839	-0.339844	-0.117188	-0.070313	22	16_30_31_6987080
0.035156	-0.222656	0.691406	-0.759320	-0.299978	-0.487465	-0.351563	-0.117188	-0.105469	23	16_30_31_7148370
0.032227	-0.213867	0.703125	-0.759320	-0.299978	-0.478090	-0.351563	-0.058594	-0.093750	24	16_30_31_7309660
0.026367	-0.225586	0.691406	-0.759320	-0.299978	-0.478090	-0.351563	-0.046875	-0.046875	25	16_30_31_7470950
0.002930	-0.240234	0.682617	-0.768694	-0.309353	-0.478090	-0.351563	-0.070313	-0.070313	26	16_30_31_7632240
0.008789	-0.231445	0.676758	-0.759320	-0.318727	-0.487465	-0.257813	-0.046875	-0.023438	27	16_30_31_7793530
0.005859	-0.231445	0.665039	-0.759320	-0.328101	-0.487465	-0.363281	-0.082031	-0.082031	28	16_30_31_7954820
0.017578	-0.216797	0.679688	-0.768694	-0.328101	-0.496839	-0.316406	-0.082031	-0.035156	29	16_30_31_8116110
0.020508	-0.222656	0.676758	-0.768694	-0.318727	-0.506213	-0.304688	-0.082031	0.000000	30	16_30_31_8277400
0.008789	-0.234375	0.673828	-0.759320	-0.318727	-0.506213	-0.351563	-0.105469	-0.023438	31	16_30_31_8438690
0.000000	-0.231445	0.679688	-0.759320	-0.328101	-0.506213	-0.351563	-0.082031	-0.046875	32	16_30_31_8599980
0.014648	-0.240234	0.682617	-0.759320	-0.337475	-0.515588	-0.351563	-0.070313	-0.082031	33	16_30_31_8761270
0.026367	-0.222656	0.682617	-0.759320	-0.328101	-0.515588	-0.351563	-0.093750	-0.070313	34	16_30_31_8922560
0.002930	-0.240234	0.685547	-0.759320	-0.337475	-0.515588	-0.351563	-0.117188	-0.082031	35	16_30_31_9083850
0.002930	-0.240234	0.691406	-0.759320	-0.337475	-0.524962	-0.351563	-0.105469	-0.128906	36	16_30_31_9245140
0.005859	-0.240234	0.679688	-0.778068	-0.356224	-0.524962	-0.175781	0.070313	0.023438	37	16_30_31_9406430
0.011719	-0.228516	0.688477	-0.768694	-0.365598	-0.524962	-0.351563	-0.058594	-0.093750	38	16_30_31_9567720
0.017578	-0.222656	0.676758	-0.768694	-0.365598	-0.524962	-0.316406	-0.046875	-0.082031	39	16_30_31_9729010
0.029297	-0.216797	0.694336	-0.768694	-0.365598	-0.524962	-0.351563	-0.058594	-0.082031	40	16_30_31_9890300
0.038086	-0.225586	0.688477	-0.768694	-0.374973	-0.534336	-0.351563	-0.082031	-0.105469	41	16_30_32_0051590
0.049805	-0.231445	0.679688	-0.778068	-0.374973	-0.524962	-0.339844	-0.093750	-0.117188	42	16_30_32_0212880
0.041016	-0.222656	0.682617	-0.768694	-0.365598	-0.524962	-0.339844	-0.082031	-0.128906	43	16_30_32_0374170
0.029297	-0.216797	0.688477	-0.768694	-0.365598	-0.524962	-0.351563	-0.082031	-0.128906	44	16_30_32_0535460
0.023438	-0.210938	0.688477	-0.768694	-0.365598	-0.524962	-0.339844	-0.105469	-0.058594	45	16_30_32_0696750
0.032227	-0.216797	0.682617	-0.768694	-0.365598	-0.524962	-0.339844	-0.070313	-0.058594	46	16_30_32_0858040
0.038086	-0.225586	0.700195	-0.768694	-0.365598	-0.534336	-0.351563	-0.093750	-0.070313	47	16_30_32_1019330
0.055664	-0.231445	0.694336	-0.768694	-0.365598	-0.543711	-0.328125	-0.093750	-0.035156	48	16_30_32_1180620
0.046875	-0.213867	0.697266	-0.778068	-0.365598	-0.543711	-0.316406	-0.093750	-0.035156	49	16_30_32_1341910
0.055664	-0.225586	0.691406	-0.768694	-0.374973	-0.543711	-0.351563	-0.082031	-0.117188	50	16_30_32_1503200
0.052734	-0.210938	0.691406	-0.768694	-0.365598	-0.543711	-0.363281	-0.082031	-0.105469	51	16_30_32_1664490
0.055664	-0.208008	0.697266	-0.759320	-0.365598	-0.534336	-0.351563	-0.140625	-0.105469	52	16_30_32_1825780
0.058594	-0.210938	0.700195	-0.759320	-0.356224	-0.534336	-0.304688	-0.082031	-0.070313	53	16_30_32_1987070
0.064453	-0.222656	0.697266	-0.759320	-0.356224	-0.534336	-0.351563	-0.105469	-0.082031	54	16_30_32_2148360
0.058594	-0.210938	0.688477	-0.759320	-0.356224	-0.524962	-0.351563	-0.105469	-0.128906	55	16_30_32_2309650
0.061523	-0.210938	0.694336	-0.759320	-0.356224	-0.534336	-0.351563	-0.082031	-0.105469	56	16_30_32_2470940
0.052734	-0.216797	0.697266	-0.768694	-0.356224	-0.524962	-0.351563	-0.082031	-0.058594	57	16_30_32_2632230
0.038086	-0.213867	0.703125	-0.768694	-0.356224	-0.524962	-0.351563	-0.046875	-0.023438	58	16_30_32_2793520
0.058594	-0.219727	0.691406	-0.768694	-0.356224	-0.534336	-0.351563	-0.082031	-0.093750	59	16_30_32_2954810
0.046875	-0.222656	0.688477	-0.768694	-0.356224	-0.534336	-0.316406	-0.070313	0.082031	60	16_30_32_3116100
0.052734	-0.213867	0.700195	-0.768694	-0.356224	-0.524962	-0.351563	-0.128906	-0.058594	61	16_30_32_3277390
0.052734	-0.222656	0.691406	-0.759320	-0.356224	-0.524962	-0.351563	-0.117188	-0.152344	62	16_30_32_3438680
0.061523	-0.222656	0.694336	-0.768694	-0.356224	-0.524962	-0.339844	-0.082031	-0.117188	63	16_30_32_3599970
0.052734	-0.222656	0.703125	-0.759320	-0.356224	-0.534336	-0.351563	-0.070313	-0.093750	64	16_30_32_3761260
0.052734	-0.228516	0.691406	-0.768694	-0.356224	-0.524962	-0.351563	-0.093750	-0.093750	65	16_30_32_3922550
0.058594	-0.225586	0.685547	-0.768694	-0.356224	-0.524962	-0.386719	-0.093750	-0.093750	66	16_30_32_4083840
0.055664	-0.216797	0.700195	-0.768694	-0.356224	-0.524962	-0.351563	-0.070313	-0.058594	67	16_30_32_4245130
0.052734	-0.202148	0.694336	-0.759320	-0.356224	-0.524962	-0.351563	-0.093750	-0.082031	68	16_30_32_4406420
0.061523	-0.225586	0.700195	-0.759320	-0.356224	-0.524962	-0.375000	-0.093750	-0.093750	69	16_30_32_4567710
0.055664	-0.219727	0.700195	-0.768694	-0.356224	-0.515588	-0.316406	-0.023438	0.199219	70	16_30_32_4729000
0.058594	-0.219727	0.700195	-0.768694	-0.356224	-0.515588	-0.351563	-0.093750	-0.058594	71	16_30_32_4890290
0.067383	-0.216797	0.697266	-0.768694	-0.356224	-0.515588	-0.328125	-0.082031	-0.093750	72	16_30_32_5051580
0.073242	-0.208008	0.694336	-0.768694	-0.346850	-0.515588	-0.351563	-0.093750	-0.070313	73	16_30_32_5212870
0.076172	-0.208008	0.694336	-0.768694	-0.337475	-0.506213	-0.375000	-0.082031	-0.070313	74	16_30_32_5374160
0.064453	-0.196289	0.700195	-0.768694	-0.337475	-0.515588	-0.351563	-0.070313	-0.058594	75	16_30_32_5535450
0.073242	-0.210938	0.694336	-0.768694	-0.337475	-0.515588	-0.351563	-0.093750	-0.046875	76	16_30_32_5696740
0.064453	-0.222656	0.694336	-0.768694	-0.328101	-0.515588	-0.351563	-0.082031	-0.105469	77	16_30_32_5858030
0.064453	-0.231445	0.688477	-0.768694	-0.337475	-0.506213	-0.351563	-0.058594	-0.117188	78	16_30_32_6019320
0.073242	-0.228516	0.688477	-0.768694	-0.328101	-0.506213	-0.187500	-0.035156	0.046875	79	16_30_32_6180610
0.064453	-0.219727	0.688477	-0.759320	-0.337475	-0.506213	-0.351563	-0.070313	-0.140625	80	16_30_32_6341900
0.061523	-0.216797	0.691406	-0.768694	-0.337475	-0.506213	-0.351563	-0.105469	-0.128906	81	16_30_32_6503190
0.055664	-0.222656	0.688477	-0.759320	-0.337475	-0.506213	-0.351563	-0.140625	-0.128906	82	16_30_32_6664480
0.041016	-0.222656	0.685547	-0.768694	-0.337475	-0.506213	-0.351563	-0.128906	-0.105469	83	16_30_32_6825770
0.043945	-0.228516	0.688477	-0.759320	-0.337475	-0.506213	-0.363281	-0.105469	-0.058594	84	16_30_32_6987060
0.055664	-0.219727	0.682617	-0.768694	-0.337475	-0.506213	-0.339844	-0.093750	-0.070313	85	16_30_32_7148350
0.049805	-0.222656	0.694336	-0.749946	-0.337475	-0.506213	-0.257813	-0.082031	-0.058594	86	16_30_32_7309640
0.035156	-0.222656	0.694336	-0.768694	-0.337475	-0.506213	-0.082031	-0.058594	0.082031	87	16_30_32_7470930
0.046875	-0.222656	0.694336	-0.768694	-0.337475	-0.506213	-0.351563	-0.117188	-0.023438	88	16_30_32_7632220
0.049805	-0.228516	0.682617	-0.759320	-0.346850	-0.515588	-0.210938	-0.117188	0.011719	89	16_30_32_7793510
0.055664	-0.216797	0.688477	-0.768694	-0.356224	-0.506213	-0.351563	-0.128906	-0.082031	90	16_30_32_7954800
0.046875	-0.237305	0.700195	-0.768694	-0.356224	-0.515588	-0.316406	-0.093750	-0.070313	91	16_30_32_8116090
0.058594	-0.234375	0.685547	-0.749946	-0.346850	-0.506213	-0.363281	-0.152344	-0.070313	92	16_30_32_8277380
0.052734	-0.231445	0.694336	-0.759320	-0.346850	-0.515588	-0.351563	-0.164063	-0.093750	93	16_30_32_8438670
0.058594	-0.228516	0.700195	-0.759320	-0.337475	-0.515588	-0.363281	-0.140625	-0.117188	94	16_30_32_8599960
0.061523	-0.225586	0.700195	-0.768694	-0.346850	-0.515588	-0.351563	-0.117188	-0.058594	95	16_30_32_8761250
0.058594	-0.228516	0.700195	-0.768694	-0.346850	-0.506213	-0.351563	-0.164063	-0.082031	96	16_30_32_8922540
0.064453	-0.228516	0.691406	-0.768694	-0.346850	-0.515588	-0.363281	-0.117188	-0.128906	97	16_30_32_9083830
0.090820	-0.222656	0.694336	-0.768694	-0.346850	-0.515588	-0.351563	-0.082031	-0.082031	98	16_30_32_9245120
0.084961	-0.213867	0.700195	-0.768694	-0.346850	-0.496839	-0.351563	-0.105469	-0.105469	99	16_30_32_9406410
0.076172	-0.219727	0.700195	-0.768694	-0.346850	-0.496839	-0.351563	-0.093750	-0.105469	100	16_30_32_9567700
0.084961	-0.213867	0.700195	-0.768694	-0.337475	-0.496839	-0.351563	-0.058594	-0.070313	101	16_30_32_9728990
0.070313	-0.216797	0.700195	-0.768694	-0.328101	-0.496839	-0.351563	-0.058594	-0.046875	102	16_30_32_9890280
0.070313	-0.228516	0.694336	-0.759320	-0.318727	-0.496839	-0.363281	-0.105469	-0.093750	103	16_30_33_0051570
0.058594	-0.228516	0.694336	-0.768694	-0.328101	-0.496839	-0.351563	-0.140625	-0.105469	104	16_30_33_0212860
0.061523	-0.219727	0.700195	-0.768694	-0.328101	-0.496839	-0.351563	-0.128906	-0.070313	105	16_30_33_0374150
0.055664	-0.228516	0.691406	-0.768694	-0.328101	-0.496839	-0.351563	-0.105469	-0.105469	106	16_30_33_0535440
0.049805	-0.231445	0.691406	-0.768694	-0.318727	-0.496839	-0.351563	-0.093750	-0.140625	107	16_30_33_0696730
0.046875	-0.216797	0.694336	-0.768694	-0.318727	-0.496839	-0.351563	-0.105469	-0.128906	108	16_30_33_0858020
0.041016	-0.225586	0.688477	-0.759320	-0.328101	-0.496839	-0.351563	-0.105469	-0.105469	109	16_30_33_1019310
0.038086	-0.231445	0.694336	-0.768694	-0.328101	-0.506213	-0.351563	-0.093750	-0.082031	110	16_30_33_1180600
0.029297	-0.246094	0.682617	-0.768694	-0.328101	-0.496839	-0.351563	-0.105469	-0.105469	111	16_30_33_1341890
0.043945	-0.231445	0.691406	-0.768694	-0.337475	-0.506213	-0.351563	-0.117188	-0.070313	112	16_30_33_1503180
0.038086	-0.228516	0.688477	-0.768694	-0.346850	-0.506213	-0.351563	-0.105469	-0.093750	113	16_30_33_1664470
0.041016	-0.222656	0.685547	-0.778068	-0.346850	-0.506213	-0.292969	-0.082031	-0.093750	114	16_30_33_1825760
0.052734	-0.216797	0.688477	-0.768694	-0.346850	-0.506213	-0.351563	-0.105469	-0.105469	115	16_30_33_1987050
0.061523	-0.210938	0.691406	-0.768694	-0.346850	-0.496839	-0.351563	-0.070313	-0.105469	116	16_30_33_2148340
0.073242	-0.219727	0.691406	-0.768694	-0.356224	-0.496839	-0.351563	-0.082031	-0.105469	117	16_30_33_2309630
0.061523	-0.231445	0.700195	-0.768694	-0.346850	-0.506213	-0.351563	-0.093750	-0.082031	118	16_30_33_2470920
0.070313	-0.231445	0.697266	-0.768694	-0.337475	-0.496839	-0.351563	-0.105469	-0.058594	119	16_30_33_2632210
0.067383	-0.234375	0.691406	-0.768694	-0.337475	-0.506213	-0.351563	-0.117188	-0.128906	120	16_30_33_2793500
0.058594	-0.222656	0.688477	-0.768694	-0.337475	-0.496839	-0.351563	-0.070313	-0.140625	121	16_30_33_2954790
0.058594	-0.213867	0.694336	-0.768694	-0.337475	-0.496839	-0.351563	-0.070313	-0.117188	122	16_30_33_3116080
0.058594	-0.216797	0.700195	-0.768694	-0.337475	-0.496839	-0.351563	-0.070313	-0.105469	123	16_30_33_3277370
0.049805	-0.219727	0.694336	-0.768694	-0.337475	-0.506213	-0.363281	-0.093750	-0.070313	124	16_30_33_3438660
0.061523	-0.219727	0.691406	-0.768694	-0.328101	-0.496839	-0.351563	-0.117188	-0.105469	125	16_30_33_3599950
0.052734	-0.222656	0.688477	-0.768694	-0.328101	-0.506213	-0.363281	-0.070313	-0.046875	126	16_30_33_3761240
0.043945	-0.234375	0.688477	-0.768694	-0.337475	-0.506213	-0.363281	-0.093750	-0.058594	127	16_30_33_3922530
0.049805	-0.228516	0.691406	-0.768694	-0.337475	-0.506213	-0.351563	-0.082031	-0.046875	128	16_30_33_4083820
0.049805	-0.237305	0.697266	-0.768694	-0.346850	-0.506213	-0.351563	-0.093750	-0.093750	129	16_30_33_4245110
0.058594	-0.231445	0.694336	-0.768694	-0.337475	-0.496839	-0.351563	-0.105469	-0.105469	130	16_30_33_4406400
0.067383	-0.228516	0.694336	-0.768694	-0.337475	-0.506213	-0.351563	-0.082031	-0.082031	131	16_30_33_4567690
0.061523	-0.225586	0.700195	-0.768694	-0.337475	-0.506213	-0.339844	-0.093750	-0.093750	132	16_30_33_4728980
0.061523	-0.228516	0.694336	-0.768694	-0.328101	-0.506213	-0.339844	-0.117188	-0.082031	133	16_30_33_4890270
0.052734	-0.213867	0.700195	-0.768694	-0.337475	-0.496839	-0.339844	-0.093750	-0.070313	134	16_30_33_5051560
0.055664	-0.213867	0.700195	-0.768694	-0.337475	-0.506213	-0.328125	-0.082031	-0.046875	135	16_30_33_5212850
0.052734	-0.216797	0.694336	-0.768694	-0.337475	-0.496839	-0.351563	-0.046875	-0.128906	136	16_30_33_5374140
0.058594	-0.222656	0.697266	-0.768694	-0.337475	-0.496839	-0.351563	-0.070313	-0.140625	137	16_30_33_5535430
0.064453	-0.213867	0.697266	-0.768694	-0.337475	-0.506213	-0.351563	-0.070313	-0.058594	138	16_30_33_5696720
0.064453	-0.225586	0.694336	-0.768694	-0.337475	-0.506213	-0.351563	-0.105469	-0.023438	139	16_30_33_5858010
0.052734	-0.210938	0.694336	-0.768694	-0.328101	-0.506213	-0.351563	-0.046875	-0.070313	140	16_30_33_6019300
0.052734	-0.228516	0.694336	-0.768694	-0.328101	-0.496839	-0.351563	-0.082031	-0.105469	141	16_30_33_6180590
0.061523	-0.216797	0.688477	-0.768694	-0.328101	-0.496839	-0.351563	-0.117188	-0.082031	142	16_30_33_6341880
0.043945	-0.222656	0.685547	-0.768694	-0.328101	-0.496839	-0.351563	-0.140625	-0.082031	143	16_30_33_6503170
0.043945	-0.225586	0.694336	-0.768694	-0.328101	-0.496839	-0.328125	-0.046875	-0.035156	144	16_30_33_6664460
0.052734	-0.222656	0.691406	-0.768694	-0.337475	-0.506213	-0.351563	-0.070313	-0.058594	145	16_30_33_6825750
0.046875	-0.225586	0.688477	-0.768694	-0.328101	-0.496839	-0.351563	-0.093750	-0.070313	146	16_30_33_6987040
0.049805	-0.219727	0.676758	-0.768694	-0.337475	-0.496839	-0.363281	-0.093750	-0.058594	147	16_30_33_7148330
0.041016	-0.222656	0.688477	-0.768694	-0.337475	-0.506213	-0.351563	-0.082031	-0.082031	148	16_30_33_7309620
0.043945	-0.225586	0.700195	-0.768694	-0.337475	-0.496839	-0.351563	-0.070313	-0.117188	149	16_30_33_7470910
0.049805	-0.222656	0.691406	-0.768694	-0.337475	-0.506213	-0.351563	-0.082031	-0.140625	150	16_30_33_7632200
0.052734	-0.222656	0.694336	-0.768694	-0.337475	-0.506213	-0.351563	-0.070313	-0.105469	151	16_30_33_7793490
0.049805	-0.228516	0.691406	-0.768694	-0.337475	-0.515588	-0.351563	-0.105469	-0.070313	152	16_30_33_7954780
0.046875	-0.216797	0.688477	-0.768694	-0.346850	-0.506213	-0.351563	-0.117188	-0.070313	153	16_30_33_8116070
0.052734	-0.219727	0.694336	-0.768694	-0.337475	-0.506213	-0.351563	-0.140625	-0.093750	154	16_30_33_8277360
0.058594	-0.228516	0.691406	-0.768694	-0.337475	-0.496839	-0.351563	-0.140625	-0.070313	155	16_30_33_8438650
0.049805	-0.222656	0.697266	-0.768694	-0.346850	-0.506213	-0.363281	-0.093750	-0.058594	156	16_30_33_8599940
0.055664	-0.228516	0.697266	-0.768694	-0.346850	-0.506213	-0.351563	-0.082031	-0.082031	157	16_30_33_8761230
0.052734	-0.210938	0.691406	-0.768694	-0.346850	-0.506213	-0.351563	-0.082031	-0.058594	158	16_30_33_8922520
0.067383	-0.216797	0.700195	-0.768694	-0.346850	-0.506213	-0.351563	-0.070313	-0.058594	159	16_30_33_9083810
0.055664	-0.213867	0.694336	-0.768694	-0.346850	-0.506213	-0.351563	-0.117188	-0.082031	160	16_30_33_9245100
0.061523	-0.216797	0.691406	-0.778068	-0.337475	-0.506213	-0.152344	-0.011719	0.011719	161	16_30_33_9406390
0.058594	-0.225586	0.694336	-0.768694	-0.337475	-0.506213	-0.222656	-0.023438	0.093750	162	16_30_33_9567680
0.055664	-0.222656	0.691406	-0.768694	-0.337475	-0.506213	-0.351563	-0.117188	-0.105469	163	16_30_33_9728970
0.055664	-0.210938	0.700195	-0.768694	-0.337475	-0.506213	-0.351563	-0.070313	0.140625	164	16_30_33_9890260
0.052734	-0.234375	0.694336	-0.768694	-0.337475	-0.506213	-0.351563	-0.058594	-0.105469	165	16_30_34_0051550
0.046875	-0.222656	0.700195	-0.768694	-0.337475	-0.506213	-0.351563	-0.058594	-0.105469	166	16_30_34_0212840
0.064453	-0.231445	0.685547	-0.768694	-0.337475	-0.506213	-0.351563	-0.070313	-0.105469	167	16_30_34_0374130
0.061523	-0.225586	0.688477	-0.768694	-0.337475	-0.515588	-0.351563	-0.082031	-0.105469	168	16_30_34_0535420
0.049805	-0.228516	0.694336	-0.768694	-0.337475	-0.506213	-0.351563	-0.093750	-0.082031	169	16_30_34_0696710
0.049805	-0.225586	0.688477	-0.768694	-0.346850	-0.496839	-0.339844	-0.105469	-0.105469	170	16_30_34_0858000
0.061523	-0.228516	0.691406	-0.768694	-0.337475	-0.506213	-0.363281	-0.117188	-0.093750	171	16_30_34_1019290
0.058594	-0.222656	0.691406	-0.768694	-0.337475	-0.506213	-0.351563	-0.070313	-0.070313	172	16_30_34_1180580
0.058594	-0.216797	0.694336	-0.768694	-0.337475	-0.506213	-0.351563	-0.140625	-0.046875	173	16_30_34_1341870
0.061523	-0.222656	0.691406	-0.768694	-0.337475	-0.506213	-0.351563	-0.070313	0.011719	174	16_30_34_1503160
0.061523	-0.216797	0.703125	-0.768694	-0.337475	-0.506213	-0.351563	-0.070313	-0.011719	175	16_30_34_1664450
0.058594	-0.216797	0.697266	-0.768694	-0.337475	-0.506213	-0.363281	-0.082031	-0.058594	176	16_30_34_1825740
0.064453	-0.228516	0.697266	-0.768694	-0.346850	-0.506213	-0.351563	-0.070313	-0.070313	177	16_30_34_1987030
0.073242	-0.225586	0.694336	-0.768694	-0.337475	-0.506213	-0.351563	-0.082031	-0.070313	178	16_30_34_2148320
0.058594	-0.222656	0.691406	-0.768694	-0.337475	-0.506213	-0.351563	-0.058594	-0.082031	179	16_30_34_2309610
0.064453	-0.222656	0.700195	-0.768694	-0.337475	-0.496839	-0.339844	-0.082031	-0.117188	180	16_30_34_2470900
0.064453	-0.234375	0.694336	-0.768694	-0.337475	-0.496839	-0.351563	-0.140625	-0.152344	181	16_30_34_2632190
0.064453	-0.228516	0.688477	-0.768694	-0.337475	-0.496839	-0.351563	-0.117188	-0.128906	182	16_30_34_2793480
0.058594	-0.216797	0.700195	-0.768694	-0.328101	-0.496839	-0.375000	-0.070313	-0.105469	183	16_30_34_2954770
0.064453	-0.228516	0.691406	-0.768694	-0.337475	-0.496839	-0.363281	-0.093750	-0.058594	184	16_30_34_3116060
0.046875	-0.225586	0.700195	-0.768694	-0.337475	-0.496839	-0.339844	-0.093750	0.000000	185	16_30_34_3277350
0.046875	-0.219727	0.694336	-0.768694	-0.337475	-0.496839	-0.351563	-0.082031	-0.058594	186	16_30_34_3438640
0.046875	-0.231445	0.700195	-0.768694	-0.337475	-0.496839	-0.386719	-0.082031	-0.082031	187	16_30_34_3599930
0.058594	-0.228516	0.688477	-0.768694	-0.337475	-0.496839	-0.363281	-0.070313	-0.070313	188	16_30_34_3761220
0.055664	-0.225586	0.691406	-0.768694	-0.337475	-0.506213	-0.363281	-0.082031	-0.082031	189	16_30_34_3922510
0.046875	-0.234375	0.688477	-0.768694	-0.328101	-0.496839	-0.351563	-0.082031	-0.046875	190	16_30_34_4083800
0.049805	-0.234375	0.694336	-0.768694	-0.337475	-0.496839	-0.210938	-0.046875	0.000000	191	16_30_34_4245090
0.055664	-0.228516	0.694336	-0.768694	-0.337475	-0.506213	-0.164063	0.023438	-0.023438	192	16_30_34_4406380
0.061523	-0.231445	0.697266	-0.768694	-0.337475	-0.496839	-0.351563	-0.117188	-0.105469	193	16_30_34_4567670
0.055664	-0.231445	0.694336	-0.768694	-0.337475	-0.496839	-0.351563	-0.105469	-0.117188	194	16_30_34_4728960
0.055664	-0.225586	0.697266	-0.768694	-0.337475	-0.496839	-0.351563	-0.117188	-0.117188	195	16_30_34_4890250
0.049805	-0.231445	0.688477	-0.768694	-0.337475	-0.496839	-0.351563	-0.082031	0.011719	196	16_30_34_5051540
0.055664	-0.225586	0.688477	-0.768694	-0.337475	-0.496839	-0.351563	-0.082031	-0.070313	197	16_30_34_5212830
0.061523	-0.213867	0.685547	-0.778068	-0.337475	-0.506213	-0.281250	-0.070313	-0.082031	198	16_30_34_5374120
0.052734	-0.225586	0.682617	-0.768694	-0.337475	-0.506213	-0.339844	-0.082031	-0.117188	199	16_30_34_5535410
0.064453	-0.219727	0.682617	-0.768694	-0.346850	-0.506213	-0.351563	-0.093750	-0.117188	200	16_30_34_5696700
0.061523	-0.222656	0.694336	-0.768694	-0.337475	-0.506213	-0.375000	-0.093750	-0.093750	201	16_30_34_5857990
0.067383	-0.222656	0.691406	-0.768694	-0.337475	-0.506213	-0.351563	-0.082031	-0.058594	202	16_30_34_6019280
0.061523	-0.222656	0.700195	-0.768694	-0.337475	-0.496839	-0.351563	-0.093750	-0.058594	203	16_30_34_6180570
0.043945	-0.228516	0.694336	-0.778068	-0.337475	-0.496839	-0.351563	-0.082031	-0.082031	204	16_30_34_6341860
0.064453	-0.216797	0.688477	-0.768694	-0.337475	-0.496839	-0.351563	-0.093750	-0.105469	205	16_30_34_6503150
0.049805	-0.228516	0.700195	-0.768694	-0.337475	-0.506213	-0.351563	-0.082031	-0.093750	206	16_30_34_6664440
0.058594	-0.237305	0.691406	-0.768694	-0.337475	-0.496839	-0.351563	-0.128906	-0.105469	207	16_30_34_6825730
0.070313	-0.219727	0.682617	-0.768694	-0.337475	-0.506213	-0.351563	-0.152344	-0.105469	208	16_30_34_6987020
0.052734	-0.225586	0.694336	-0.768694	-0.337475	-0.506213	-0.351563	-0.093750	-0.070313	209	16_30_34_7148310
0.058594	-0.219727	0.691406	-0.768694	-0.337475	-0.496839	-0.339844	-0.082031	-0.070313	210	16_30_34_7309600
0.064453	-0.222656	0.694336	-0.768694	-0.337475	-0.506213	-0.363281	-0.117188	-0.035156	211	16_30_34_7470890
0.046875	-0.228516	0.694336	-0.768694	-0.337475	-0.506213	-0.351563	-0.128906	-0.011719	212	16_30_34_7632180
0.058594	-0.219727	0.697266	-0.768694	-0.337475	-0.496839	-0.386719	-0.082031	-0.035156	213	16_30_34_7793470
0.064453	-0.219727	0.685547	-0.768694	-0.337475	-0.506213	-0.351563	-0.058594	-0.058594	214	16_30_34_7954760
0.055664	-0.222656	0.694336	-0.768694	-0.337475	-0.506213	-0.351563	-0.070313	-0.117188	215	16_30_34_8116050
0.064453	-0.210938	0.691406	-0.768694	-0.337475	-0.496839	-0.351563	-0.105469	-0.105469	216	16_30_34_8277340
0.061523	-0.219727	0.697266	-0.759320	-0.337475	-0.506213	-0.351563	-0.105469	-0.082031	217	16_30_34_8438630
0.058594	-0.231445	0.700195	-0.768694	-0.337475	-0.506213	-0.328125	-0.070313	-0.058594	218	16_30_34_8599920
0.067383	-0.208008	0.697266	-0.768694	-0.337475	-0.506213	-0.351563	-0.128906	-0.058594	219	16_30_34_8761210
0.052734	-0.216797	0.688477	-0.768694	-0.337475	-0.506213	-0.246094	-0.070313	-0.011719	220	16_30_34_8922500
0.070313	-0.222656	0.691406	-0.768694	-0.337475	-0.506213	-0.351563	-0.058594	-0.082031	221	16_30_34_9083790
0.058594	-0.228516	0.694336	-0.768694	-0.337475	-0.496839	-0.351563	-0.046875	-0.128906	222	16_30_34_9245080
0.055664	-0.216797	0.691406	-0.768694	-0.337475	-0.506213	-0.375000	-0.070313	-0.128906	223	16_30_34_9406370
0.052734	-0.219727	0.694336	-0.768694	-0.337475	-0.506213	-0.351563	-0.117188	-0.117188	224	16_30_34_9567660
0.052734	-0.225586	0.694336	-0.778068	-0.337475	-0.506213	-0.328125	-0.117188	-0.058594	225	16_30_34_9728950
0.029297	-0.219727	0.688477	-0.768694	-0.337475	-0.506213	-0.351563	-0.070313	0.082031	226	16_30_34_9890240
0.058594	-0.222656	0.694336	-0.768694	-0.337475	-0.506213	-0.351563	-0.070313	-0.128906	227	16_30_35_0051530
0.052734	-0.228516	0.688477	-0.768694	-0.337475	-0.506213	-0.351563	-0.046875	-0.070313	228	16_30_35_0212820
0.046875	-0.225586	0.688477	-0.768694	-0.337475	-0.506213	-0.351563	-0.070313	-0.082031	229	16_30_35_0374110
0.055664	-0.225586	0.703125	-0.768694	-0.337475	-0.506213	-0.351563	-0.093750	-0.140625	230	16_30_35_0535400
0.052734	-0.222656	0.682617	-0.768694	-0.337475	-0.496839	-0.351563	-0.117188	-0.117188	231	16_30_35_0696690
0.052734	-0.216797	0.700195	-0.768694	-0.337475	-0.506213	-0.375000	-0.093750	-0.093750	232	16_30_35_0857980
0.055664	-0.222656	0.700195	-0.768694	-0.318727	-0.506213	-0.105469	0.093750	0.023438	233	16_30_35_1019270
0.070313	-0.205078	0.688477	-0.768694	-0.337475	-0.496839	-0.351563	-0.082031	-0.070313	234	16_30_35_1180560
0.052734	-0.231445	0.694336	-0.768694	-0.337475	-0.506213	-0.328125	-0.058594	-0.046875	235	16_30_35_1341850
0.061523	-0.222656	0.694336	-0.768694	-0.328101	-0.496839	-0.351563	-0.082031	-0.093750	236	16_30_35_1503140
0.061523	-0.222656	0.694336	-0.768694	-0.337475	-0.496839	-0.351563	-0.070313	-0.117188	237	16_30_35_1664430
0.064453	-0.222656	0.691406	-0.759320	-0.337475	-0.496839	-0.351563	-0.093750	0.023438	238	16_30_35_1825720
0.052734	-0.222656	0.706055	-0.768694	-0.337475	-0.506213	-0.351563	-0.105469	-0.128906	239	16_30_35_1987010
0.064453	-0.219727	0.688477	-0.768694	-0.337475	-0.496839	-0.351563	-0.117188	-0.117188	240	16_30_35_2148300
0.064453	-0.225586	0.694336	-0.778068	-0.337475	-0.496839	-0.246094	-0.070313	-0.058594	241	16_30_35_2309590
0.070313	-0.231445	0.694336	-0.759320	-0.337475	-0.496839	-0.386719	-0.082031	-0.117188	242	16_30_35_2470880
0.058594	-0.234375	0.694336	-0.768694	-0.337475	-0.496839	-0.351563	-0.070313	-0.070313	243	16_30_35_2632170
0.049805	-0.228516	0.688477	-0.768694	-0.337475	-0.496839	-0.351563	-0.082031	-0.082031	244	16_30_35_2793460
0.052734	-0.225586	0.697266	-0.768694	-0.337475	-0.506213	-0.363281	-0.105469	-0.058594	245	16_30_35_2954750
0.055664	-0.231445	0.688477	-0.759320	-0.337475	-0.506213	-0.351563	-0.140625	-0.058594	246	16_30_35_3116040
0.046875	-0.222656	0.691406	-0.768694	-0.337475	-0.506213	-0.351563	-0.046875	0.164063	247	16_30_35_3277330
0.041016	-0.222656	0.688477	-0.768694	-0.337475	-0.506213	-0.363281	-0.058594	-0.082031	248	16_30_35_3438620
0.052734	-0.222656	0.691406	-0.768694	-0.337475	-0.506213	-0.351563	-0.058594	-0.093750	249	16_30_35_3599910
0.064453	-0.225586	0.694336	-0.759320	-0.337475	-0.506213	-0.363281	-0.070313	-0.140625	250	16_30_35_3761200
0.052734	-0.219727	0.694336	-0.768694	-0.337475	-0.506213	-0.351563	-0.070313	-0.105469	251	16_30_35_3922490
0.061523	-0.216797	0.691406	-0.768694	-0.337475	-0.496839	-0.351563	-0.070313	-0.035156	252	16_30_35_4083780
0.058594	-0.219727	0.688477	-0.768694	-0.337475	-0.506213	-0.351563	-0.093750	-0.070313	253	16_30_35_4245070
0.061523	-0.222656	0.694336	-0.778068	-0.337475	-0.506213	-0.339844	-0.082031	-0.082031	254	16_30_35_4406360
0.064453	-0.228516	0.688477	-0.768694	-0.337475	-0.506213	-0.351563	-0.058594	-0.023438	255	16_30_35_4567650
0.064453	-0.240234	0.691406	-0.768694	-0.328101	-0.496839	-0.351563	-0.070313	-0.023438	256	16_30_35_4728940
0.058594	-0.222656	0.694336	-0.778068	-0.337475	-0.506213	-0.316406	-0.070313	-0.046875	257	16_30_35_4890230
0.058594	-0.237305	0.700195	-0.768694	-0.337475	-0.506213	-0.351563	-0.070313	-0.128906	258	16_30_35_5051520
0.055664	-0.222656	0.688477	-0.768694	-0.337475	-0.506213	-0.304688	-0.070313	-0.035156	259	16_30_35_5212810
0.055664	-0.216797	0.694336	-0.768694	-0.328101	-0.506213	-0.351563	-0.093750	-0.082031	260	16_30_35_5374100
0.052734	-0.219727	0.691406	-0.778068	-0.337475	-0.506213	-0.257813	-0.058594	-0.035156	261	16_30_35_5535390
0.043945	-0.228516	0.697266	-0.768694	-0.337475	-0.496839	-0.351563	-0.117188	-0.105469	262	16_30_35_5696680
0.061523	-0.219727	0.700195	-0.768694	-0.337475	-0.506213	-0.363281	-0.058594	-0.117188	263	16_30_35_5857970
0.046875	-0.222656	0.700195	-0.768694	-0.337475	-0.496839	-0.351563	-0.093750	-0.164063	264	16_30_35_6019260
0.055664	-0.228516	0.688477	-0.778068	-0.337475	-0.506213	-0.339844	-0.128906	-0.152344	265	16_30_35_6180550
0.055664	-0.213867	0.697266	-0.768694	-0.337475	-0.496839	-0.386719	-0.082031	-0.140625	266	16_30_35_6341840
0.046875	-0.216797	0.691406	-0.768694	-0.337475	-0.506213	-0.351563	-0.117188	-0.128906	267	16_30_35_6503130
0.058594	-0.228516	0.682617	-0.768694	-0.346850	-0.506213	-0.351563	-0.128906	-0.117188	268	16_30_35_6664420
0.055664	-0.216797	0.679688	-0.787443	-0.356224	-0.506213	-0.304688	-0.082031	-0.093750	269	16_30_35_6825710
0.061523	-0.222656	0.694336	-0.778068	-0.356224	-0.506213	-0.351563	-0.058594	-0.093750	270	16_30_35_6987000
0.046875	-0.216797	0.682617	-0.778068	-0.356224	-0.506213	-0.351563	-0.070313	-0.082031	271	16_30_35_7148290
0.070313	-0.205078	0.700195	-0.778068	-0.346850	-0.515588	-0.351563	-0.117188	-0.082031	272	16_30_35_7309580
0.070313	-0.216797	0.703125	-0.768694	-0.337475	-0.524962	-0.351563	-0.128906	-0.082031	273	16_30_35_7470870
0.076172	-0.216797	0.714844	-0.759320	-0.328101	-0.524962	-0.386719	-0.105469	-0.082031	274	16_30_35_7632160
0.067383	-0.222656	0.708984	-0.749946	-0.318727	-0.515588	-0.351563	-0.093750	-0.058594	275	16_30_35_7793450
0.070313	-0.222656	0.711914	-0.759320	-0.328101	-0.515588	-0.386719	-0.117188	-0.082031	276	16_30_35_7954740
0.058594	-0.219727	0.685547	-0.768694	-0.337475	-0.506213	-0.375000	-0.070313	-0.093750	277	16_30_35_8116030
0.055664	-0.222656	0.670898	-0.768694	-0.337475	-0.506213	-0.351563	-0.070313	-0.058594	278	16_30_35_8277320
0.061523	-0.210938	0.682617	-0.778068	-0.337475	-0.506213	-0.351563	-0.070313	-0.082031	279	16_30_35_8438610
0.067383	-0.216797	0.688477	-0.768694	-0.346850	-0.496839	-0.351563	-0.058594	-0.128906	280	16_30_35_8599900
0.073242	-0.225586	0.700195	-0.768694	-0.328101	-0.496839	-0.386719	-0.070313	-0.093750	281	16_30_35_8761190
0.070313	-0.228516	0.691406	-0.768694	-0.337475	-0.496839	-0.351563	-0.093750	-0.105469	282	16_30_35_8922480
0.052734	-0.228516	0.711914	-0.768694	-0.328101	-0.496839	-0.351563	-0.058594	-0.117188	283	16_30_35_9083770
0.046875	-0.234375	0.691406	-0.768694	-0.337475	-0.496839	-0.351563	-0.070313	-0.082031	284	16_30_35_9245060
0.061523	-0.228516	0.700195	-0.768694	-0.337475	-0.506213	-0.351563	-0.105469	-0.058594	285	16_30_35_9406350
0.052734	-0.216797	0.688477	-0.778068	-0.346850	-0.506213	-0.351563	-0.082031	-0.058594	286	16_30_35_9567640
0.061523	-0.231445	0.682617	-0.768694	-0.346850	-0.506213	-0.351563	-0.070313	-0.105469	287	16_30_35_9728930
0.064453	-0.219727	0.688477	-0.768694	-0.337475	-0.506213	-0.351563	-0.128906	-0.128906	288	16_30_35_9890220
0.061523	-0.222656	0.688477	-0.778068	-0.337475	-0.496839	-0.304688	-0.117188	-0.093750	289	16_30_36_0051510
0.061523	-0.213867	0.697266	-0.768694	-0.328101	-0.506213	-0.351563	-0.082031	-0.128906	290	16_30_36_0212800
0.064453	-0.219727	0.706055	-0.759320	-0.337475	-0.496839	-0.363281	-0.058594	-0.128906	291	16_30_36_0374090
0.055664	-0.228516	0.703125	-0.768694	-0.337475	-0.506213	-0.304688	-0.011719	-0.070313	292	16_30_36_0535380
0.058594	-0.231445	0.700195	-0.768694	-0.337475	-0.506213	-0.351563	-0.046875	-0.117188	293	16_30_36_0696670
0.058594	-0.222656	0.688477	-0.768694	-0.346850	-0.506213	-0.375000	-0.035156	-0.093750	294	16_30_36_0857960
0.046875	-0.225586	0.688477	-0.768694	-0.337475	-0.506213	-0.351563	-0.058594	-0.046875	295	16_30_36_1019250
0.058594	-0.216797	0.691406	-0.768694	-0.346850	-0.506213	-0.351563	-0.093750	-0.046875	296	16_30_36_1180540
0.058594	-0.225586	0.688477	-0.768694	-0.337475	-0.496839	-0.351563	-0.117188	-0.058594	297	16_30_36_1341830
0.055664	-0.225586	0.691406	-0.768694	-0.337475	-0.496839	-0.351563	-0.070313	-0.082031	298	16_30_36_1503120
0.049805	-0.234375	0.694336	-0.768694	-0.337475	-0.496839	-0.363281	-0.105469	-0.093750	299	16_30_36_1664410
0.043945	-0.222656	0.703125	-0.778068	-0.337475	-0.506213	-0.316406	-0.070313	-0.082031	300	16_30_36_1825700
0.043945	-0.228516	0.688477	-0.768694	-0.346850	-0.506213	-0.351563	-0.070313	-0.070313	301	16_30_36_1986990
0.061523	-0.219727	0.691406	-0.768694	-0.346850	-0.506213	-0.363281	-0.082031	-0.093750	302	16_30_36_2148280
0.055664	-0.219727	0.691406	-0.768694	-0.346850	-0.506213	-0.351563	-0.082031	-0.093750	303	16_30_36_2309570
0.064453	-0.222656	0.682617	-0.768694	-0.346850	-0.506213	-0.386719	-0.152344	-0.105469	304	16_30_36_2470860
0.073242	-0.216797	0.697266	-0.768694	-0.337475	-0.506213	-0.351563	-0.128906	-0.093750	305	16_30_36_2632150
0.073242	-0.222656	0.697266	-0.778068	-0.365598	-0.506213	-0.164063	-0.035156	0.082031	306	16_30_36_2793440
0.061523	-0.234375	0.700195	-0.768694	-0.337475	-0.506213	-0.351563	-0.093750	-0.058594	307	16_30_36_2954730
0.061523	-0.213867	0.697266	-0.768694	-0.337475	-0.506213	-0.339844	-0.082031	-0.082031	308	16_30_36_3116020
0.064453	-0.213867	0.700195	-0.768694	-0.337475	-0.506213	-0.351563	-0.093750	-0.082031	309	16_30_36_3277310
0.061523	-0.210938	0.697266	-0.768694	-0.337475	-0.506213	-0.351563	-0.105469	-0.093750	310	16_30_36_3438600
0.076172	-0.228516	0.697266	-0.768694	-0.337475	-0.506213	-0.351563	-0.105469	-0.140625	311	16_30_36_3599890
0.061523	-0.208008	0.694336	-0.768694	-0.337475	-0.496839	-0.363281	-0.105469	-0.117188	312	16_30_36_3761180
0.067383	-0.222656	0.694336	-0.759320	-0.328101	-0.506213	-0.351563	-0.105469	-0.070313	313	16_30_36_3922470
0.070313	-0.213867	0.700195	-0.768694	-0.328101	-0.496839	-0.351563	-0.093750	-0.105469	314	16_30_36_4083760
0.061523	-0.225586	0.700195	-0.768694	-0.328101	-0.496839	-0.339844	-0.082031	-0.152344	315	16_30_36_4245050
0.076172	-0.219727	0.694336	-0.768694	-0.328101	-0.496839	-0.375000	-0.070313	-0.093750	316	16_30_36_4406340
0.052734	-0.213867	0.694336	-0.768694	-0.328101	-0.496839	-0.351563	-0.082031	-0.058594	317	16_30_36_4567630
0.061523	-0.222656	0.694336	-0.768694	-0.337475	-0.496839	-0.363281	-0.093750	-0.082031	318	16_30_36_4728920
0.052734	-0.222656	0.700195	-0.768694	-0.337475	-0.496839	-0.339844	-0.093750	-0.093750	319	16_30_36_4890210
0.052734	-0.213867	0.697266	-0.768694	-0.328101	-0.496839	-0.351563	-0.082031	-0.152344	320	16_30_36_5051500
0.052734	-0.219727	0.703125	-0.778068	-0.337475	-0.496839	-0.281250	-0.058594	0.117188	321	16_30_36_5212790
0.064453	-0.225586	0.682617	-0.768694	-0.328101	-0.496839	-0.375000	-0.082031	-0.023438	322	16_30_36_5374080
0.038086	-0.219727	0.697266	-0.778068	-0.328101	-0.496839	-0.269531	-0.011719	-0.035156	323	16_30_36_5535370
0.058594	-0.228516	0.688477	-0.768694	-0.337475	-0.506213	-0.246094	-0.011719	0.000000	324	16_30_36_5696660
0.043945	-0.219727	0.691406	-0.768694	-0.328101	-0.496839	-0.363281	-0.070313	-0.093750	325	16_30_36_5857950
0.049805	-0.231445	0.694336	-0.768694	-0.337475	-0.506213	-0.351563	-0.093750	-0.152344	326	16_30_36_6019240
0.046875	-0.225586	0.691406	-0.768694	-0.337475	-0.506213	-0.339844	-0.070313	-0.117188	327	16_30_36_6180530
0.046875	-0.222656	0.685547	-0.768694	-0.337475	-0.496839	-0.351563	-0.082031	-0.082031	328	16_30_36_6341820
0.055664	-0.228516	0.694336	-0.768694	-0.337475	-0.506213	-0.351563	-0.070313	-0.093750	329	16_30_36_6503110
0.049805	-0.228516	0.694336	-0.768694	-0.337475	-0.496839	-0.351563	-0.093750	-0.082031	330	16_30_36_6664400
0.046875	-0.222656	0.700195	-0.768694	-0.337475	-0.506213	-0.351563	-0.093750	-0.082031	331	16_30_36_6825690
0.052734	-0.228516	0.691406	-0.768694	-0.346850	-0.506213	-0.351563	-0.082031	-0.093750	332	16_30_36_6986980
0.058594	-0.228516	0.691406	-0.768694	-0.346850	-0.506213	-0.351563	-0.046875	-0.058594	333	16_30_36_7148270
0.064453	-0.228516	0.697266	-0.768694	-0.346850	-0.506213	-0.398438	-0.058594	-0.070313	334	16_30_36_7309560
0.070313	-0.222656	0.691406	-0.768694	-0.346850	-0.506213	-0.351563	-0.046875	-0.117188	335	16_30_36_7470850
0.052734	-0.219727	0.694336	-0.768694	-0.337475	-0.506213	-0.351563	-0.058594	-0.117188	336	16_30_36_7632140
0.052734	-0.228516	0.688477	-0.768694	-0.337475	-0.506213	-0.351563	-0.070313	-0.070313	337	16_30_36_7793430
0.082031	-0.228516	0.697266	-0.759320	-0.337475	-0.496839	-0.351563	-0.093750	-0.058594	338	16_30_36_7954720
0.064453	-0.216797	0.697266	-0.778068	-0.337475	-0.496839	-0.351563	-0.070313	-0.070313	339	16_30_36_8116010
0.052734	-0.228516	0.691406	-0.768694	-0.337475	-0.496839	-0.351563	-0.093750	-0.058594	340	16_30_36_8277300
0.061523	-0.216797	0.691406	-0.778068	-0.337475	-0.506213	-0.351563	-0.082031	-0.070313	341	16_30_36_8438590
0.052734	-0.225586	0.697266	-0.768694	-0.337475	-0.506213	-0.339844	-0.082031	-0.105469	342	16_30_36_8599880
0.079102	-0.222656	0.694336	-0.768694	-0.337475	-0.506213	-0.351563	-0.117188	-0.105469	343	16_30_36_8761170
0.067383	-0.228516	0.697266	-0.768694	-0.337475	-0.506213	-0.351563	-0.082031	-0.082031	344	16_30_36_8922460
0.073242	-0.219727	0.694336	-0.768694	-0.337475	-0.506213	-0.351563	-0.058594	-0.070313	345	16_30_36_9083750
0.073242	-0.216797	0.694336	-0.768694	-0.337475	-0.506213	-0.351563	-0.070313	-0.082031	346	16_30_36_9245040
0.076172	-0.222656	0.703125	-0.768694	-0.328101	-0.506213	-0.351563	-0.093750	-0.105469	347	16_30_36_9406330
0.064453	-0.222656	0.697266	-0.768694	-0.328101	-0.506213	-0.351563	-0.093750	-0.082031	348	16_30_36_9567620
0.067383	-0.213867	0.694336	-0.768694	-0.328101	-0.506213	-0.351563	-0.105469	-0.082031	349	16_30_36_9728910
0.084961	-0.216797	0.691406	-0.768694	-0.328101	-0.506213	-0.363281	-0.128906	-0.070313	350	16_30_36_9890200
0.073242	-0.228516	0.688477	-0.768694	-0.328101	-0.496839	-0.375000	-0.128906	-0.093750	351	16_30_37_0051490
0.067383	-0.228516	0.685547	-0.768694	-0.318727	-0.506213	-0.363281	-0.082031	-0.128906	352	16_30_37_0212780
0.055664	-0.222656	0.688477	-0.768694	-0.328101	-0.496839	-0.351563	-0.082031	-0.093750	353	16_30_37_0374070
0.064453	-0.225586	0.688477	-0.768694	-0.337475	-0.496839	-0.351563	-0.070313	-0.070313	354	16_30_37_0535360
0.058594	-0.225586	0.688477	-0.768694	-0.328101	-0.496839	-0.351563	-0.093750	-0.105469	355	16_30_37_0696650
0.043945	-0.216797	0.691406	-0.768694	-0.328101	-0.496839	-0.339844	-0.105469	-0.152344	356	16_30_37_0857940
0.041016	-0.222656	0.700195	-0.768694	-0.337475	-0.496839	-0.351563	-0.105469	-0.105469	357	16_30_37_1019230
0.046875	-0.222656	0.682617	-0.768694	-0.337475	-0.496839	-0.351563	-0.082031	-0.082031	358	16_30_37_1180520
0.049805	-0.231445	0.682617	-0.768694	-0.337475	-0.496839	-0.339844	-0.058594	-0.105469	359	16_30_37_1341810
0.041016	-0.225586	0.691406	-0.768694	-0.337475	-0.496839	-0.351563	-0.070313	-0.117188	360	16_30_37_1503100
0.038086	-0.225586	0.682617	-0.768694	-0.337475	-0.506213	-0.351563	-0.082031	-0.082031	361	16_30_37_1664390
0.038086	-0.216797	0.691406	-0.768694	-0.337475	-0.506213	-0.375000	-0.058594	-0.105469	362	16_30_37_1825680
0.055664	-0.216797	0.694336	-0.768694	-0.337475	-0.506213	-0.351563	-0.058594	-0.105469	363	16_30_37_1986970
0.043945	-0.222656	0.682617	-0.768694	-0.337475	-0.506213	-0.351563	-0.105469	-0.082031	364	16_30_37_2148260
0.041016	-0.228516	0.691406	-0.768694	-0.337475	-0.515588	-0.386719	-0.128906	-0.082031	365	16_30_37_2309550
0.061523	-0.228516	0.703125	-0.768694	-0.346850	-0.506213	-0.351563	-0.117188	-0.093750	366	16_30_37_2470840
0.058594	-0.234375	0.694336	-0.768694	-0.346850	-0.506213	-0.375000	-0.070313	-0.105469	367	16_30_37_2632130
0.058594	-0.216797	0.694336	-0.768694	-0.356224	-0.515588	-0.351563	-0.070313	-0.070313	368	16_30_37_2793420
0.061523	-0.216797	0.691406	-0.768694	-0.356224	-0.506213	-0.164063	-0.046875	0.105469	369	16_30_37_2954710
0.064453	-0.213867	0.691406	-0.768694	-0.346850	-0.506213	-0.351563	-0.070313	-0.117188	370	16_30_37_3116000
0.064453	-0.216797	0.694336	-0.768694	-0.346850	-0.506213	-0.351563	-0.070313	-0.070313	371	16_30_37_3277290
0.067383	-0.216797	0.697266	-0.768694	-0.356224	-0.506213	-0.351563	-0.058594	-0.023438	372	16_30_37_3438580
0.067383	-0.228516	0.694336	-0.768694	-0.337475	-0.506213	-0.351563	-0.070313	-0.093750	373	16_30_37_3599870
0.079102	-0.216797	0.700195	-0.768694	-0.346850	-0.506213	-0.375000	-0.082031	-0.140625	374	16_30_37_3761160
0.067383	-0.222656	0.697266	-0.768694	-0.337475	-0.506213	-0.351563	-0.058594	-0.105469	375	16_30_37_3922450
0.067383	-0.216797	0.697266	-0.768694	-0.337475	-0.506213	-0.304688	-0.082031	-0.046875	376	16_30_37_4083740
0.064453	-0.216797	0.697266	-0.768694	-0.337475	-0.506213	-0.363281	-0.117188	-0.070313	377	16_30_37_4245030
0.058594	-0.216797	0.694336	-0.768694	-0.337475	-0.496839	-0.175781	0.000000	0.023438	378	16_30_37_4406320
0.061523	-0.216797	0.706055	-0.768694	-0.337475	-0.506213	-0.363281	-0.117188	-0.082031	379	16_30_37_4567610
0.070313	-0.216797	0.697266	-0.768694	-0.337475	-0.496839	-0.339844	-0.117188	-0.093750	380	16_30_37_4728900
0.073242	-0.208008	0.691406	-0.768694	-0.337475	-0.496839	-0.351563	-0.082031	-0.117188	381	16_30_37_4890190
0.064453	-0.231445	0.697266	-0.768694	-0.328101	-0.496839	-0.339844	-0.082031	-0.093750	382	16_30_37_5051480
0.076172	-0.222656	0.697266	-0.768694	-0.337475	-0.496839	-0.351563	-0.140625	-0.070313	383	16_30_37_5212770
0.061523	-0.222656	0.691406	-0.768694	-0.328101	-0.496839	-0.351563	-0.128906	-0.070313	384	16_30_37_5374060
0.046875	-0.231445	0.691406	-0.768694	-0.328101	-0.496839	-0.351563	-0.105469	-0.105469	385	16_30_37_5535350
0.064453	-0.216797	0.694336	-0.768694	-0.337475	-0.496839	-0.375000	-0.117188	-0.105469	386	16_30_37_5696640
0.058594	-0.219727	0.688477	-0.768694	-0.337475	-0.496839	-0.351563	-0.117188	-0.093750	387	16_30_37_5857930
0.055664	-0.210938	0.679688	-0.768694	-0.337475	-0.496839	-0.351563	-0.093750	-0.117188	388	16_30_37_6019220
0.061523	-0.222656	0.688477	-0.768694	-0.337475	-0.496839	-0.351563	-0.117188	-0.117188	389	16_30_37_6180510
0.052734	-0.219727	0.697266	-0.768694	-0.337475	-0.496839	-0.351563	-0.128906	-0.117188	390	16_30_37_6341800
0.052734	-0.219727	0.694336	-0.768694	-0.337475	-0.496839	-0.351563	-0.140625	-0.105469	391	16_30_37_6503090
0.055664	-0.225586	0.700195	-0.768694	-0.337475	-0.496839	-0.351563	-0.128906	-0.093750	392	16_30_37_6664380
0.055664	-0.213867	0.697266	-0.768694	-0.337475	-0.496839	-0.351563	-0.093750	-0.082031	393	16_30_37_6825670
0.052734	-0.228516	0.700195	-0.778068	-0.337475	-0.496839	-0.292969	-0.070313	-0.058594	394	16_30_37_6986960
0.052734	-0.222656	0.691406	-0.768694	-0.337475	-0.506213	-0.351563	-0.128906	-0.082031	395	16_30_37_7148250
0.052734	-0.222656	0.694336	-0.768694	-0.337475	-0.506213	-0.351563	-0.105469	-0.117188	396	16_30_37_7309540
0.041016	-0.216797	0.688477	-0.768694	-0.337475	-0.506213	-0.257813	0.000000	-0.093750	397	16_30_37_7470830
0.061523	-0.210938	0.685547	-0.768694	-0.337475	-0.496839	-0.339844	-0.070313	-0.070313	398	16_30_37_7632120
0.055664	-0.222656	0.697266	-0.768694	-0.337475	-0.496839	-0.351563	-0.093750	-0.046875	399	16_30_37_7793410
0.049805	-0.216797	0.700195	-0.768694	-0.337475	-0.506213	-0.351563	-0.105469	-0.082031	400	16_30_37_7954700
0.046875	-0.222656	0.688477	-0.768694	-0.337475	-0.506213	-0.222656	-0.058594	-0.011719	401	16_30_37_8115990
0.061523	-0.219727	0.691406	-0.768694	-0.337475	-0.506213	-0.351563	-0.105469	-0.070313	402	16_30_37_8277280
0.061523	-0.228516	0.694336	-0.768694	-0.337475	-0.506213	-0.351563	-0.093750	-0.093750	403	16_30_37_8438570
0.052734	-0.213867	0.688477	-0.778068	-0.337475	-0.506213	-0.351563	-0.070313	-0.105469	404	16_30_37_8599860
0.055664	-0.228516	0.691406	-0.759320	-0.337475	-0.506213	-0.351563	-0.105469	-0.105469	405	16_30_37_8761150
0.055664	-0.210938	0.694336	-0.768694	-0.337475	-0.506213	-0.351563	-0.140625	-0.152344	406	16_30_37_8922440
0.061523	-0.228516	0.691406	-0.768694	-0.337475	-0.506213	-0.351563	-0.128906	-0.093750	407	16_30_37_9083730
0.058594	-0.222656	0.682617	-0.768694	-0.337475	-0.506213	-0.351563	-0.070313	-0.058594	408	16_30_37_9245020
0.052734	-0.216797	0.694336	-0.768694	-0.337475	-0.506213	-0.375000	-0.128906	-0.070313	409	16_30_37_9406310
0.061523	-0.222656	0.691406	-0.778068	-0.337475	-0.506213	-0.339844	-0.117188	-0.058594	410	16_30_37_9567600
0.058594	-0.228516	0.700195	-0.768694	-0.337475	-0.506213	-0.187500	-0.011719	0.046875	411	16_30_37_9728890
0.052734	-0.222656	0.691406	-0.759320	-0.356224	-0.496839	-0.351563	-0.082031	-0.082031	412	16_30_37_9890180
0.061523	-0.222656	0.688477	-0.768694	-0.337475	-0.496839	-0.351563	-0.082031	-0.011719	413	16_30_38_0051470
0.067383	-0.213867	0.700195	-0.768694	-0.337475	-0.496839	-0.351563	-0.058594	0.046875	414	16_30_38_0212760
0.052734	-0.219727	0.697266	-0.768694	-0.337475	-0.506213	-0.292969	-0.082031	-0.023438	415	16_30_38_0374050
0.064453	-0.222656	0.688477	-0.768694	-0.328101	-0.506213	-0.351563	-0.093750	-0.093750	416	16_30_38_0535340
0.058594	-0.222656	0.688477	-0.768694	-0.337475	-0.496839	-0.339844	-0.070313	-0.093750	417	16_30_38_0696630
0.055664	-0.216797	0.697266	-0.768694	-0.337475	-0.496839	-0.257813	0.011719	-0.093750	418	16_30_38_0857920
0.058594	-0.216797	0.694336	-0.778068	-0.337475	-0.496839	-0.339844	-0.082031	-0.035156	419	16_30_38_1019210
0.049805	-0.228516	0.700195	-0.778068	-0.337475	-0.506213	-0.339844	-0.117188	-0.023438	420	16_30_38_1180500
0.067383	-0.222656	0.682617	-0.768694	-0.337475	-0.496839	-0.351563	-0.128906	-0.070313	421	16_30_38_1341790
0.052734	-0.222656	0.688477	-0.778068	-0.346850	-0.506213	-0.351563	-0.164063	-0.082031	422	16_30_38_1503080
0.064453	-0.222656	0.694336	-0.768694	-0.337475	-0.496839	-0.351563	-0.082031	-0.105469	423	16_30_38_1664370
0.061523	-0.219727	0.700195	-0.768694	-0.337475	-0.496839	-0.351563	-0.058594	-0.117188	424	16_30_38_1825660
0.061523	-0.219727	0.694336	-0.778068	-0.337475	-0.506213	-0.351563	-0.070313	-0.093750	425	16_30_38_1986950
0.064453	-0.216797	0.691406	-0.778068	-0.337475	-0.506213	-0.281250	-0.035156	-0.058594	426	16_30_38_2148240
0.058594	-0.222656	0.694336	-0.768694	-0.337475	-0.506213	-0.351563	-0.082031	-0.058594	427	16_30_38_2309530
0.052734	-0.225586	0.694336	-0.768694	-0.337475	-0.496839	-0.351563	-0.117188	-0.046875	428	16_30_38_2470820
0.061523	-0.216797	0.700195	-0.768694	-0.337475	-0.506213	-0.351563	-0.070313	-0.070313	429	16_30_38_2632110
0.049805	-0.213867	0.697266	-0.768694	-0.337475	-0.506213	-0.351563	-0.093750	-0.105469	430	16_30_38_2793400
0.070313	-0.225586	0.694336	-0.768694	-0.337475	-0.496839	-0.351563	-0.082031	-0.082031	431	16_30_38_2954690
0.073242	-0.213867	0.700195	-0.768694	-0.337475	-0.496839	-0.351563	-0.058594	-0.058594	432	16_30_38_3115980
0.058594	-0.208008	0.694336	-0.778068	-0.337475	-0.506213	-0.281250	0.105469	0.046875	433	16_30_38_3277270
0.058594	-0.222656	0.694336	-0.768694	-0.337475	-0.496839	-0.351563	-0.011719	0.058594	434	16_30_38_3438560
0.058594	-0.222656	0.700195	-0.768694	-0.337475	-0.506213	-0.351563	-0.070313	-0.082031	435	16_30_38_3599850
0.064453	-0.222656	0.694336	-0.768694	-0.337475	-0.506213	-0.351563	-0.105469	-0.046875	436	16_30_38_3761140
0.064453	-0.228516	0.700195	-0.768694	-0.328101	-0.506213	-0.363281	-0.105469	-0.117188	437	16_30_38_3922430
0.061523	-0.228516	0.700195	-0.768694	-0.337475	-0.496839	-0.351563	-0.082031	-0.140625	438	16_30_38_4083720
0.076172	-0.216797	0.688477	-0.768694	-0.337475	-0.496839	-0.210938	-0.117188	-0.011719	439	16_30_38_4245010
0.073242	-0.222656	0.700195	-0.768694	-0.337475	-0.496839	-0.363281	-0.128906	-0.105469	440	16_30_38_4406300
0.061523	-0.222656	0.694336	-0.768694	-0.337475	-0.496839	-0.339844	-0.117188	-0.117188	441	16_30_38_4567590
0.052734	-0.225586	0.694336	-0.778068	-0.337475	-0.496839	-0.175781	0.035156	0.000000	442	16_30_38_4728880
0.058594	-0.225586	0.688477	-0.768694	-0.337475	-0.496839	-0.328125	-0.082031	-0.070313	443	16_30_38_4890170
0.052734	-0.225586	0.697266	-0.768694	-0.337475	-0.496839	-0.351563	-0.105469	-0.070313	444	16_30_38_5051460
0.055664	-0.225586	0.697266	-0.778068	-0.337475	-0.496839	-0.316406	-0.093750	-0.046875	445	16_30_38_5212750
0.061523	-0.228516	0.694336	-0.768694	-0.337475	-0.496839	-0.351563	-0.082031	-0.046875	446	16_30_38_5374040
0.052734	-0.216797	0.694336	-0.768694	-0.346850	-0.506213	-0.351563	-0.082031	-0.082031	447	16_30_38_5535330
0.070313	-0.234375	0.691406	-0.768694	-0.337475	-0.506213	-0.386719	-0.128906	-0.105469	448	16_30_38_5696620
0.058594	-0.225586	0.691406	-0.768694	-0.337475	-0.506213	-0.351563	-0.093750	-0.093750	449	16_30_38_5857910
0.061523	-0.216797	0.688477	-0.778068	-0.337475	-0.506213	-0.339844	-0.070313	-0.070313	450	16_30_38_6019200
0.061523	-0.228516	0.688477	-0.768694	-0.337475	-0.506213	-0.351563	-0.070313	-0.105469	451	16_30_38_6180490
0.064453	-0.219727	0.688477	-0.768694	-0.337475	-0.506213	-0.351563	-0.105469	-0.070313	452	16_30_38_6341780
0.064453	-0.228516	0.691406	-0.768694	-0.337475	-0.496839	-0.222656	-0.023438	0.222656	453	16_30_38_6503070
0.049805	-0.225586	0.700195	-0.768694	-0.337475	-0.506213	-0.375000	-0.105469	-0.105469	454	16_30_38_6664360
0.052734	-0.219727	0.694336	-0.768694	-0.337475	-0.506213	-0.351563	-0.093750	-0.082031	455	16_30_38_6825650
0.052734	-0.222656	0.688477	-0.768694	-0.346850	-0.506213	-0.363281	-0.105469	-0.128906	456	16_30_38_6986940
0.058594	-0.222656	0.688477	-0.768694	-0.337475	-0.506213	-0.363281	-0.093750	-0.093750	457	16_30_38_7148230
0.058594	-0.231445	0.694336	-0.768694	-0.337475	-0.506213	-0.351563	-0.070313	-0.093750	458	16_30_38_7309520
0.055664	-0.231445	0.694336	-0.768694	-0.337475	-0.506213	-0.363281	-0.117188	-0.117188	459	16_30_38_7470810
0.052734	-0.210938	0.688477	-0.768694	-0.346850	-0.506213	-0.351563	-0.105469	-0.046875	460	16_30_38_7632100
0.058594	-0.231445	0.694336	-0.768694	-0.337475	-0.506213	-0.351563	-0.105469	-0.023438	461	16_30_38_7793390
0.064453	-0.216797	0.700195	-0.768694	-0.337475	-0.506213	-0.351563	-0.105469	-0.082031	462	16_30_38_7954680
0.055664	-0.216797	0.688477	-0.768694	-0.337475	-0.506213	-0.199219	0.046875	0.011719	463	16_30_38_8115970
0.061523	-0.216797	0.700195	-0.768694	-0.337475	-0.506213	-0.351563	-0.105469	-0.140625	464	16_30_38_8277260
0.055664	-0.228516	0.691406	-0.768694	-0.337475	-0.506213	-0.351563	-0.070313	-0.093750	465	16_30_38_8438550
0.064453	-0.225586	0.697266	-0.768694	-0.346850	-0.506213	-0.351563	-0.128906	-0.105469	466	16_30_38_8599840
0.064453	-0.225586	0.700195	-0.768694	-0.337475	-0.496839	-0.351563	-0.128906	-0.117188	467	16_30_38_8761130
0.058594	-0.225586	0.700195	-0.768694	-0.346850	-0.506213	-0.363281	-0.093750	-0.070313	468	16_30_38_8922420
0.055664	-0.219727	0.700195	-0.768694	-0.337475	-0.506213	-0.351563	-0.117188	-0.023438	469	16_30_38_9083710
0.061523	-0.222656	0.691406	-0.768694	-0.337475	-0.496839	-0.386719	-0.128906	-0.058594	470	16_30_38_9245000
0.052734	-0.225586	0.691406	-0.768694	-0.337475	-0.496839	-0.351563	-0.070313	-0.082031	471	16_30_38_9406290
0.052734	-0.222656	0.691406	-0.768694	-0.318727	-0.496839	-0.351563	-0.093750	-0.105469	472	16_30_38_9567580
0.064453	-0.222656	0.694336	-0.768694	-0.346850	-0.496839	-0.351563	-0.082031	-0.082031	473	16_30_38_9728870
0.058594	-0.222656	0.700195	-0.768694	-0.337475	-0.506213	-0.398438	-0.082031	-0.093750	474	16_30_38_9890160
0.049805	-0.225586	0.688477	-0.768694	-0.337475	-0.506213	-0.351563	-0.105469	-0.117188	475	16_30_39_0051450
0.058594	-0.216797	0.694336	-0.768694	-0.337475	-0.506213	-0.351563	-0.082031	-0.093750	476	16_30_39_0212740
0.052734	-0.213867	0.688477	-0.768694	-0.337475	-0.506213	-0.351563	-0.093750	-0.105469	477	16_30_39_0374030
0.058594	-0.222656	0.694336	-0.768694	-0.346850	-0.506213	-0.351563	-0.093750	-0.128906	478	16_30_39_0535320
0.058594	-0.228516	0.703125	-0.768694	-0.337475	-0.506213	-0.351563	-0.093750	-0.140625	479	16_30_39_0696610
0.064453	-0.222656	0.697266	-0.768694	-0.337475	-0.506213	-0.351563	-0.070313	-0.093750	480	16_30_39_0857900
0.058594	-0.222656	0.688477	-0.768694	-0.337475	-0.506213	-0.351563	-0.070313	-0.046875	481	16_30_39_1019190
0.052734	-0.222656	0.691406	-0.768694	-0.337475	-0.496839	-0.351563	-0.093750	-0.093750	482	16_30_39_1180480
0.058594	-0.222656	0.694336	-0.768694	-0.337475	-0.506213	-0.351563	-0.128906	-0.128906	483	16_30_39_1341770
0.052734	-0.213867	0.691406	-0.768694	-0.337475	-0.506213	-0.351563	-0.093750	-0.117188	484	16_30_39_1503060
0.049805	-0.219727	0.688477	-0.768694	-0.337475	-0.496839	-0.351563	-0.140625	-0.128906	485	16_30_39_1664350
0.052734	-0.210938	0.691406	-0.768694	-0.337475	-0.496839	-0.351563	-0.023438	0.082031	486	16_30_39_1825640
0.046875	-0.216797	0.688477	-0.768694	-0.337475	-0.496839	-0.351563	-0.082031	-0.082031	487	16_30_39_1986930
0.058594	-0.225586	0.694336	-0.768694	-0.337475	-0.506213	-0.351563	-0.117188	-0.093750	488	16_30_39_2148220
0.041016	-0.225586	0.691406	-0.768694	-0.337475	-0.506213	-0.351563	-0.058594	-0.117188	489	16_30_39_2309510
0.055664	-0.228516	0.691406	-0.768694	-0.337475	-0.506213	-0.351563	-0.093750	-0.128906	490	16_30_39_2470800
0.052734	-0.210938	0.697266	-0.768694	-0.337475	-0.506213	-0.351563	-0.152344	-0.093750	491	16_30_39_2632090
0.055664	-0.225586	0.688477	-0.768694	-0.337475	-0.506213	-0.339844	-0.117188	-0.105469	492	16_30_39_2793380
0.058594	-0.219727	0.694336	-0.778068	-0.337475	-0.506213	-0.339844	-0.082031	-0.058594	493	16_30_39_2954670
0.052734	-0.231445	0.694336	-0.768694	-0.337475	-0.506213	-0.351563	-0.093750	-0.082031	494	16_30_39_3115960
0.055664	-0.219727	0.700195	-0.768694	-0.337475	-0.496839	-0.351563	-0.117188	-0.140625	495	16_30_39_3277250
0.064453	-0.222656	0.694336	-0.768694	-0.337475	-0.506213	-0.351563	-0.128906	-0.093750	496	16_30_39_3438540
0.052734	-0.213867	0.694336	-0.768694	-0.337475	-0.506213	-0.351563	-0.082031	0.082031	497	16_30_39_3599830
0.061523	-0.222656	0.700195	-0.768694	-0.337475	-0.506213	-0.351563	-0.070313	-0.082031	498	16_30_39_3761120
0.064453	-0.234375	0.688477	-0.768694	-0.337475	-0.496839	-0.351563	-0.117188	-0.046875	499	16_30_39_3922410
0.055664	-0.228516	0.688477	-0.768694	-0.337475	-0.506213	-0.257813	-0.070313	-0.046875	500	16_30_39_4083700
0.055664	-0.219727	0.697266	-0.768694	-0.337475	-0.506213	-0.351563	-0.046875	-0.164063	501	16_30_39_4244990
0.046875	-0.228516	0.688477	-0.768694	-0.337475	-0.496839	-0.351563	-0.070313	-0.140625	502	16_30_39_4406280
0.064453	-0.228516	0.682617	-0.768694	-0.346850	-0.506213	-0.351563	-0.105469	-0.105469	503	16_30_39_4567570
0.055664	-0.210938	0.700195	-0.768694	-0.337475	-0.506213	-0.351563	-0.117188	-0.093750	504	16_30_39_4728860
0.052734	-0.210938	0.691406	-0.768694	-0.337475	-0.506213	-0.351563	-0.105469	-0.093750	505	16_30_39_4890150
0.055664	-0.222656	0.688477	-0.768694	-0.337475	-0.496839	-0.351563	-0.105469	-0.105469	506	16_30_39_5051440
0.041016	-0.213867	0.694336	-0.768694	-0.346850	-0.506213	-0.351563	-0.070313	-0.105469	507	16_30_39_5212730
0.058594	-0.216797	0.697266	-0.778068	-0.337475	-0.506213	-0.304688	-0.070313	-0.058594	508	16_30_39_5374020
0.058594	-0.225586	0.700195	-0.768694	-0.337475	-0.506213	-0.328125	-0.058594	-0.093750	509	16_30_39_5535310
0.064453	-0.219727	0.700195	-0.768694	-0.346850	-0.506213	-0.281250	-0.082031	-0.117188	510	16_30_39_5696600
0.058594	-0.228516	0.688477	-0.768694	-0.337475	-0.506213	-0.351563	-0.117188	-0.140625	511	16_30_39_5857890
0.052734	-0.216797	0.700195	-0.768694	-0.337475	-0.506213	-0.363281	-0.117188	-0.105469	512	16_30_39_6019180
0.058594	-0.216797	0.694336	-0.768694	-0.337475	-0.506213	-0.375000	-0.070313	-0.070313	513	16_30_39_6180470
0.061523	-0.219727	0.694336	-0.768694	-0.337475	-0.506213	-0.351563	-0.082031	-0.093750	514	16_30_39_6341760
0.064453	-0.225586	0.700195	-0.768694	-0.337475	-0.496839	-0.351563	-0.070313	-0.093750	515	16_30_39_6503050
0.052734	-0.222656	0.685547	-0.768694	-0.337475	-0.506213	-0.351563	-0.105469	-0.117188	516	16_30_39_6664340
0.049805	-0.213867	0.703125	-0.778068	-0.346850	-0.496839	-0.292969	-0.070313	0.199219	517	16_30_39_6825630
0.052734	-0.216797	0.694336	-0.768694	-0.337475	-0.506213	-0.351563	-0.070313	-0.093750	518	16_30_39_6986920
0.058594	-0.228516	0.694336	-0.768694	-0.337475	-0.496839	-0.351563	-0.093750	-0.117188	519	16_30_39_7148210
0.055664	-0.228516	0.688477	-0.768694	-0.337475	-0.506213	-0.339844	-0.093750	-0.105469	520	16_30_39_7309500
0.058594	-0.222656	0.691406	-0.778068	-0.337475	-0.506213	-0.339844	-0.070313	-0.058594	521	16_30_39_7470790
0.052734	-0.225586	0.694336	-0.768694	-0.337475	-0.506213	-0.351563	-0.093750	-0.070313	522	16_30_39_7632080
0.064453	-0.225586	0.688477	-0.768694	-0.337475	-0.506213	-0.351563	-0.082031	-0.105469	523	16_30_39_7793370
0.064453	-0.219727	0.703125	-0.768694	-0.337475	-0.496839	-0.375000	-0.128906	-0.082031	524	16_30_39_7954660
0.064453	-0.222656	0.694336	-0.768694	-0.337475	-0.506213	-0.386719	-0.093750	-0.058594	525	16_30_39_8115950
0.052734	-0.219727	0.700195	-0.768694	-0.337475	-0.506213	-0.351563	-0.105469	-0.082031	526	16_30_39_8277240
0.064453	-0.225586	0.703125	-0.778068	-0.337475	-0.506213	-0.328125	-0.140625	-0.093750	527	16_30_39_8438530
0.061523	-0.228516	0.691406	-0.768694	-0.337475	-0.506213	-0.351563	-0.175781	-0.070313	528	16_30_39_8599820
0.064453	-0.222656	0.694336	-0.768694	-0.337475	-0.506213	-0.351563	-0.117188	-0.105469	529	16_30_39_8761110
0.058594	-0.219727	0.682617	-0.768694	-0.337475	-0.496839	-0.339844	-0.070313	-0.105469	530	16_30_39_8922400
0.055664	-0.216797	0.700195	-0.768694	-0.337475	-0.506213	-0.351563	-0.093750	-0.082031	531	16_30_39_9083690
0.064453	-0.228516	0.691406	-0.768694	-0.337475	-0.506213	-0.351563	-0.082031	-0.082031	532	16_30_39_9244980
0.061523	-0.228516	0.688477	-0.778068	-0.337475	-0.506213	-0.328125	-0.070313	-0.070313	533	16_30_39_9406270
0.055664	-0.208008	0.694336	-0.768694	-0.337475	-0.506213	-0.351563	-0.105469	-0.058594	534	16_30_39_9567560
0.058594	-0.219727	0.694336	-0.768694	-0.337475	-0.496839	-0.351563	-0.093750	-0.070313	535	16_30_39_9728850
0.067383	-0.210938	0.688477	-0.768694	-0.337475	-0.506213	-0.398438	-0.105469	-0.128906	536	16_30_39_9890140
0.052734	-0.222656	0.691406	-0.768694	-0.337475	-0.496839	-0.363281	-0.082031	-0.093750	537	16_30_40_0051430
0.055664	-0.213867	0.685547	-0.768694	-0.337475	-0.496839	-0.351563	-0.070313	-0.058594	538	16_30_40_0212720
0.064453	-0.216797	0.688477	-0.768694	-0.337475	-0.496839	-0.351563	-0.117188	-0.082031	539	16_30_40_0374010
0.061523	-0.222656	0.694336	-0.768694	-0.337475	-0.506213	-0.292969	-0.117188	-0.046875	540	16_30_40_0535300
0.052734	-0.222656	0.700195	-0.768694	-0.337475	-0.506213	-0.351563	-0.117188	-0.128906	541	16_30_40_0696590
0.067383	-0.228516	0.700195	-0.768694	-0.337475	-0.496839	-0.351563	-0.070313	-0.117188	542	16_30_40_0857880
0.052734	-0.225586	0.694336	-0.778068	-0.337475	-0.496839	-0.222656	-0.035156	-0.058594	543	16_30_40_1019170
0.058594	-0.213867	0.694336	-0.768694	-0.337475	-0.506213	-0.363281	-0.093750	-0.082031	544	16_30_40_1180460
0.064453	-0.219727	0.700195	-0.768694	-0.337475	-0.506213	-0.351563	-0.105469	-0.105469	545	16_30_40_1341750
0.052734	-0.225586	0.703125	-0.768694	-0.337475	-0.506213	-0.351563	-0.117188	-0.128906	546	16_30_40_1503040
0.061523	-0.222656	0.700195	-0.759320	-0.337475	-0.506213	-0.339844	-0.070313	-0.093750	547	16_30_40_1664330
0.061523	-0.228516	0.691406	-0.768694	-0.337475	-0.506213	-0.375000	-0.105469	-0.070313	548	16_30_40_1825620
0.058594	-0.216797	0.688477	-0.768694	-0.337475	-0.506213	-0.351563	-0.128906	-0.070313	549	16_30_40_1986910
0.067383	-0.222656	0.694336	-0.768694	-0.337475	-0.506213	-0.351563	-0.105469	-0.058594	550	16_30_40_2148200
0.058594	-0.219727	0.706055	-0.768694	-0.337475	-0.496839	-0.351563	-0.105469	-0.105469	551	16_30_40_2309490
0.061523	-0.216797	0.694336	-0.768694	-0.337475	-0.496839	-0.351563	-0.093750	-0.093750	552	16_30_40_2470780
0.061523	-0.222656	0.688477	-0.768694	-0.337475	-0.496839	-0.351563	-0.093750	-0.093750	553	16_30_40_2632070
0.061523	-0.216797	0.700195	-0.768694	-0.337475	-0.496839	-0.351563	-0.082031	-0.058594	554	16_30_40_2793360
0.049805	-0.225586	0.688477	-0.768694	-0.337475	-0.506213	-0.351563	-0.082031	-0.046875	555	16_30_40_2954650
0.052734	-0.219727	0.676758	-0.768694	-0.337475	-0.496839	-0.199219	-0.070313	0.082031	556	16_30_40_3115940
0.052734	-0.216797	0.688477	-0.768694	-0.337475	-0.506213	-0.351563	-0.093750	-0.093750	557	16_30_40_3277230
0.052734	-0.228516	0.682617	-0.768694	-0.337475	-0.506213	-0.351563	-0.070313	-0.058594	558	16_30_40_3438520
0.046875	-0.222656	0.691406	-0.768694	-0.337475	-0.506213	-0.351563	-0.093750	-0.046875	559	16_30_40_3599810
0.052734	-0.222656	0.691406	-0.768694	-0.337475	-0.506213	-0.363281	-0.105469	-0.011719	560	16_30_40_3761100
0.049805	-0.228516	0.694336	-0.768694	-0.337475	-0.496839	-0.351563	-0.105469	-0.105469	561	16_30_40_3922390
0.049805	-0.219727	0.691406	-0.768694	-0.337475	-0.506213	-0.351563	-0.058594	-0.082031	562	16_30_40_4083680
0.049805	-0.216797	0.697266	-0.768694	-0.337475	-0.496839	-0.351563	-0.082031	-0.105469	563	16_30_40_4244970
0.061523	-0.222656	0.691406	-0.768694	-0.337475	-0.506213	-0.351563	-0.105469	-0.093750	564	16_30_40_4406260
0.061523	-0.228516	0.682617	-0.768694	-0.346850	-0.506213	-0.375000	-0.093750	-0.058594	565	16_30_40_4567550
0.061523	-0.219727	0.691406	-0.768694	-0.337475	-0.506213	-0.351563	-0.117188	-0.105469	566	16_30_40_4728840
0.052734	-0.228516	0.688477	-0.768694	-0.337475	-0.506213	-0.351563	-0.070313	-0.093750	567	16_30_40_4890130
0.055664	-0.216797	0.694336	-0.768694	-0.346850	-0.506213	-0.351563	-0.082031	-0.058594	568	16_30_40_5051420
0.058594	-0.228516	0.697266	-0.778068	-0.346850	-0.506213	-0.351563	-0.082031	-0.093750	569	16_30_40_5212710
0.064453	-0.222656	0.694336	-0.768694	-0.337475	-0.506213	-0.351563	-0.140625	-0.164063	570	16_30_40_5374000
0.049805	-0.222656	0.694336	-0.768694	-0.337475	-0.506213	-0.351563	-0.105469	-0.152344	571	16_30_40_5535290
0.058594	-0.219727	0.691406	-0.768694	-0.337475	-0.506213	-0.375000	-0.117188	-0.082031	572	16_30_40_5696580
0.070313	-0.216797	0.694336	-0.768694	-0.337475	-0.506213	-0.386719	-0.093750	-0.093750	573	16_30_40_5857870
0.064453	-0.213867	0.691406	-0.768694	-0.337475	-0.506213	-0.363281	-0.070313	-0.093750	574	16_30_40_6019160
0.058594	-0.222656	0.700195	-0.768694	-0.337475	-0.506213	-0.363281	-0.082031	-0.105469	575	16_30_40_6180450
0.073242	-0.216797	0.694336	-0.768694	-0.337475	-0.496839	-0.351563	-0.070313	-0.093750	576	16_30_40_6341740
0.055664	-0.216797	0.691406	-0.768694	-0.337475	-0.506213	-0.351563	-0.058594	-0.070313	577	16_30_40_6503030
0.064453	-0.222656	0.691406	-0.768694	-0.337475	-0.506213	-0.386719	-0.082031	-0.093750	578	16_30_40_6664320
0.064453	-0.225586	0.694336	-0.759320	-0.337475	-0.506213	-0.351563	-0.117188	-0.117188	579	16_30_40_6825610
0.058594	-0.216797	0.694336	-0.768694	-0.337475	-0.506213	-0.351563	-0.117188	-0.128906	580	16_30_40_6986900
0.058594	-0.225586	0.685547	-0.768694	-0.337475	-0.496839	-0.351563	-0.105469	-0.070313	581	16_30_40_7148190
0.058594	-0.225586	0.691406	-0.768694	-0.337475	-0.496839	-0.351563	-0.046875	-0.082031	582	16_30_40_7309480
0.055664	-0.210938	0.691406	-0.768694	-0.337475	-0.506213	-0.351563	-0.070313	-0.082031	583	16_30_40_7470770
0.061523	-0.225586	0.688477	-0.768694	-0.337475	-0.506213	-0.351563	-0.117188	-0.058594	584	16_30_40_7632060
0.058594	-0.222656	0.691406	-0.768694	-0.337475	-0.496839	-0.269531	-0.082031	-0.046875	585	16_30_40_7793350
0.052734	-0.228516	0.697266	-0.768694	-0.337475	-0.506213	-0.351563	-0.093750	-0.093750	586	16_30_40_7954640
0.046875	-0.222656	0.688477	-0.768694	-0.337475	-0.506213	-0.351563	-0.117188	-0.070313	587	16_30_40_8115930
0.067383	-0.216797	0.694336	-0.768694	-0.337475	-0.506213	-0.363281	-0.105469	-0.105469	588	16_30_40_8277220
0.052734	-0.216797	0.682617	-0.768694	-0.337475	-0.506213	-0.316406	-0.035156	0.011719	589	16_30_40_8438510
0.061523	-0.219727	0.682617	-0.768694	-0.337475	-0.506213	-0.363281	-0.105469	-0.105469	590	16_30_40_8599800
0.052734	-0.219727	0.700195	-0.778068	-0.337475	-0.506213	-0.363281	-0.082031	-0.070313	591	16_30_40_8761090
0.058594	-0.222656	0.694336	-0.768694	-0.337475	-0.506213	-0.351563	-0.058594	-0.058594	592	16_30_40_8922380
0.064453	-0.216797	0.697266	-0.768694	-0.337475	-0.506213	-0.351563	-0.058594	-0.046875	593	16_30_40_9083670
0.046875	-0.210938	0.694336	-0.768694	-0.337475	-0.496839	-0.363281	-0.070313	-0.082031	594	16_30_40_9244960
0.061523	-0.219727	0.700195	-0.768694	-0.337475	-0.496839	-0.351563	-0.117188	-0.093750	595	16_30_40_9406250
0.055664	-0.219727	0.697266	-0.768694	-0.337475	-0.506213	-0.351563	-0.117188	-0.105469	596	16_30_40_9567540
0.049805	-0.219727	0.694336	-0.768694	-0.337475	-0.506213	-0.351563	-0.093750	-0.082031	597	16_30_40_9728830
0.058594	-0.219727	0.688477	-0.768694	-0.337475	-0.506213	-0.398438	-0.093750	-0.058594	598	16_30_40_9890120
0.058594	-0.216797	0.700195	-0.768694	-0.337475	-0.506213	-0.351563	-0.093750	-0.070313	599	16_30_41_0051410
0.061523	-0.231445	0.694336	-0.768694	-0.337475	-0.506213	-0.351563	-0.082031	-0.082031	600	16_30_41_0212700
0.064453	-0.210938	0.697266	-0.768694	-0.337475	-0.496839	-0.363281	-0.093750	-0.082031	601	16_30_41_0373990
0.049805	-0.222656	0.691406	-0.768694	-0.337475	-0.506213	-0.351563	-0.105469	-0.082031	602	16_30_41_0535280
0.061523	-0.222656	0.691406	-0.768694	-0.346850	-0.496839	-0.351563	-0.105469	-0.093750	603	16_30_41_0696570
0.049805	-0.228516	0.691406	-0.768694	-0.337475	-0.496839	-0.351563	-0.093750	-0.082031	604	16_30_41_0857860
0.064453	-0.219727	0.691406	-0.768694	-0.337475	-0.506213	-0.351563	-0.082031	-0.023438	605	16_30_41_1019150
0.061523	-0.225586	0.691406	-0.778068	-0.337475	-0.496839	-0.210938	-0.023438	0.082031	606	16_30_41_1180440
0.052734	-0.222656	0.682617	-0.768694	-0.337475	-0.496839	-0.339844	-0.093750	-0.046875	607	16_30_41_1341730
0.058594	-0.219727	0.685547	-0.768694	-0.337475	-0.506213	-0.351563	-0.105469	-0.058594	608	16_30_41_1503020
0.058594	-0.222656	0.694336	-0.768694	-0.337475	-0.506213	-0.375000	-0.117188	-0.082031	609	16_30_41_1664310
0.064453	-0.222656	0.694336	-0.768694	-0.337475	-0.506213	-0.363281	-0.046875	0.117188	610	16_30_41_1825600
0.070313	-0.219727	0.700195	-0.768694	-0.337475	-0.506213	-0.351563	-0.093750	-0.128906	611	16_30_41_1986890
0.052734	-0.222656	0.694336	-0.768694	-0.337475	-0.506213	-0.339844	-0.093750	-0.093750	612	16_30_41_2148180
0.055664	-0.225586	0.691406	-0.768694	-0.337475	-0.506213	-0.351563	-0.082031	-0.082031	613	16_30_41_2309470
0.070313	-0.216797	0.691406	-0.768694	-0.337475	-0.506213	-0.351563	-0.070313	-0.082031	614	16_30_41_2470760
0.058594	-0.210938	0.691406	-0.768694	-0.337475	-0.506213	-0.351563	-0.105469	-0.058594	615	16_30_41_2632050
0.061523	-0.222656	0.694336	-0.778068	-0.337475	-0.496839	-0.222656	-0.093750	0.070313	616	16_30_41_2793340
0.049805	-0.228516	0.688477	-0.768694	-0.337475	-0.506213	-0.351563	-0.082031	-0.105469	617	16_30_41_2954630
0.067383	-0.225586	0.691406	-0.778068	-0.337475	-0.506213	-0.128906	0.023438	0.011719	618	16_30_41_3115920
0.058594	-0.228516	0.682617	-0.768694	-0.337475	-0.496839	-0.351563	-0.117188	-0.058594	619	16_30_41_3277210
0.064453	-0.222656	0.700195	-0.768694	-0.337475	-0.506213	-0.339844	-0.058594	-0.023438	620	16_30_41_3438500
0.058594	-0.216797	0.694336	-0.768694	-0.337475	-0.506213	-0.351563	-0.070313	-0.046875	621	16_30_41_3599790
0.061523	-0.216797	0.700195	-0.768694	-0.337475	-0.506213	-0.351563	-0.117188	-0.070313	622	16_30_41_3761080
0.061523	-0.216797	0.697266	-0.768694	-0.337475	-0.496839	-0.351563	-0.105469	-0.082031	623	16_30_41_3922370
0.058594	-0.222656	0.703125	-0.768694	-0.337475	-0.506213	-0.351563	-0.082031	-0.093750	624	16_30_41_4083660
0.061523	-0.216797	0.691406	-0.768694	-0.337475	-0.506213	-0.351563	-0.070313	-0.058594	625	16_30_41_4244950
0.055664	-0.222656	0.691406	-0.768694	-0.337475	-0.506213	-0.351563	-0.093750	-0.023438	626	16_30_41_4406240
0.061523	-0.228516	0.697266	-0.768694	-0.337475	-0.496839	-0.351563	-0.117188	-0.046875	627	16_30_41_4567530
0.061523	-0.216797	0.694336	-0.768694	-0.337475	-0.506213	-0.351563	-0.140625	-0.093750	628	16_30_41_4728820
0.058594	-0.234375	0.700195	-0.768694	-0.337475	-0.506213	-0.351563	-0.140625	-0.070313	629	16_30_41_4890110
0.052734	-0.216797	0.700195	-0.768694	-0.337475	-0.506213	-0.351563	-0.082031	-0.046875	630	16_30_41_5051400
0.049805	-0.228516	0.691406	-0.768694	-0.337475	-0.496839	-0.386719	-0.082031	-0.082031	631	16_30_41_5212690
0.061523	-0.216797	0.697266	-0.768694	-0.337475	-0.506213	-0.363281	-0.117188	-0.105469	632	16_30_41_5373980
0.046875	-0.228516	0.697266	-0.768694	-0.337475	-0.506213	-0.351563	-0.058594	-0.105469	633	16_30_41_5535270
0.055664	-0.228516	0.694336	-0.768694	-0.337475	-0.506213	-0.363281	-0.082031	-0.105469	634	16_30_41_5696560
0.064453	-0.225586	0.694336	-0.768694	-0.337475	-0.506213	-0.351563	-0.058594	-0.082031	635	16_30_41_5857850
0.049805	-0.208008	0.694336	-0.778068	-0.346850	-0.506213	-0.257813	-0.023438	-0.011719	636	16_30_41_6019140
0.061523	-0.219727	0.691406	-0.768694	-0.337475	-0.506213	-0.363281	-0.082031	-0.105469	637	16_30_41_6180430
0.064453	-0.213867	0.703125	-0.768694	-0.337475	-0.506213	-0.351563	-0.070313	-0.128906	638	16_30_41_6341720
0.055664	-0.216797	0.694336	-0.768694	-0.337475	-0.496839	-0.164063	-0.070313	0.058594	639	16_30_41_6503010
0.058594	-0.216797	0.700195	-0.768694	-0.337475	-0.506213	-0.363281	-0.082031	-0.128906	640	16_30_41_6664300
0.041016	-0.210938	0.688477	-0.768694	-0.337475	-0.506213	-0.351563	-0.093750	-0.105469	641	16_30_41_6825590
0.064453	-0.228516	0.688477	-0.768694	-0.337475	-0.506213	-0.351563	-0.105469	-0.082031	642	16_30_41_6986880
0.058594	-0.228516	0.685547	-0.768694	-0.337475	-0.506213	-0.351563	-0.117188	-0.093750	643	16_30_41_7148170
0.058594	-0.231445	0.700195	-0.768694	-0.337475	-0.506213	-0.351563	-0.117188	-0.093750	644	16_30_41_7309460
0.043945	-0.237305	0.682617	-0.768694	-0.337475	-0.506213	-0.269531	-0.070313	-0.046875	645	16_30_41_7470750
0.052734	-0.222656	0.694336	-0.768694	-0.337475	-0.506213	-0.351563	-0.093750	-0.117188	646	16_30_41_7632040
0.046875	-0.219727	0.697266	-0.768694	-0.337475	-0.506213	-0.351563	-0.082031	-0.093750	647	16_30_41_7793330
0.055664	-0.216797	0.682617	-0.778068	-0.337475	-0.496839	-0.187500	-0.070313	0.046875	648	16_30_41_7954620
0.052734	-0.216797	0.688477	-0.768694	-0.337475	-0.506213	-0.351563	-0.117188	-0.058594	649	16_30_41_8115910
0.052734	-0.222656	0.691406	-0.768694	-0.337475	-0.506213	-0.351563	-0.093750	-0.046875	650	16_30_41_8277200
0.061523	-0.216797	0.688477	-0.768694	-0.337475	-0.496839	-0.292969	-0.058594	0.175781	651	16_30_41_8438490
0.061523	-0.216797	0.694336	-0.768694	-0.337475	-0.506213	-0.351563	-0.105469	-0.082031	652	16_30_41_8599780
0.055664	-0.234375	0.700195	-0.768694	-0.346850	-0.496839	-0.351563	-0.070313	-0.082031	653	16_30_41_8761070
0.058594	-0.216797	0.688477	-0.778068	-0.346850	-0.506213	-0.316406	-0.070313	-0.093750	654	16_30_41_8922360
0.046875	-0.225586	0.697266	-0.768694	-0.337475	-0.506213	-0.351563	-0.070313	-0.105469	655	16_30_41_9083650
0.058594	-0.213867	0.691406	-0.768694	-0.337475	-0.506213	-0.363281	-0.128906	-0.070313	656	16_30_41_9244940
0.064453	-0.225586	0.694336	-0.768694	-0.337475	-0.506213	-0.351563	-0.082031	-0.105469	657	16_30_41_9406230
0.061523	-0.219727	0.694336	-0.768694	-0.337475	-0.506213	-0.351563	-0.070313	-0.105469	658	16_30_41_9567520
0.067383	-0.228516	0.697266	-0.768694	-0.337475	-0.506213	-0.351563	-0.117188	-0.082031	659	16_30_41_9728810
0.055664	-0.213867	0.694336	-0.768694	-0.337475	-0.506213	-0.351563	-0.164063	-0.082031	660	16_30_41_9890100
0.061523	-0.228516	0.691406	-0.768694	-0.337475	-0.506213	-0.351563	-0.117188	-0.105469	661	16_30_42_0051390
0.064453	-0.216797	0.691406	-0.768694	-0.337475	-0.506213	-0.386719	-0.105469	-0.105469	662	16_30_42_0212680
0.061523	-0.222656	0.700195	-0.768694	-0.337475	-0.506213	-0.351563	-0.046875	-0.117188	663	16_30_42_0373970
0.058594	-0.228516	0.694336	-0.768694	-0.337475	-0.506213	-0.351563	-0.046875	-0.105469	664	16_30_42_0535260
0.064453	-0.231445	0.700195	-0.768694	-0.337475	-0.506213	-0.351563	-0.093750	-0.082031	665	16_30_42_0696550
0.052734	-0.219727	0.688477	-0.768694	-0.337475	-0.506213	-0.351563	-0.140625	-0.093750	666	16_30_42_0857840
0.064453	-0.225586	0.682617	-0.768694	-0.337475	-0.496839	-0.351563	-0.082031	-0.105469	667	16_30_42_1019130
0.061523	-0.222656	0.691406	-0.768694	-0.337475	-0.496839	-0.339844	-0.093750	-0.117188	668	16_30_42_1180420
0.052734	-0.225586	0.700195	-0.778068	-0.337475	-0.506213	-0.339844	-0.093750	-0.082031	669	16_30_42_1341710
0.058594	-0.219727	0.691406	-0.768694	-0.337475	-0.506213	-0.351563	-0.093750	-0.058594	670	16_30_42_1503000
0.067383	-0.213867	0.688477	-0.768694	-0.337475	-0.506213	-0.351563	-0.070313	-0.093750	671	16_30_42_1664290
0.058594	-0.228516	0.700195	-0.768694	-0.337475	-0.496839	-0.351563	-0.070313	-0.117188	672	16_30_42_1825580
0.061523	-0.216797	0.703125	-0.768694	-0.337475	-0.496839	-0.351563	-0.070313	-0.070313	673	16_30_42_1986870
0.052734	-0.213867	0.691406	-0.768694	-0.337475	-0.506213	-0.363281	-0.082031	-0.058594	674	16_30_42_2148160
0.055664	-0.225586	0.688477	-0.768694	-0.346850	-0.506213	-0.351563	-0.082031	-0.082031	675	16_30_42_2309450
0.061523	-0.222656	0.691406	-0.768694	-0.337475	-0.506213	-0.339844	-0.082031	-0.093750	676	16_30_42_2470740
0.061523	-0.225586	0.688477	-0.768694	-0.337475	-0.506213	-0.246094	-0.117188	-0.035156	677	16_30_42_2632030
0.058594	-0.222656	0.700195	-0.768694	-0.337475	-0.506213	-0.351563	-0.128906	-0.082031	678	16_30_42_2793320
0.064453	-0.210938	0.688477	-0.778068	-0.337475	-0.506213	-0.339844	-0.082031	-0.093750	679	16_30_42_2954610
0.061523	-0.222656	0.691406	-0.768694	-0.337475	-0.506213	-0.351563	-0.070313	-0.082031	680	16_30_42_3115900
0.061523	-0.222656	0.700195	-0.768694	-0.337475	-0.506213	-0.339844	-0.093750	-0.082031	681	16_30_42_3277190
0.064453	-0.216797	0.691406	-0.768694	-0.337475	-0.506213	-0.351563	-0.093750	-0.082031	682	16_30_42_3438480
0.058594	-0.228516	0.688477	-0.768694	-0.337475	-0.506213	-0.351563	-0.140625	0.222656	683	16_30_42_3599770
0.064453	-0.228516	0.682617	-0.768694	-0.337475	-0.506213	-0.363281	-0.117188	-0.105469	684	16_30_42_3761060
0.055664	-0.225586	0.700195	-0.768694	-0.337475	-0.506213	-0.363281	-0.128906	-0.128906	685	16_30_42_3922350
0.064453	-0.222656	0.697266	-0.768694	-0.337475	-0.506213	-0.386719	-0.070313	-0.128906	686	16_30_42_4083640
0.058594	-0.216797	0.688477	-0.768694	-0.337475	-0.506213	-0.386719	-0.105469	-0.128906	687	16_30_42_4244930
0.061523	-0.234375	0.697266	-0.768694	-0.337475	-0.496839	-0.351563	-0.093750	-0.128906	688	16_30_42_4406220
0.055664	-0.219727	0.688477	-0.787443	-0.337475	-0.496839	-0.199219	0.023438	0.000000	689	16_30_42_4567510
0.052734	-0.222656	0.711914	-0.768694	-0.337475	-0.506213	-0.187500	-0.058594	0.070313	690	16_30_42_4728800
0.064453	-0.208008	0.691406	-0.778068	-0.337475	-0.506213	-0.164063	-0.035156	0.070313	691	16_30_42_4890090
0.064453	-0.222656	0.694336	-0.768694	-0.337475	-0.506213	-0.351563	-0.082031	-0.093750	692	16_30_42_5051380
0.064453	-0.210938	0.691406	-0.768694	-0.337475	-0.506213	-0.351563	-0.082031	-0.093750	693	16_30_42_5212670
0.070313	-0.216797	0.688477	-0.768694	-0.337475	-0.506213	-0.351563	-0.093750	0.105469	694	16_30_42_5373960
0.058594	-0.216797	0.688477	-0.768694	-0.337475	-0.496839	-0.363281	-0.117188	-0.023438	695	16_30_42_5535250
0.073242	-0.216797	0.697266	-0.778068	-0.337475	-0.506213	-0.351563	-0.058594	-0.023438	696	16_30_42_5696540
0.052734	-0.210938	0.700195	-0.778068	-0.337475	-0.506213	-0.257813	-0.046875	0.023438	697	16_30_42_5857830
0.046875	-0.222656	0.697266	-0.768694	-0.337475	-0.506213	-0.351563	-0.093750	-0.070313	698	16_30_42_6019120
0.061523	-0.222656	0.688477	-0.768694	-0.337475	-0.506213	-0.351563	-0.093750	-0.105469	699	16_30_42_6180410
0.067383	-0.228516	0.703125	-0.778068	-0.337475	-0.496839	-0.199219	-0.035156	-0.070313	700	16_30_42_6341700
0.064453	-0.216797	0.688477	-0.768694	-0.337475	-0.506213	-0.164063	0.058594	-0.035156	701	16_30_42_6502990
0.058594	-0.228516	0.688477	-0.778068	-0.337475	-0.496839	-0.187500	0.070313	-0.011719	702	16_30_42_6664280
0.052734	-0.225586	0.688477	-0.768694	-0.337475	-0.506213	-0.351563	-0.152344	-0.105469	703	16_30_42_6825570
0.058594	-0.225586	0.691406	-0.768694	-0.337475	-0.506213	-0.351563	-0.152344	-0.058594	704	16_30_42_6986860
0.052734	-0.225586	0.697266	-0.768694	-0.337475	-0.506213	-0.351563	-0.105469	-0.093750	705	16_30_42_7148150
0.064453	-0.222656	0.703125	-0.768694	-0.337475	-0.506213	-0.351563	-0.117188	-0.105469	706	16_30_42_7309440
0.061523	-0.228516	0.694336	-0.768694	-0.337475	-0.506213	-0.363281	-0.117188	-0.117188	707	16_30_42_7470730
0.064453	-0.219727	0.694336	-0.768694	-0.337475	-0.506213	-0.351563	-0.082031	-0.140625	708	16_30_42_7632020
0.058594	-0.222656	0.694336	-0.768694	-0.337475	-0.506213	-0.351563	-0.093750	-0.128906	709	16_30_42_7793310
0.064453	-0.225586	0.694336	-0.768694	-0.337475	-0.506213	-0.351563	-0.105469	-0.093750	710	16_30_42_7954600
0.067383	-0.213867	0.691406	-0.768694	-0.337475	-0.496839	-0.351563	-0.093750	-0.070313	711	16_30_42_8115890
0.064453	-0.222656	0.694336	-0.778068	-0.337475	-0.506213	-0.152344	0.011719	0.035156	712	16_30_42_8277180
0.055664	-0.225586	0.694336	-0.768694	-0.337475	-0.496839	-0.351563	-0.082031	-0.117188	713	16_30_42_8438470
0.055664	-0.219727	0.703125	-0.768694	-0.337475	-0.496839	-0.351563	-0.058594	-0.082031	714	16_30_42_8599760
0.064453	-0.225586	0.703125	-0.759320	-0.337475	-0.496839	-0.363281	-0.023438	0.058594	715	16_30_42_8761050
0.052734	-0.234375	0.691406	-0.768694	-0.337475	-0.506213	-0.351563	-0.070313	-0.093750	716	16_30_42_8922340
0.055664	-0.231445	0.700195	-0.768694	-0.337475	-0.496839	-0.339844	-0.105469	-0.046875	717	16_30_42_9083630
0.052734	-0.216797	0.691406	-0.768694	-0.337475	-0.506213	-0.363281	-0.082031	-0.035156	718	16_30_42_9244920
0.061523	-0.225586	0.688477	-0.768694	-0.337475	-0.496839	-0.351563	-0.082031	-0.093750	719	16_30_42_9406210
0.061523	-0.225586	0.700195	-0.768694	-0.337475	-0.496839	-0.222656	-0.023438	-0.058594	720	16_30_42_9567500
0.052734	-0.222656	0.700195	-0.768694	-0.337475	-0.506213	-0.351563	-0.117188	-0.093750	721	16_30_42_9728790
0.055664	-0.222656	0.691406	-0.768694	-0.346850	-0.506213	-0.351563	-0.117188	-0.082031	722	16_30_42_9890080
0.058594	-0.225586	0.685547	-0.768694	-0.337475	-0.506213	-0.339844	-0.117188	-0.046875	723	16_30_43_0051370
0.052734	-0.222656	0.703125	-0.768694	-0.337475	-0.506213	-0.351563	-0.117188	-0.046875	724	16_30_43_0212660
0.070313	-0.222656	0.694336	-0.778068	-0.337475	-0.506213	-0.375000	-0.093750	-0.058594	725	16_30_43_0373950
0.067383	-0.219727	0.700195	-0.778068	-0.337475	-0.506213	-0.281250	-0.046875	-0.035156	726	16_30_43_0535240
0.061523	-0.210938	0.703125	-0.768694	-0.337475	-0.506213	-0.363281	-0.082031	-0.093750	727	16_30_43_0696530
0.067383	-0.222656	0.694336	-0.768694	-0.337475	-0.506213	-0.375000	-0.070313	-0.093750	728	16_30_43_0857820
0.058594	-0.225586	0.685547	-0.768694	-0.337475	-0.506213	-0.351563	-0.082031	-0.093750	729	16_30_43_1019110
0.064453	-0.216797	0.682617	-0.768694	-0.337475	-0.506213	-0.339844	-0.082031	-0.082031	730	16_30_43_1180400
0.046875	-0.210938	0.700195	-0.768694	-0.337475	-0.506213	-0.351563	-0.128906	-0.070313	731	16_30_43_1341690
0.058594	-0.216797	0.700195	-0.768694	-0.337475	-0.506213	-0.351563	-0.117188	-0.105469	732	16_30_43_1502980
0.058594	-0.216797	0.694336	-0.768694	-0.337475	-0.496839	-0.210938	-0.046875	0.070313	733	16_30_43_1664270
0.058594	-0.219727	0.697266	-0.768694	-0.337475	-0.506213	-0.351563	-0.070313	-0.082031	734	16_30_43_1825560
0.055664	-0.237305	0.694336	-0.768694	-0.337475	-0.506213	-0.351563	-0.082031	-0.082031	735	16_30_43_1986850
0.055664	-0.231445	0.691406	-0.768694	-0.337475	-0.506213	-0.339844	-0.070313	-0.058594	736	16_30_43_2148140
0.064453	-0.219727	0.688477	-0.768694	-0.337475	-0.506213	-0.292969	-0.046875	-0.070313	737	16_30_43_2309430
0.055664	-0.219727	0.703125	-0.768694	-0.346850	-0.506213	-0.363281	-0.093750	-0.093750	738	16_30_43_2470720
0.049805	-0.216797	0.694336	-0.768694	-0.337475	-0.506213	-0.351563	-0.093750	-0.093750	739	16_30_43_2632010
0.064453	-0.222656	0.691406	-0.768694	-0.337475	-0.506213	-0.351563	-0.105469	-0.058594	740	16_30_43_2793300
0.061523	-0.216797	0.694336	-0.768694	-0.337475	-0.496839	-0.351563	-0.093750	-0.046875	741	16_30_43_2954590
0.058594	-0.213867	0.694336	-0.768694	-0.337475	-0.506213	-0.351563	-0.082031	-0.128906	742	16_30_43_3115880
0.061523	-0.219727	0.679688	-0.768694	-0.337475	-0.506213	-0.351563	-0.140625	-0.117188	743	16_30_43_3277170
0.061523	-0.228516	0.700195	-0.768694	-0.337475	-0.506213	-0.339844	-0.128906	-0.105469	744	16_30_43_3438460
0.061523	-0.213867	0.694336	-0.768694	-0.337475	-0.506213	-0.328125	-0.093750	-0.058594	745	16_30_43_3599750
0.061523	-0.222656	0.691406	-0.768694	-0.337475	-0.506213	-0.363281	-0.117188	0.000000	746	16_30_43_3761040
0.064453	-0.219727	0.691406	-0.768694	-0.337475	-0.506213	-0.351563	-0.093750	0.000000	747	16_30_43_3922330
0.058594	-0.228516	0.697266	-0.768694	-0.337475	-0.506213	-0.351563	-0.070313	-0.070313	748	16_30_43_4083620
0.064453	-0.228516	0.688477	-0.768694	-0.337475	-0.506213	-0.351563	-0.070313	-0.105469	749	16_30_43_4244910
0.058594	-0.213867	0.706055	-0.768694	-0.337475	-0.506213	-0.351563	-0.082031	-0.105469	750	16_30_43_4406200
0.061523	-0.219727	0.697266	-0.768694	-0.337475	-0.506213	-0.351563	-0.070313	-0.082031	751	16_30_43_4567490
0.058594	-0.222656	0.703125	-0.768694	-0.337475	-0.506213	-0.351563	-0.117188	-0.093750	752	16_30_43_4728780
0.052734	-0.222656	0.688477	-0.778068	-0.337475	-0.506213	-0.140625	-0.035156	0.046875	753	16_30_43_4890070
0.055664	-0.222656	0.688477	-0.768694	-0.337475	-0.506213	-0.351563	-0.070313	-0.082031	754	16_30_43_5051360
0.055664	-0.216797	0.694336	-0.768694	-0.337475	-0.506213	-0.351563	-0.070313	-0.105469	755	16_30_43_5212650
0.055664	-0.222656	0.697266	-0.768694	-0.337475	-0.496839	-0.351563	-0.082031	-0.105469	756	16_30_43_5373940
0.064453	-0.231445	0.694336	-0.768694	-0.337475	-0.506213	-0.363281	-0.093750	-0.105469	757	16_30_43_5535230
0.058594	-0.216797	0.700195	-0.768694	-0.337475	-0.496839	-0.351563	-0.128906	-0.082031	758	16_30_43_5696520
0.061523	-0.228516	0.694336	-0.768694	-0.337475	-0.506213	-0.339844	-0.093750	-0.093750	759	16_30_43_5857810
0.064453	-0.208008	0.688477	-0.768694	-0.337475	-0.506213	-0.351563	-0.082031	-0.117188	760	16_30_43_6019100
0.052734	-0.222656	0.691406	-0.768694	-0.337475	-0.496839	-0.351563	-0.070313	-0.093750	761	16_30_43_6180390
0.052734	-0.219727	0.694336	-0.768694	-0.337475	-0.506213	-0.187500	0.000000	0.000000	762	16_30_43_6341680
0.058594	-0.208008	0.694336	-0.768694	-0.337475	-0.506213	-0.339844	-0.082031	-0.058594	763	16_30_43_6502970
0.061523	-0.228516	0.691406	-0.768694	-0.337475	-0.506213	-0.351563	-0.140625	0.011719	764	16_30_43_6664260
0.061523	-0.225586	0.694336	-0.768694	-0.337475	-0.506213	-0.351563	-0.117188	-0.046875	765	16_30_43_6825550
0.055664	-0.219727	0.697266	-0.768694	-0.337475	-0.506213	-0.351563	-0.070313	-0.070313	766	16_30_43_6986840
0.064453	-0.219727	0.694336	-0.768694	-0.337475	-0.506213	-0.363281	-0.082031	0.140625	767	16_30_43_7148130
0.049805	-0.219727	0.700195	-0.778068	-0.337475	-0.506213	-0.328125	-0.023438	-0.082031	768	16_30_43_7309420
0.058594	-0.210938	0.694336	-0.768694	-0.337475	-0.506213	-0.351563	-0.082031	-0.105469	769	16_30_43_7470710
0.061523	-0.237305	0.688477	-0.768694	-0.337475	-0.496839	-0.351563	-0.117188	-0.140625	770	16_30_43_7632000
0.061523	-0.216797	0.691406	-0.768694	-0.337475	-0.506213	-0.386719	-0.093750	-0.128906	771	16_30_43_7793290
0.058594	-0.225586	0.700195	-0.768694	-0.337475	-0.506213	-0.363281	-0.093750	-0.082031	772	16_30_43_7954580
0.067383	-0.222656	0.697266	-0.768694	-0.337475	-0.506213	-0.351563	-0.093750	-0.046875	773	16_30_43_8115870
0.055664	-0.213867	0.691406	-0.768694	-0.337475	-0.506213	-0.351563	-0.082031	-0.093750	774	16_30_43_8277160
0.061523	-0.222656	0.700195	-0.768694	-0.337475	-0.506213	-0.351563	-0.093750	-0.070313	775	16_30_43_8438450
0.055664	-0.228516	0.691406	-0.768694	-0.337475	-0.506213	-0.351563	-0.128906	-0.082031	776	16_30_43_8599740
0.061523	-0.234375	0.694336	-0.768694	-0.337475	-0.506213	-0.363281	-0.105469	-0.140625	777	16_30_43_8761030
0.064453	-0.222656	0.694336	-0.778068	-0.337475	-0.506213	-0.328125	-0.105469	-0.093750	778	16_30_43_8922320
0.052734	-0.222656	0.685547	-0.768694	-0.337475	-0.506213	-0.351563	-0.082031	-0.093750	779	16_30_43_9083610
0.061523	-0.216797	0.685547	-0.768694	-0.337475	-0.506213	-0.351563	-0.058594	-0.070313	780	16_30_43_9244900
0.058594	-0.213867	0.688477	-0.768694	-0.337475	-0.496839	-0.351563	-0.082031	-0.035156	781	16_30_43_9406190
0.052734	-0.208008	0.691406	-0.768694	-0.346850	-0.506213	-0.351563	-0.117188	0.023438	782	16_30_43_9567480
0.061523	-0.216797	0.688477	-0.768694	-0.346850	-0.496839	-0.351563	-0.093750	-0.011719	783	16_30_43_9728770
0.049805	-0.216797	0.694336	-0.778068	-0.337475	-0.496839	-0.328125	-0.070313	-0.046875	784	16_30_43_9890060
0.067383	-0.216797	0.691406	-0.768694	-0.337475	-0.506213	-0.351563	-0.093750	-0.070313	785	16_30_44_0051350
0.058594	-0.210938	0.688477	-0.778068	-0.337475	-0.506213	-0.363281	-0.128906	-0.070313	786	16_30_44_0212640
0.055664	-0.228516	0.697266	-0.768694	-0.337475	-0.506213	-0.351563	-0.105469	-0.046875	787	16_30_44_0373930
0.052734	-0.222656	0.694336	-0.768694	-0.337475	-0.506213	-0.351563	-0.093750	-0.058594	788	16_30_44_0535220
0.067383	-0.219727	0.700195	-0.768694	-0.337475	-0.506213	-0.386719	-0.093750	-0.058594	789	16_30_44_0696510
0.055664	-0.210938	0.694336	-0.768694	-0.337475	-0.506213	-0.351563	-0.128906	-0.046875	790	16_30_44_0857800
0.052734	-0.219727	0.691406	-0.768694	-0.337475	-0.506213	-0.351563	-0.128906	-0.093750	791	16_30_44_1019090
0.061523	-0.216797	0.703125	-0.768694	-0.346850	-0.506213	-0.351563	-0.140625	-0.117188	792	16_30_44_1180380
0.055664	-0.216797	0.700195	-0.768694	-0.337475	-0.506213	-0.351563	-0.117188	-0.117188	793	16_30_44_1341670
0.052734	-0.216797	0.697266	-0.778068	-0.337475	-0.496839	-0.152344	0.035156	-0.046875	794	16_30_44_1502960
0.055664	-0.225586	0.691406	-0.768694	-0.337475	-0.496839	-0.351563	-0.128906	-0.058594	795	16_30_44_1664250
0.055664	-0.222656	0.691406	-0.768694	-0.337475	-0.506213	-0.375000	-0.093750	-0.023438	796	16_30_44_1825540
0.052734	-0.231445	0.685547	-0.768694	-0.337475	-0.496839	-0.351563	-0.082031	-0.046875	797	16_30_44_1986830
0.052734	-0.208008	0.691406	-0.768694	-0.337475	-0.506213	-0.351563	-0.070313	-0.082031	798	16_30_44_2148120
0.061523	-0.222656	0.700195	-0.768694	-0.337475	-0.506213	-0.351563	-0.082031	-0.058594	799	16_30_44_2309410
0.067383	-0.219727	0.694336	-0.768694	-0.337475	-0.506213	-0.386719	-0.093750	-0.070313	800	16_30_44_2470700
0.052734	-0.225586	0.694336	-0.768694	-0.337475	-0.506213	-0.351563	-0.117188	-0.046875	801	16_30_44_2631990
0.052734	-0.222656	0.688477	-0.768694	-0.337475	-0.506213	-0.351563	-0.117188	-0.105469	802	16_30_44_2793280
0.052734	-0.219727	0.688477	-0.768694	-0.337475	-0.506213	-0.351563	-0.117188	-0.093750	803	16_30_44_2954570
0.058594	-0.234375	0.700195	-0.768694	-0.337475	-0.496839	-0.351563	-0.128906	-0.128906	804	16_30_44_3115860
0.061523	-0.216797	0.688477	-0.778068	-0.337475	-0.496839	-0.375000	-0.140625	-0.164063	805	16_30_44_3277150
0.049805	-0.222656	0.688477	-0.768694	-0.337475	-0.506213	-0.363281	-0.105469	-0.140625	806	16_30_44_3438440
0.052734	-0.219727	0.700195	-0.768694	-0.337475	-0.506213	-0.351563	-0.105469	-0.105469	807	16_30_44_3599730
0.041016	-0.222656	0.691406	-0.768694	-0.337475	-0.496839	-0.328125	-0.082031	-0.082031	808	16_30_44_3761020
0.061523	-0.234375	0.700195	-0.768694	-0.337475	-0.506213	-0.363281	-0.058594	-0.070313	809	16_30_44_3922310
0.064453	-0.222656	0.694336	-0.768694	-0.337475	-0.506213	-0.351563	-0.082031	-0.058594	810	16_30_44_4083600
0.061523	-0.228516	0.697266	-0.768694	-0.337475	-0.506213	-0.351563	-0.117188	-0.058594	811	16_30_44_4244890
0.052734	-0.222656	0.694336	-0.768694	-0.337475	-0.515588	-0.351563	-0.070313	-0.070313	812	16_30_44_4406180
0.061523	-0.216797	0.691406	-0.768694	-0.337475	-0.496839	-0.222656	-0.046875	-0.046875	813	16_30_44_4567470
0.055664	-0.216797	0.700195	-0.768694	-0.337475	-0.506213	-0.351563	-0.117188	-0.105469	814	16_30_44_4728760
0.067383	-0.219727	0.700195	-0.768694	-0.337475	-0.506213	-0.351563	-0.117188	-0.046875	815	16_30_44_4890050
0.067383	-0.228516	0.697266	-0.768694	-0.337475	-0.506213	-0.351563	-0.128906	-0.070313	816	16_30_44_5051340
0.061523	-0.228516	0.682617	-0.768694	-0.337475	-0.506213	-0.363281	-0.093750	-0.117188	817	16_30_44_5212630
0.052734	-0.216797	0.697266	-0.768694	-0.337475	-0.506213	-0.375000	-0.070313	-0.117188	818	16_30_44_5373920
0.049805	-0.222656	0.700195	-0.768694	-0.337475	-0.496839	-0.351563	-0.082031	-0.105469	819	16_30_44_5535210
0.061523	-0.222656	0.700195	-0.768694	-0.337475	-0.506213	-0.351563	-0.070313	-0.093750	820	16_30_44_5696500
0.055664	-0.219727	0.691406	-0.768694	-0.337475	-0.496839	-0.363281	-0.082031	-0.128906	821	16_30_44_5857790
0.061523	-0.231445	0.694336	-0.778068	-0.337475	-0.506213	-0.351563	-0.058594	-0.093750	822	16_30_44_6019080
0.058594	-0.228516	0.688477	-0.768694	-0.337475	-0.506213	-0.351563	-0.070313	-0.082031	823	16_30_44_6180370
0.064453	-0.225586	0.691406	-0.768694	-0.337475	-0.506213	-0.375000	-0.058594	-0.105469	824	16_30_44_6341660
0.046875	-0.222656	0.694336	-0.768694	-0.337475	-0.506213	-0.339844	-0.058594	-0.070313	825	16_30_44_6502950
0.055664	-0.231445	0.691406	-0.768694	-0.337475	-0.506213	-0.339844	-0.070313	-0.070313	826	16_30_44_6664240
0.058594	-0.228516	0.697266	-0.768694	-0.337475	-0.506213	-0.351563	-0.070313	-0.093750	827	16_30_44_6825530
0.052734	-0.216797	0.700195	-0.768694	-0.337475	-0.506213	-0.351563	-0.070313	-0.082031	828	16_30_44_6986820
0.064453	-0.219727	0.691406	-0.768694	-0.337475	-0.506213	-0.351563	-0.093750	-0.070313	829	16_30_44_7148110
0.064453	-0.222656	0.694336	-0.778068	-0.337475	-0.506213	-0.339844	-0.105469	-0.105469	830	16_30_44_7309400
0.064453	-0.231445	0.691406	-0.768694	-0.337475	-0.506213	-0.351563	-0.093750	-0.070313	831	16_30_44_7470690
0.076172	-0.228516	0.700195	-0.768694	-0.337475	-0.496839	-0.351563	-0.058594	-0.093750	832	16_30_44_7631980
0.058594	-0.216797	0.685547	-0.768694	-0.337475	-0.506213	-0.351563	-0.082031	-0.152344	833	16_30_44_7793270
0.058594	-0.222656	0.688477	-0.768694	-0.337475	-0.506213	-0.351563	-0.117188	-0.105469	834	16_30_44_7954560
0.058594	-0.222656	0.694336	-0.768694	-0.337475	-0.506213	-0.351563	-0.093750	-0.093750	835	16_30_44_8115850
0.061523	-0.222656	0.691406	-0.778068	-0.346850	-0.506213	-0.351563	-0.117188	-0.128906	836	16_30_44_8277140
0.055664	-0.225586	0.700195	-0.778068	-0.337475	-0.506213	-0.339844	-0.093750	-0.082031	837	16_30_44_8438430
0.061523	-0.228516	0.688477	-0.768694	-0.346850	-0.506213	-0.351563	-0.082031	-0.082031	838	16_30_44_8599720
0.052734	-0.213867	0.691406	-0.768694	-0.346850	-0.496839	-0.351563	-0.093750	-0.105469	839	16_30_44_8761010
0.061523	-0.228516	0.691406	-0.768694	-0.337475	-0.506213	-0.363281	-0.105469	-0.082031	840	16_30_44_8922300
0.046875	-0.228516	0.688477	-0.768694	-0.337475	-0.506213	-0.363281	-0.105469	-0.070313	841	16_30_44_9083590
0.058594	-0.219727	0.688477	-0.768694	-0.337475	-0.506213	-0.281250	-0.023438	-0.082031	842	16_30_44_9244880
0.064453	-0.216797	0.694336	-0.768694	-0.337475	-0.506213	-0.375000	-0.070313	-0.082031	843	16_30_44_9406170
0.055664	-0.222656	0.688477	-0.768694	-0.337475	-0.506213	-0.363281	-0.117188	-0.093750	844	16_30_44_9567460
0.064453	-0.228516	0.694336	-0.778068	-0.337475	-0.496839	-0.175781	-0.082031	0.035156	845	16_30_44_9728750
0.064453	-0.222656	0.703125	-0.768694	-0.337475	-0.515588	-0.187500	0.011719	0.070313	846	16_30_44_9890040
0.058594	-0.213867	0.703125	-0.768694	-0.346850	-0.506213	-0.351563	-0.058594	-0.070313	847	16_30_45_0051330
0.058594	-0.225586	0.697266	-0.778068	-0.346850	-0.496839	-0.351563	-0.070313	-0.082031	848	16_30_45_0212620
0.064453	-0.222656	0.697266	-0.768694	-0.337475	-0.506213	-0.351563	-0.070313	-0.023438	849	16_30_45_0373910
0.064453	-0.219727	0.691406	-0.768694	-0.337475	-0.496839	-0.351563	-0.070313	-0.070313	850	16_30_45_0535200
0.055664	-0.208008	0.700195	-0.768694	-0.337475	-0.496839	-0.351563	-0.093750	-0.128906	851	16_30_45_0696490
0.064453	-0.219727	0.688477	-0.768694	-0.337475	-0.506213	-0.386719	-0.082031	-0.117188	852	16_30_45_0857780
0.061523	-0.222656	0.697266	-0.768694	-0.337475	-0.506213	-0.351563	-0.070313	-0.140625	853	16_30_45_1019070
0.067383	-0.219727	0.682617	-0.768694	-0.337475	-0.496839	-0.351563	-0.082031	-0.070313	854	16_30_45_1180360
0.061523	-0.222656	0.685547	-0.768694	-0.337475	-0.506213	-0.351563	-0.070313	-0.046875	855	16_30_45_1341650
0.061523	-0.228516	0.688477	-0.768694	-0.337475	-0.506213	-0.351563	-0.093750	-0.117188	856	16_30_45_1502940
0.061523	-0.216797	0.691406	-0.768694	-0.337475	-0.506213	-0.351563	-0.117188	-0.082031	857	16_30_45_1664230
0.052734	-0.210938	0.691406	-0.768694	-0.337475	-0.496839	-0.351563	-0.117188	-0.046875	858	16_30_45_1825520
0.058594	-0.225586	0.700195	-0.768694	-0.337475	-0.506213	-0.351563	-0.105469	-0.035156	859	16_30_45_1986810
0.049805	-0.210938	0.697266	-0.768694	-0.337475	-0.496839	-0.351563	-0.093750	-0.082031	860	16_30_45_2148100
0.061523	-0.228516	0.694336	-0.768694	-0.337475	-0.506213	-0.363281	-0.105469	-0.117188	861	16_30_45_2309390
0.058594	-0.222656	0.697266	-0.768694	-0.337475	-0.506213	-0.351563	-0.117188	-0.082031	862	16_30_45_2470680
0.055664	-0.216797	0.694336	-0.768694	-0.346850	-0.506213	-0.351563	-0.140625	-0.093750	863	16_30_45_2631970
0.064453	-0.210938	0.697266	-0.768694	-0.346850	-0.506213	-0.351563	-0.128906	-0.093750	864	16_30_45_2793260
0.061523	-0.219727	0.700195	-0.768694	-0.346850	-0.506213	-0.199219	0.023438	-0.046875	865	16_30_45_2954550
0.067383	-0.225586	0.694336	-0.768694	-0.337475	-0.506213	-0.351563	-0.105469	-0.070313	866	16_30_45_3115840
0.064453	-0.225586	0.694336	-0.768694	-0.337475	-0.506213	-0.351563	-0.070313	-0.058594	867	16_30_45_3277130
0.064453	-0.222656	0.694336	-0.768694	-0.346850	-0.506213	-0.351563	-0.070313	-0.035156	868	16_30_45_3438420
0.061523	-0.216797	0.691406	-0.768694	-0.337475	-0.506213	-0.281250	0.023438	0.210938	869	16_30_45_3599710
0.052734	-0.225586	0.688477	-0.768694	-0.337475	-0.496839	-0.375000	-0.058594	-0.070313	870	16_30_45_3761000
0.061523	-0.228516	0.700195	-0.768694	-0.337475	-0.496839	-0.351563	-0.058594	-0.070313	871	16_30_45_3922290
0.064453	-0.228516	0.697266	-0.768694	-0.337475	-0.506213	-0.351563	-0.082031	-0.046875	872	16_30_45_4083580
0.067383	-0.216797	0.691406	-0.768694	-0.346850	-0.506213	-0.351563	-0.105469	-0.070313	873	16_30_45_4244870
0.061523	-0.222656	0.688477	-0.768694	-0.337475	-0.506213	-0.351563	-0.082031	-0.105469	874	16_30_45_4406160
0.070313	-0.210938	0.688477	-0.778068	-0.337475	-0.506213	-0.339844	-0.105469	-0.105469	875	16_30_45_4567450
0.064453	-0.219727	0.691406	-0.768694	-0.346850	-0.506213	-0.363281	-0.070313	-0.117188	876	16_30_45_4728740
0.067383	-0.219727	0.691406	-0.778068	-0.337475	-0.506213	-0.152344	0.000000	-0.011719	877	16_30_45_4890030
0.061523	-0.213867	0.694336	-0.768694	-0.337475	-0.506213	-0.351563	-0.070313	-0.128906	878	16_30_45_5051320
0.058594	-0.231445	0.694336	-0.768694	-0.337475	-0.506213	-0.351563	-0.082031	-0.164063	879	16_30_45_5212610
0.064453	-0.228516	0.694336	-0.768694	-0.337475	-0.496839	-0.339844	-0.070313	-0.117188	880	16_30_45_5373900
0.049805	-0.234375	0.688477	-0.768694	-0.337475	-0.506213	-0.363281	-0.082031	-0.046875	881	16_30_45_5535190
0.055664	-0.210938	0.703125	-0.778068	-0.337475	-0.496839	-0.363281	-0.070313	-0.070313	882	16_30_45_5696480
0.052734	-0.216797	0.691406	-0.768694	-0.337475	-0.496839	-0.339844	-0.117188	-0.082031	883	16_30_45_5857770
0.049805	-0.228516	0.694336	-0.768694	-0.337475	-0.506213	-0.363281	-0.117188	-0.058594	884	16_30_45_6019060
0.061523	-0.219727	0.691406	-0.768694	-0.346850	-0.496839	-0.351563	-0.070313	-0.093750	885	16_30_45_6180350
0.061523	-0.222656	0.679688	-0.768694	-0.337475	-0.506213	-0.351563	-0.093750	-0.070313	886	16_30_45_6341640
0.052734	-0.228516	0.694336	-0.768694	-0.337475	-0.506213	-0.386719	-0.082031	-0.093750	887	16_30_45_6502930
0.055664	-0.216797	0.694336	-0.778068	-0.337475	-0.506213	-0.328125	-0.070313	-0.140625	888	16_30_45_6664220
0.064453	-0.222656	0.700195	-0.768694	-0.337475	-0.496839	-0.363281	-0.117188	-0.152344	889	16_30_45_6825510
0.058594	-0.234375	0.691406	-0.768694	-0.346850	-0.506213	-0.363281	-0.070313	-0.140625	890	16_30_45_6986800
0.055664	-0.216797	0.691406	-0.768694	-0.337475	-0.506213	-0.351563	-0.105469	-0.082031	891	16_30_45_7148090
0.049805	-0.231445	0.694336	-0.768694	-0.346850	-0.496839	-0.351563	-0.117188	-0.058594	892	16_30_45_7309380
0.055664	-0.228516	0.694336	-0.768694	-0.346850	-0.506213	-0.351563	-0.152344	-0.046875	893	16_30_45_7470670
0.055664	-0.216797	0.694336	-0.768694	-0.337475	-0.506213	-0.351563	-0.152344	-0.035156	894	16_30_45_7631960
0.061523	-0.222656	0.694336	-0.768694	-0.337475	-0.506213	-0.351563	-0.082031	-0.117188	895	16_30_45_7793250
0.058594	-0.216797	0.706055	-0.768694	-0.337475	-0.496839	-0.351563	-0.093750	-0.105469	896	16_30_45_7954540
0.058594	-0.228516	0.682617	-0.768694	-0.346850	-0.496839	-0.351563	-0.128906	-0.082031	897	16_30_45_8115830
0.058594	-0.210938	0.694336	-0.768694	-0.337475	-0.506213	-0.351563	-0.140625	-0.105469	898	16_30_45_8277120
0.049805	-0.213867	0.691406	-0.778068	-0.337475	-0.506213	-0.152344	0.000000	0.093750	899	16_30_45_8438410
0.067383	-0.213867	0.685547	-0.778068	-0.337475	-0.506213	-0.339844	-0.046875	-0.023438	900	16_30_45_8599700
0.058594	-0.219727	0.685547	-0.768694	-0.337475	-0.506213	-0.351563	-0.070313	-0.058594	901	16_30_45_8760990
0.061523	-0.231445	0.694336	-0.768694	-0.337475	-0.496839	-0.351563	-0.046875	-0.058594	902	16_30_45_8922280
0.052734	-0.216797	0.694336	-0.768694	-0.337475	-0.506213	-0.351563	-0.070313	-0.082031	903	16_30_45_9083570
0.064453	-0.225586	0.694336	-0.768694	-0.337475	-0.506213	-0.351563	-0.093750	-0.082031	904	16_30_45_9244860
0.064453	-0.216797	0.691406	-0.768694	-0.337475	-0.506213	-0.351563	-0.093750	-0.082031	905	16_30_45_9406150
0.055664	-0.222656	0.694336	-0.768694	-0.337475	-0.506213	-0.351563	-0.105469	-0.082031	906	16_30_45_9567440
0.061523	-0.222656	0.688477	-0.768694	-0.337475	-0.506213	-0.351563	-0.070313	-0.128906	907	16_30_45_9728730
0.046875	-0.219727	0.682617	-0.768694	-0.337475	-0.506213	-0.351563	-0.058594	-0.117188	908	16_30_45_9890020
0.055664	-0.216797	0.700195	-0.768694	-0.337475	-0.506213	-0.351563	-0.070313	-0.035156	909	16_30_46_0051310
0.058594	-0.219727	0.700195	-0.768694	-0.337475	-0.506213	-0.351563	-0.105469	-0.035156	910	16_30_46_0212600
0.061523	-0.228516	0.688477	-0.768694	-0.337475	-0.496839	-0.351563	-0.093750	-0.070313	911	16_30_46_0373890
0.058594	-0.219727	0.711914	-0.768694	-0.337475	-0.506213	-0.363281	-0.128906	-0.105469	912	16_30_46_0535180
0.061523	-0.213867	0.700195	-0.768694	-0.337475	-0.506213	-0.351563	-0.105469	0.011719	913	16_30_46_0696470
0.055664	-0.222656	0.688477	-0.768694	-0.337475	-0.496839	-0.375000	-0.117188	-0.082031	914	16_30_46_0857760
0.064453	-0.216797	0.691406	-0.768694	-0.337475	-0.506213	-0.351563	-0.082031	-0.082031	915	16_30_46_1019050
0.061523	-0.213867	0.700195	-0.768694	-0.337475	-0.506213	-0.339844	-0.105469	-0.093750	916	16_30_46_1180340
0.067383	-0.210938	0.688477	-0.768694	-0.346850	-0.506213	-0.363281	-0.093750	-0.117188	917	16_30_46_1341630
0.055664	-0.216797	0.700195	-0.768694	-0.337475	-0.496839	-0.351563	-0.093750	-0.093750	918	16_30_46_1502920
0.061523	-0.234375	0.691406	-0.768694	-0.337475	-0.506213	-0.351563	-0.117188	-0.058594	919	16_30_46_1664210
0.061523	-0.225586	0.694336	-0.768694	-0.337475	-0.506213	-0.351563	-0.164063	-0.058594	920	16_30_46_1825500
0.058594	-0.222656	0.691406	-0.768694	-0.337475	-0.506213	-0.351563	-0.128906	-0.082031	921	16_30_46_1986790
0.058594	-0.228516	0.688477	-0.768694	-0.346850	-0.506213	-0.363281	-0.093750	-0.035156	922	16_30_46_2148080
0.064453	-0.213867	0.691406	-0.768694	-0.337475	-0.506213	-0.351563	-0.082031	-0.046875	923	16_30_46_2309370
0.064453	-0.219727	0.688477	-0.768694	-0.337475	-0.506213	-0.351563	-0.105469	-0.058594	924	16_30_46_2470660
0.061523	-0.219727	0.691406	-0.768694	-0.346850	-0.496839	-0.398438	-0.082031	-0.058594	925	16_30_46_2631950
0.052734	-0.225586	0.685547	-0.768694	-0.337475	-0.506213	-0.351563	-0.117188	-0.128906	926	16_30_46_2793240
0.064453	-0.208008	0.691406	-0.768694	-0.337475	-0.506213	-0.351563	-0.117188	-0.140625	927	16_30_46_2954530
0.058594	-0.222656	0.688477	-0.768694	-0.337475	-0.506213	-0.351563	-0.058594	-0.117188	928	16_30_46_3115820
0.064453	-0.225586	0.688477	-0.778068	-0.346850	-0.496839	-0.128906	0.093750	-0.035156	929	16_30_46_3277110
0.052734	-0.216797	0.700195	-0.768694	-0.346850	-0.496839	-0.351563	-0.082031	-0.105469	930	16_30_46_3438400
0.064453	-0.219727	0.688477	-0.768694	-0.337475	-0.506213	-0.351563	-0.105469	-0.070313	931	16_30_46_3599690
0.055664	-0.225586	0.691406	-0.768694	-0.337475	-0.506213	-0.351563	-0.070313	-0.105469	932	16_30_46_3760980
0.049805	-0.225586	0.694336	-0.768694	-0.337475	-0.496839	-0.351563	-0.070313	-0.128906	933	16_30_46_3922270
0.058594	-0.222656	0.691406	-0.778068	-0.337475	-0.506213	-0.328125	-0.046875	-0.093750	934	16_30_46_4083560
0.064453	-0.222656	0.694336	-0.768694	-0.337475	-0.506213	-0.351563	-0.082031	-0.070313	935	16_30_46_4244850
0.061523	-0.216797	0.688477	-0.768694	-0.337475	-0.506213	-0.375000	-0.093750	-0.082031	936	16_30_46_4406140
0.052734	-0.222656	0.691406	-0.768694	-0.337475	-0.506213	-0.351563	-0.093750	-0.093750	937	16_30_46_4567430
0.049805	-0.228516	0.700195	-0.768694	-0.337475	-0.506213	-0.351563	-0.093750	-0.070313	938	16_30_46_4728720
0.052734	-0.205078	0.691406	-0.768694	-0.337475	-0.506213	-0.363281	-0.140625	-0.070313	939	16_30_46_4890010
0.058594	-0.216797	0.694336	-0.778068	-0.337475	-0.496839	-0.246094	-0.117188	-0.011719	940	16_30_46_5051300
0.052734	-0.216797	0.688477	-0.768694	-0.337475	-0.496839	-0.351563	-0.117188	-0.093750	941	16_30_46_5212590
0.061523	-0.219727	0.697266	-0.768694	-0.337475	-0.496839	-0.351563	-0.058594	-0.105469	942	16_30_46_5373880
0.064453	-0.216797	0.685547	-0.778068	-0.337475	-0.496839	-0.351563	-0.023438	0.070313	943	16_30_46_5535170
0.064453	-0.225586	0.700195	-0.778068	-0.337475	-0.506213	-0.292969	-0.093750	0.199219	944	16_30_46_5696460
0.061523	-0.222656	0.688477	-0.768694	-0.337475	-0.506213	-0.351563	-0.070313	-0.070313	945	16_30_46_5857750
0.058594	-0.216797	0.691406	-0.768694	-0.337475	-0.506213	-0.351563	-0.117188	-0.164063	946	16_30_46_6019040
0.064453	-0.222656	0.700195	-0.778068	-0.337475	-0.496839	-0.269531	-0.082031	-0.070313	947	16_30_46_6180330
0.064453	-0.231445	0.694336	-0.768694	-0.337475	-0.506213	-0.351563	-0.093750	-0.058594	948	16_30_46_6341620
0.061523	-0.234375	0.691406	-0.768694	-0.346850	-0.506213	-0.351563	-0.128906	-0.082031	949	16_30_46_6502910
0.061523	-0.216797	0.691406	-0.768694	-0.337475	-0.506213	-0.339844	-0.070313	-0.105469	950	16_30_46_6664200
0.058594	-0.219727	0.700195	-0.768694	-0.337475	-0.506213	-0.375000	-0.093750	-0.105469	951	16_30_46_6825490
0.052734	-0.222656	0.694336	-0.768694	-0.337475	-0.506213	-0.351563	-0.117188	-0.093750	952	16_30_46_6986780
0.055664	-0.208008	0.694336	-0.768694	-0.337475	-0.506213	-0.363281	-0.164063	-0.093750	953	16_30_46_7148070
0.061523	-0.213867	0.697266	-0.768694	-0.337475	-0.506213	-0.351563	-0.140625	-0.070313	954	16_30_46_7309360
0.055664	-0.210938	0.697266	-0.768694	-0.337475	-0.506213	-0.351563	-0.082031	-0.082031	955	16_30_46_7470650
0.052734	-0.225586	0.700195	-0.768694	-0.346850	-0.506213	-0.316406	-0.117188	-0.093750	956	16_30_46_7631940
0.067383	-0.213867	0.688477	-0.778068	-0.346850	-0.506213	-0.351563	-0.070313	-0.093750	957	16_30_46_7793230
0.064453	-0.219727	0.688477	-0.768694	-0.337475	-0.506213	-0.351563	-0.070313	-0.082031	958	16_30_46_7954520
0.055664	-0.228516	0.694336	-0.768694	-0.337475	-0.506213	-0.351563	-0.070313	-0.082031	959	16_30_46_8115810
0.058594	-0.216797	0.694336	-0.768694	-0.337475	-0.506213	-0.351563	-0.093750	-0.082031	960	16_30_46_8277100
0.061523	-0.222656	0.700195	-0.768694	-0.337475	-0.506213	-0.363281	-0.082031	-0.117188	961	16_30_46_8438390
0.061523	-0.228516	0.694336	-0.778068	-0.337475	-0.506213	-0.328125	-0.070313	-0.082031	962	16_30_46_8599680
0.064453	-0.216797	0.697266	-0.778068	-0.337475	-0.506213	-0.304688	-0.082031	0.222656	963	16_30_46_8760970
0.058594	-0.222656	0.688477	-0.768694	-0.337475	-0.506213	-0.351563	-0.140625	-0.117188	964	16_30_46_8922260
0.058594	-0.216797	0.688477	-0.778068	-0.337475	-0.506213	-0.328125	-0.093750	-0.093750	965	16_30_46_9083550
0.058594	-0.243164	0.682617	-0.768694	-0.337475	-0.496839	-0.375000	-0.117188	-0.117188	966	16_30_46_9244840
0.043945	-0.210938	0.694336	-0.778068	-0.337475	-0.506213	-0.363281	-0.117188	-0.105469	967	16_30_46_9406130
0.064453	-0.210938	0.694336	-0.768694	-0.337475	-0.496839	-0.351563	-0.070313	-0.070313	968	16_30_46_9567420
0.064453	-0.225586	0.694336	-0.768694	-0.337475	-0.506213	-0.351563	-0.117188	-0.082031	969	16_30_46_9728710
0.061523	-0.222656	0.700195	-0.768694	-0.337475	-0.506213	-0.351563	-0.117188	-0.093750	970	16_30_46_9890000
0.055664	-0.219727	0.697266	-0.768694	-0.337475	-0.506213	-0.339844	-0.082031	-0.058594	971	16_30_47_0051290
0.067383	-0.225586	0.688477	-0.768694	-0.337475	-0.506213	-0.351563	-0.058594	-0.070313	972	16_30_47_0212580
0.061523	-0.222656	0.694336	-0.768694	-0.337475	-0.515588	-0.351563	-0.070313	-0.082031	973	16_30_47_0373870
0.058594	-0.216797	0.691406	-0.768694	-0.337475	-0.506213	-0.351563	-0.082031	-0.105469	974	16_30_47_0535160
0.061523	-0.216797	0.706055	-0.778068	-0.346850	-0.506213	-0.316406	-0.046875	-0.082031	975	16_30_47_0696450
0.064453	-0.219727	0.697266	-0.768694	-0.337475	-0.506213	-0.386719	-0.093750	-0.070313	976	16_30_47_0857740
0.064453	-0.213867	0.697266	-0.768694	-0.337475	-0.506213	-0.351563	-0.117188	-0.058594	977	16_30_47_1019030
0.067383	-0.219727	0.688477	-0.768694	-0.337475	-0.506213	-0.351563	-0.058594	-0.082031	978	16_30_47_1180320
0.061523	-0.210938	0.697266	-0.768694	-0.337475	-0.496839	-0.222656	-0.035156	-0.011719	979	16_30_47_1341610
0.058594	-0.222656	0.691406	-0.768694	-0.337475	-0.506213	-0.351563	-0.082031	-0.070313	980	16_30_47_1502900
0.058594	-0.222656	0.697266	-0.768694	-0.337475	-0.506213	-0.351563	-0.082031	-0.105469	981	16_30_47_1664190
0.055664	-0.219727	0.685547	-0.768694	-0.337475	-0.506213	-0.187500	0.011719	0.035156	982	16_30_47_1825480
0.067383	-0.228516	0.700195	-0.778068	-0.337475	-0.506213	-0.351563	-0.105469	-0.105469	983	16_30_47_1986770
0.052734	-0.216797	0.691406	-0.768694	-0.337475	-0.506213	-0.375000	-0.105469	-0.117188	984	16_30_47_2148060
0.052734	-0.216797	0.688477	-0.768694	-0.337475	-0.506213	-0.351563	-0.058594	-0.117188	985	16_30_47_2309350
0.067383	-0.216797	0.697266	-0.768694	-0.337475	-0.506213	-0.351563	-0.070313	-0.117188	986	16_30_47_2470640
0.041016	-0.231445	0.691406	-0.768694	-0.346850	-0.506213	-0.351563	-0.093750	-0.117188	987	16_30_47_2631930
0.064453	-0.225586	0.691406	-0.768694	-0.337475	-0.506213	-0.351563	-0.117188	-0.117188	988	16_30_47_2793220
0.052734	-0.222656	0.694336	-0.768694	-0.337475	-0.506213	-0.351563	-0.140625	-0.105469	989	16_30_47_2954510
0.064453	-0.219727	0.697266	-0.768694	-0.337475	-0.506213	-0.351563	-0.105469	-0.093750	990	16_30_47_3115800
0.061523	-0.219727	0.691406	-0.768694	-0.337475	-0.506213	-0.351563	-0.093750	-0.105469	991	16_30_47_3277090
0.055664	-0.222656	0.694336	-0.768694	-0.346850	-0.506213	-0.351563	-0.117188	-0.082031	992	16_30_47_3438380
0.052734	-0.208008	0.703125	-0.768694	-0.337475	-0.506213	-0.351563	-0.117188	-0.105469	993	16_30_47_3599670
0.052734	-0.213867	0.691406	-0.768694	-0.337475	-0.506213	-0.363281	-0.093750	-0.070313	994	16_30_47_3760960
0.067383	-0.225586	0.694336	-0.768694	-0.337475	-0.506213	-0.351563	-0.140625	-0.093750	995	16_30_47_3922250
0.055664	-0.225586	0.691406	-0.768694	-0.337475	-0.496839	-0.351563	-0.105469	-0.140625	996	16_30_47_4083540
0.052734	-0.219727	0.694336	-0.768694	-0.337475	-0.506213	-0.375000	-0.105469	-0.105469	997	16_30_47_4244830
0.055664	-0.216797	0.694336	-0.768694	-0.337475	-0.506213	-0.351563	-0.117188	-0.105469	998	16_30_47_4406120
0.064453	-0.216797	0.688477	-0.778068	-0.337475	-0.506213	-0.339844	-0.058594	-0.128906	999	16_30_47_4567410
0.046875	-0.216797	0.691406	-0.768694	-0.337475	-0.506213	-0.351563	-0.082031	-0.093750	1000	16_30_47_4728700
0.058594	-0.234375	0.691406	-0.768694	-0.337475	-0.496839	-0.351563	-0.093750	-0.058594	1001	16_30_47_4889990
0.067383	-0.228516	0.691406	-0.768694	-0.337475	-0.506213	-0.351563	-0.070313	-0.082031	1002	16_30_47_5051280
0.052734	-0.213867	0.691406	-0.778068	-0.337475	-0.506213	-0.175781	-0.046875	0.199219	1003	16_30_47_5212570
0.058594	-0.213867	0.700195	-0.768694	-0.337475	-0.506213	-0.351563	-0.105469	-0.035156	1004	16_30_47_5373860
0.061523	-0.222656	0.694336	-0.768694	-0.337475	-0.506213	-0.351563	-0.093750	-0.105469	1005	16_30_47_5535150
0.055664	-0.219727	0.700195	-0.768694	-0.337475	-0.506213	-0.351563	-0.093750	-0.140625	1006	16_30_47_5696440
0.046875	-0.216797	0.682617	-0.768694	-0.337475	-0.506213	-0.351563	-0.117188	-0.117188	1007	16_30_47_5857730
0.061523	-0.219727	0.688477	-0.778068	-0.337475	-0.506213	-0.269531	-0.093750	-0.035156	1008	16_30_47_6019020
0.058594	-0.222656	0.691406	-0.778068	-0.337475	-0.506213	-0.257813	-0.105469	-0.035156	1009	16_30_47_6180310
0.049805	-0.228516	0.694336	-0.768694	-0.337475	-0.506213	-0.351563	-0.128906	-0.058594	1010	16_30_47_6341600
0.061523	-0.231445	0.688477	-0.768694	-0.337475	-0.506213	-0.351563	-0.093750	-0.046875	1011	16_30_47_6502890
0.064453	-0.216797	0.688477	-0.768694	-0.337475	-0.496839	-0.339844	-0.105469	-0.070313	1012	16_30_47_6664180
0.061523	-0.222656	0.697266	-0.778068	-0.346850	-0.506213	-0.339844	-0.117188	-0.046875	1013	16_30_47_6825470
0.064453	-0.216797	0.691406	-0.768694	-0.337475	-0.506213	-0.339844	-0.117188	-0.058594	1014	16_30_47_6986760
0.052734	-0.228516	0.694336	-0.768694	-0.346850	-0.506213	-0.375000	-0.023438	0.210938	1015	16_30_47_7148050
0.055664	-0.216797	0.691406	-0.768694	-0.346850	-0.506213	-0.398438	-0.105469	-0.082031	1016	16_30_47_7309340
0.052734	-0.228516	0.703125	-0.768694	-0.337475	-0.506213	-0.351563	-0.105469	-0.117188	1017	16_30_47_7470630
0.058594	-0.225586	0.688477	-0.768694	-0.337475	-0.506213	-0.351563	-0.128906	-0.058594	1018	16_30_47_7631920
0.055664	-0.234375	0.691406	-0.768694	-0.346850	-0.496839	-0.363281	-0.164063	-0.058594	1019	16_30_47_7793210
0.067383	-0.216797	0.688477	-0.768694	-0.337475	-0.496839	-0.351563	-0.128906	-0.105469	1020	16_30_47_7954500
0.058594	-0.222656	0.691406	-0.768694	-0.337475	-0.506213	-0.351563	-0.105469	-0.082031	1021	16_30_47_8115790
0.055664	-0.216797	0.694336	-0.768694	-0.337475	-0.506213	-0.351563	-0.128906	-0.082031	1022	16_30_47_8277080
0.055664	-0.219727	0.694336	-0.768694	-0.337475	-0.506213	-0.339844	-0.093750	-0.070313	1023	16_30_47_8438370
0.058594	-0.219727	0.691406	-0.768694	-0.346850	-0.506213	-0.351563	-0.117188	-0.082031	1024	16_30_47_8599660
0.049805	-0.216797	0.694336	-0.768694	-0.337475	-0.506213	-0.351563	-0.140625	-0.105469	1025	16_30_47_8760950
0.055664	-0.225586	0.691406	-0.768694	-0.337475	-0.506213	-0.351563	-0.117188	-0.117188	1026	16_30_47_8922240
0.064453	-0.228516	0.691406	-0.768694	-0.337475	-0.506213	-0.386719	-0.093750	-0.105469	1027	16_30_47_9083530
0.052734	-0.219727	0.697266	-0.768694	-0.337475	-0.506213	-0.351563	-0.082031	-0.105469	1028	16_30_47_9244820
0.064453	-0.225586	0.700195	-0.768694	-0.337475	-0.506213	-0.351563	-0.105469	-0.093750	1029	16_30_47_9406110
0.058594	-0.216797	0.691406	-0.768694	-0.346850	-0.496839	-0.351563	-0.105469	-0.023438	1030	16_30_47_9567400
0.043945	-0.219727	0.682617	-0.768694	-0.337475	-0.506213	-0.363281	-0.070313	-0.023438	1031	16_30_47_9728690
0.049805	-0.219727	0.688477	-0.768694	-0.337475	-0.506213	-0.351563	-0.105469	-0.070313	1032	16_30_47_9889980
0.055664	-0.225586	0.691406	-0.768694	-0.346850	-0.506213	-0.363281	-0.117188	-0.058594	1033	16_30_48_0051270
0.061523	-0.222656	0.688477	-0.759320	-0.356224	-0.506213	-0.363281	-0.082031	-0.058594	1034	16_30_48_0212560
0.055664	-0.216797	0.700195	-0.768694	-0.346850	-0.496839	-0.351563	-0.070313	-0.058594	1035	16_30_48_0373850
0.067383	-0.222656	0.694336	-0.768694	-0.346850	-0.506213	-0.351563	-0.058594	-0.058594	1036	16_30_48_0535140
0.058594	-0.213867	0.691406	-0.778068	-0.346850	-0.506213	-0.351563	-0.070313	0.093750	1037	16_30_48_0696430
0.064453	-0.213867	0.697266	-0.768694	-0.337475	-0.506213	-0.351563	-0.093750	-0.117188	1038	16_30_48_0857720
0.058594	-0.225586	0.691406	-0.768694	-0.337475	-0.506213	-0.398438	-0.117188	-0.105469	1039	16_30_48_1019010
0.067383	-0.210938	0.688477	-0.778068	-0.346850	-0.496839	-0.351563	-0.117188	-0.117188	1040	16_30_48_1180300
0.073242	-0.222656	0.691406	-0.768694	-0.346850	-0.506213	-0.363281	-0.082031	-0.152344	1041	16_30_48_1341590
0.067383	-0.222656	0.700195	-0.768694	-0.337475	-0.506213	-0.339844	-0.093750	-0.152344	1042	16_30_48_1502880
0.061523	-0.222656	0.694336	-0.768694	-0.337475	-0.506213	-0.351563	-0.140625	-0.070313	1043	16_30_48_1664170
0.067383	-0.222656	0.688477	-0.768694	-0.346850	-0.506213	-0.351563	-0.128906	-0.082031	1044	16_30_48_1825460
0.061523	-0.216797	0.691406	-0.778068	-0.346850	-0.506213	-0.351563	-0.105469	-0.093750	1045	16_30_48_1986750
0.058594	-0.219727	0.682617	-0.768694	-0.337475	-0.496839	-0.351563	-0.117188	-0.093750	1046	16_30_48_2148040
0.061523	-0.228516	0.685547	-0.768694	-0.346850	-0.506213	-0.351563	-0.093750	-0.093750	1047	16_30_48_2309330
0.061523	-0.222656	0.688477	-0.768694	-0.337475	-0.506213	-0.351563	-0.105469	-0.082031	1048	16_30_48_2470620
0.052734	-0.222656	0.688477	-0.768694	-0.337475	-0.506213	-0.351563	-0.117188	-0.105469	1049	16_30_48_2631910
0.052734	-0.205078	0.688477	-0.768694	-0.337475	-0.506213	-0.351563	-0.117188	-0.105469	1050	16_30_48_2793200
0.055664	-0.228516	0.688477	-0.768694	-0.337475	-0.506213	-0.351563	-0.070313	-0.070313	1051	16_30_48_2954490
0.052734	-0.222656	0.700195	-0.778068	-0.337475	-0.496839	-0.152344	0.023438	0.000000	1052	16_30_48_3115780
0.061523	-0.213867	0.691406	-0.768694	-0.346850	-0.506213	-0.351563	-0.187500	-0.070313	1053	16_30_48_3277070
0.058594	-0.213867	0.688477	-0.768694	-0.346850	-0.506213	-0.351563	-0.128906	-0.105469	1054	16_30_48_3438360
0.058594	-0.228516	0.694336	-0.768694	-0.337475	-0.506213	-0.351563	-0.117188	-0.105469	1055	16_30_48_3599650
0.067383	-0.210938	0.688477	-0.768694	-0.337475	-0.506213	-0.363281	-0.070313	-0.093750	1056	16_30_48_3760940
0.055664	-0.216797	0.700195	-0.778068	-0.337475	-0.506213	-0.351563	-0.082031	-0.093750	1057	16_30_48_3922230
0.058594	-0.216797	0.694336	-0.768694	-0.337475	-0.506213	-0.351563	-0.070313	-0.093750	1058	16_30_48_4083520
0.052734	-0.225586	0.691406	-0.778068	-0.346850	-0.506213	-0.292969	-0.058594	0.000000	1059	16_30_48_4244810
0.070313	-0.225586	0.691406	-0.768694	-0.337475	-0.506213	-0.363281	-0.070313	-0.093750	1060	16_30_48_4406100
0.052734	-0.225586	0.691406	-0.778068	-0.337475	-0.506213	-0.351563	-0.070313	-0.105469	1061	16_30_48_4567390
0.052734	-0.228516	0.697266	-0.768694	-0.337475	-0.506213	-0.351563	-0.117188	-0.105469	1062	16_30_48_4728680
0.067383	-0.219727	0.691406	-0.768694	-0.346850	-0.496839	-0.351563	-0.140625	-0.117188	1063	16_30_48_4889970
0.052734	-0.216797	0.700195	-0.768694	-0.318727	-0.506213	-0.363281	-0.093750	-0.093750	1064	16_30_48_5051260
0.064453	-0.210938	0.694336	-0.778068	-0.337475	-0.506213	-0.152344	0.058594	0.105469	1065	16_30_48_5212550
0.052734	-0.222656	0.697266	-0.768694	-0.337475	-0.506213	-0.351563	-0.093750	-0.093750	1066	16_30_48_5373840
0.061523	-0.216797	0.694336	-0.768694	-0.346850	-0.506213	-0.351563	-0.093750	-0.105469	1067	16_30_48_5535130
0.061523	-0.219727	0.691406	-0.768694	-0.346850	-0.506213	-0.363281	-0.128906	-0.023438	1068	16_30_48_5696420
0.064453	-0.213867	0.700195	-0.778068	-0.337475	-0.506213	-0.363281	-0.058594	0.011719	1069	16_30_48_5857710
0.055664	-0.216797	0.700195	-0.768694	-0.346850	-0.506213	-0.398438	-0.082031	-0.035156	1070	16_30_48_6019000
0.067383	-0.216797	0.697266	-0.768694	-0.346850	-0.506213	-0.351563	-0.140625	-0.070313	1071	16_30_48_6180290
0.064453	-0.222656	0.685547	-0.778068	-0.337475	-0.506213	-0.351563	-0.128906	-0.058594	1072	16_30_48_6341580
0.061523	-0.219727	0.682617	-0.768694	-0.337475	-0.506213	-0.363281	-0.117188	-0.082031	1073	16_30_48_6502870
0.058594	-0.219727	0.694336	-0.768694	-0.337475	-0.506213	-0.351563	-0.105469	-0.058594	1074	16_30_48_6664160
0.052734	-0.225586	0.688477	-0.768694	-0.346850	-0.506213	-0.328125	-0.058594	-0.046875	1075	16_30_48_6825450
0.061523	-0.216797	0.700195	-0.768694	-0.346850	-0.506213	-0.351563	-0.070313	-0.070313	1076	16_30_48_6986740
0.058594	-0.222656	0.694336	-0.768694	-0.346850	-0.506213	-0.304688	-0.046875	0.046875	1077	16_30_48_7148030
0.052734	-0.210938	0.694336	-0.768694	-0.346850	-0.506213	-0.363281	-0.152344	-0.046875	1078	16_30_48_7309320
0.049805	-0.231445	0.688477	-0.768694	-0.337475	-0.515588	-0.351563	-0.140625	-0.070313	1079	16_30_48_7470610
0.058594	-0.228516	0.691406	-0.778068	-0.346850	-0.506213	-0.363281	-0.140625	-0.070313	1080	16_30_48_7631900
0.052734	-0.213867	0.697266	-0.768694	-0.337475	-0.506213	-0.351563	-0.117188	-0.105469	1081	16_30_48_7793190
0.064453	-0.225586	0.694336	-0.778068	-0.337475	-0.506213	-0.246094	-0.058594	-0.046875	1082	16_30_48_7954480
0.052734	-0.228516	0.694336	-0.768694	-0.337475	-0.506213	-0.246094	-0.070313	-0.058594	1083	16_30_48_8115770
0.061523	-0.225586	0.694336	-0.768694	-0.337475	-0.506213	-0.351563	-0.082031	-0.128906	1084	16_30_48_8277060
0.058594	-0.216797	0.688477	-0.768694	-0.346850	-0.506213	-0.246094	-0.046875	-0.046875	1085	16_30_48_8438350
0.064453	-0.213867	0.688477	-0.768694	-0.346850	-0.506213	-0.351563	-0.093750	-0.093750	1086	16_30_48_8599640
0.052734	-0.216797	0.703125	-0.768694	-0.346850	-0.506213	-0.351563	-0.070313	-0.105469	1087	16_30_48_8760930
0.058594	-0.234375	0.688477	-0.768694	-0.346850	-0.506213	-0.351563	-0.105469	-0.070313	1088	16_30_48_8922220
0.061523	-0.210938	0.691406	-0.768694	-0.337475	-0.506213	-0.339844	-0.128906	-0.023438	1089	16_30_48_9083510
0.064453	-0.228516	0.691406	-0.768694	-0.337475	-0.506213	-0.351563	-0.070313	-0.093750	1090	16_30_48_9244800
0.064453	-0.216797	0.700195	-0.768694	-0.346850	-0.506213	-0.339844	-0.070313	-0.128906	1091	16_30_48_9406090
0.052734	-0.219727	0.703125	-0.768694	-0.337475	-0.506213	-0.351563	-0.105469	-0.128906	1092	16_30_48_9567380
0.061523	-0.208008	0.688477	-0.768694	-0.337475	-0.515588	-0.351563	-0.117188	-0.105469	1093	16_30_48_9728670
0.058594	-0.219727	0.694336	-0.768694	-0.337475	-0.506213	-0.351563	-0.117188	-0.070313	1094	16_30_48_9889960
0.055664	-0.219727	0.694336	-0.778068	-0.346850	-0.506213	-0.164063	0.035156	-0.011719	1095	16_30_49_0051250
0.067383	-0.228516	0.694336	-0.768694	-0.337475	-0.506213	-0.351563	-0.070313	-0.093750	1096	16_30_49_0212540
0.049805	-0.222656	0.703125	-0.768694	-0.337475	-0.506213	-0.351563	-0.093750	-0.105469	1097	16_30_49_0373830
0.052734	-0.216797	0.691406	-0.768694	-0.337475	-0.506213	-0.351563	-0.082031	-0.105469	1098	16_30_49_0535120
0.064453	-0.228516	0.691406	-0.768694	-0.337475	-0.506213	-0.351563	-0.105469	-0.058594	1099	16_30_49_0696410
0.064453	-0.222656	0.700195	-0.787443	-0.346850	-0.506213	-0.328125	-0.070313	0.023438	1100	16_30_49_0857700
