sensor_ID	000666015735
Accel_X	Accel_Y	Accel_Z	Roll	Pitch	Yaw	Mag_X	Mag_Y	Mag_Z	Count	SysTime
0.234375	-0.205078	0.764648	-0.787443	-0.656202	-0.384347	-0.222656	0.386719	0.363281	0	16_30_31_3438700
0.228516	-0.196289	0.764648	-0.796817	-0.656202	-0.374973	-0.175781	0.375000	0.433594	1	16_30_31_3599990
0.225586	-0.193359	0.761719	-0.778068	-0.656202	-0.365598	-0.175781	0.363281	0.457031	2	16_30_31_3761280
0.216797	-0.196289	0.761719	-0.796817	-0.656202	-0.365598	-0.199219	0.363281	0.480469	3	16_30_31_3922570
0.208008	-0.193359	0.752930	-0.796817	-0.656202	-0.365598	-0.199219	0.351563	0.492188	4	16_30_31_4083860
0.208008	-0.205078	0.755859	-0.796817	-0.656202	-0.365598	-0.199219	0.386719	0.421875	5	16_30_31_4245150
0.205078	-0.205078	0.750000	-0.806191	-0.656202	-0.356224	-0.164063	0.609375	0.539063	6	16_30_31_4406440
0.208008	-0.199219	0.755859	-0.806191	-0.665577	-0.356224	-0.222656	0.386719	0.550781	7	16_30_31_4567730
0.210938	-0.208008	0.767578	-0.806191	-0.665577	-0.356224	-0.210938	0.363281	0.363281	8	16_30_31_4729020
0.208008	-0.199219	0.758789	-0.806191	-0.665577	-0.356224	-0.187500	0.339844	0.398438	9	16_30_31_4890310
0.210938	-0.199219	0.764648	-0.806191	-0.665577	-0.356224	-0.152344	0.351563	0.421875	10	16_30_31_5051600
0.219727	-0.199219	0.761719	-0.806191	-0.656202	-0.356224	0.035156	0.539063	0.480469	11	16_30_31_5212890
0.202148	-0.193359	0.770508	-0.806191	-0.656202	-0.356224	-0.175781	0.375000	0.503906	12	16_30_31_5374180
0.208008	-0.216797	0.764648	-0.806191	-0.656202	-0.356224	-0.187500	0.375000	0.433594	13	16_30_31_5535470
0.202148	-0.208008	0.764648	-0.806191	-0.656202	-0.356224	-0.187500	0.375000	0.410156	14	16_30_31_5696760
0.181641	-0.208008	0.758789	-0.806191	-0.656202	-0.365598	-0.199219	0.398438	0.398438	15	16_30_31_5858050
0.181641	-0.205078	0.758789	-0.806191	-0.665577	-0.365598	-0.187500	0.398438	0.433594	16	16_30_31_6019340
0.187500	-0.216797	0.758789	-0.815566	-0.665577	-0.374973	-0.199219	0.386719	0.480469	17	16_30_31_6180630
0.181641	-0.222656	0.764648	-0.824940	-0.665577	-0.374973	-0.105469	0.421875	0.644531	18	16_30_31_6341920
0.196289	-0.216797	0.761719	-0.824940	-0.665577	-0.384347	-0.082031	0.468750	0.492188	19	16_30_31_6503210
0.190430	-0.208008	0.779297	-0.815566	-0.656202	-0.393721	-0.187500	0.375000	0.421875	20	16_30_31_6664500
0.193359	-0.205078	0.776367	-0.824940	-0.665577	-0.393721	-0.175781	0.351563	0.503906	21	16_30_31_6825790
0.208008	-0.190430	0.770508	-0.824940	-0.665577	-0.384347	-0.175781	0.386719	0.457031	22	16_30_31_6987080
0.202148	-0.199219	0.779297	-0.834314	-0.656202	-0.384347	0.117188	0.527344	0.539063	23	16_30_31_7148370
0.196289	-0.187500	0.755859	-0.824940	-0.656202	-0.384347	-0.187500	0.328125	0.503906	24	16_30_31_7309660
0.187500	-0.202148	0.764648	-0.815566	-0.665577	-0.384347	-0.199219	0.363281	0.480469	25	16_30_31_7470950
0.181641	-0.208008	0.761719	-0.815566	-0.665577	-0.374973	-0.187500	0.386719	0.457031	26	16_30_31_7632240
0.175781	-0.205078	0.764648	-0.824940	-0.674951	-0.384347	-0.175781	0.386719	0.468750	27	16_30_31_7793530
0.190430	-0.205078	0.761719	-0.824940	-0.684325	-0.384347	-0.199219	0.386719	0.457031	28	16_30_31_7954820
0.175781	-0.210938	0.767578	-0.824940	-0.684325	-0.384347	-0.199219	0.398438	0.492188	29	16_30_31_8116110
0.172852	-0.193359	0.752930	-0.824940	-0.674951	-0.384347	-0.199219	0.398438	0.445313	30	16_30_31_8277400
0.166992	-0.193359	0.770508	-0.834314	-0.674951	-0.393721	-0.175781	0.375000	0.433594	31	16_30_31_8438690
0.181641	-0.196289	0.770508	-0.834314	-0.674951	-0.393721	-0.187500	0.351563	0.421875	32	16_30_31_8599980
0.181641	-0.199219	0.758789	-0.824940	-0.684325	-0.393721	-0.199219	0.386719	0.468750	33	16_30_31_8761270
0.172852	-0.190430	0.758789	-0.824940	-0.684325	-0.403096	-0.187500	0.386719	0.527344	34	16_30_31_8922560
0.169922	-0.187500	0.773438	-0.815566	-0.684325	-0.403096	-0.187500	0.398438	0.503906	35	16_30_31_9083850
0.166992	-0.199219	0.770508	-0.824940	-0.684325	-0.403096	-0.187500	0.386719	0.503906	36	16_30_31_9245140
0.164063	-0.193359	0.764648	-0.815566	-0.684325	-0.403096	-0.187500	0.386719	0.433594	37	16_30_31_9406430
0.164063	-0.187500	0.761719	-0.815566	-0.693700	-0.403096	-0.175781	0.457031	0.550781	38	16_30_31_9567720
0.169922	-0.199219	0.761719	-0.824940	-0.693700	-0.412470	-0.199219	0.386719	0.468750	39	16_30_31_9729010
0.164063	-0.199219	0.770508	-0.815566	-0.693700	-0.412470	-0.187500	0.386719	0.433594	40	16_30_31_9890300
0.161133	-0.193359	0.758789	-0.815566	-0.693700	-0.421844	-0.187500	0.375000	0.421875	41	16_30_32_0051590
0.175781	-0.190430	0.758789	-0.824940	-0.693700	-0.421844	-0.164063	0.363281	0.457031	42	16_30_32_0212880
0.175781	-0.190430	0.761719	-0.824940	-0.703074	-0.431219	0.058594	0.585938	0.550781	43	16_30_32_0374170
0.172852	-0.178711	0.767578	-0.815566	-0.693700	-0.421844	-0.199219	0.375000	0.457031	44	16_30_32_0535460
0.184570	-0.184570	0.770508	-0.815566	-0.703074	-0.421844	-0.199219	0.351563	0.410156	45	16_30_32_0696750
0.190430	-0.199219	0.770508	-0.815566	-0.703074	-0.431219	-0.199219	0.339844	0.421875	46	16_30_32_0858040
0.193359	-0.190430	0.773438	-0.806191	-0.703074	-0.431219	-0.187500	0.351563	0.410156	47	16_30_32_1019330
0.193359	-0.184570	0.761719	-0.806191	-0.703074	-0.431219	-0.199219	0.375000	0.398438	48	16_30_32_1180620
0.205078	-0.193359	0.770508	-0.806191	-0.712448	-0.431219	-0.199219	0.363281	0.410156	49	16_30_32_1341910
0.199219	-0.196289	0.761719	-0.806191	-0.712448	-0.431219	-0.210938	0.375000	0.421875	50	16_30_32_1503200
0.208008	-0.196289	0.761719	-0.815566	-0.703074	-0.421844	-0.070313	0.445313	0.468750	51	16_30_32_1664490
0.216797	-0.193359	0.761719	-0.806191	-0.712448	-0.421844	-0.011719	0.515625	0.468750	52	16_30_32_1825780
0.213867	-0.196289	0.758789	-0.815566	-0.712448	-0.421844	-0.187500	0.375000	0.468750	53	16_30_32_1987070
0.225586	-0.190430	0.764648	-0.806191	-0.703074	-0.412470	-0.187500	0.339844	0.386719	54	16_30_32_2148360
0.225586	-0.193359	0.761719	-0.806191	-0.693700	-0.412470	-0.199219	0.351563	0.386719	55	16_30_32_2309650
0.225586	-0.190430	0.761719	-0.806191	-0.693700	-0.412470	-0.164063	0.386719	0.421875	56	16_30_32_2470940
0.228516	-0.193359	0.764648	-0.806191	-0.693700	-0.412470	-0.175781	0.386719	0.445313	57	16_30_32_2632230
0.210938	-0.193359	0.761719	-0.806191	-0.684325	-0.412470	-0.199219	0.375000	0.457031	58	16_30_32_2793520
0.210938	-0.199219	0.770508	-0.815566	-0.693700	-0.412470	-0.199219	0.363281	0.421875	59	16_30_32_2954810
0.216797	-0.193359	0.764648	-0.806191	-0.693700	-0.403096	-0.187500	0.375000	0.433594	60	16_30_32_3116100
0.213867	-0.202148	0.776367	-0.815566	-0.684325	-0.403096	-0.210938	0.363281	0.515625	61	16_30_32_3277390
0.210938	-0.190430	0.770508	-0.806191	-0.684325	-0.403096	-0.210938	0.386719	0.480469	62	16_30_32_3438680
0.210938	-0.196289	0.761719	-0.806191	-0.674951	-0.403096	-0.222656	0.386719	0.421875	63	16_30_32_3599970
0.208008	-0.193359	0.764648	-0.806191	-0.684325	-0.403096	-0.175781	0.375000	0.398438	64	16_30_32_3761260
0.210938	-0.184570	0.758789	-0.806191	-0.684325	-0.393721	-0.187500	0.339844	0.421875	65	16_30_32_3922550
0.210938	-0.190430	0.764648	-0.806191	-0.674951	-0.393721	-0.164063	0.351563	0.457031	66	16_30_32_4083840
0.199219	-0.187500	0.758789	-0.815566	-0.674951	-0.393721	-0.175781	0.351563	0.457031	67	16_30_32_4245130
0.202148	-0.184570	0.773438	-0.806191	-0.674951	-0.393721	-0.199219	0.351563	0.457031	68	16_30_32_4406420
0.205078	-0.199219	0.770508	-0.815566	-0.674951	-0.393721	-0.105469	0.492188	0.691406	69	16_30_32_4567710
0.205078	-0.193359	0.770508	-0.806191	-0.674951	-0.384347	-0.210938	0.328125	0.503906	70	16_30_32_4729000
0.181641	-0.196289	0.770508	-0.815566	-0.674951	-0.393721	-0.175781	0.386719	0.457031	71	16_30_32_4890290
0.187500	-0.181641	0.764648	-0.806191	-0.674951	-0.384347	-0.199219	0.386719	0.410156	72	16_30_32_5051580
0.181641	-0.190430	0.764648	-0.806191	-0.684325	-0.393721	-0.199219	0.398438	0.433594	73	16_30_32_5212870
0.187500	-0.190430	0.764648	-0.824940	-0.684325	-0.393721	-0.199219	0.386719	0.539063	74	16_30_32_5374160
0.172852	-0.187500	0.767578	-0.815566	-0.684325	-0.393721	-0.187500	0.375000	0.515625	75	16_30_32_5535450
0.190430	-0.184570	0.761719	-0.806191	-0.674951	-0.403096	-0.187500	0.351563	0.492188	76	16_30_32_5696740
0.178711	-0.193359	0.767578	-0.815566	-0.674951	-0.393721	0.128906	0.667969	0.632813	77	16_30_32_5858030
0.181641	-0.196289	0.770508	-0.815566	-0.684325	-0.403096	-0.070313	0.632813	0.691406	78	16_30_32_6019320
0.184570	-0.190430	0.776367	-0.806191	-0.693700	-0.403096	-0.210938	0.363281	0.539063	79	16_30_32_6180610
0.184570	-0.199219	0.773438	-0.806191	-0.693700	-0.403096	-0.199219	0.328125	0.480469	80	16_30_32_6341900
0.181641	-0.193359	0.764648	-0.806191	-0.693700	-0.403096	-0.164063	0.351563	0.457031	81	16_30_32_6503190
0.193359	-0.181641	0.773438	-0.806191	-0.693700	-0.403096	-0.187500	0.386719	0.421875	82	16_30_32_6664480
0.181641	-0.196289	0.770508	-0.815566	-0.684325	-0.403096	-0.199219	0.386719	0.410156	83	16_30_32_6825770
0.193359	-0.199219	0.764648	-0.815566	-0.693700	-0.403096	-0.152344	0.375000	0.421875	84	16_30_32_6987060
0.196289	-0.193359	0.761719	-0.806191	-0.693700	-0.403096	-0.175781	0.339844	0.410156	85	16_30_32_7148350
0.193359	-0.196289	0.758789	-0.815566	-0.693700	-0.393721	-0.175781	0.398438	0.386719	86	16_30_32_7309640
0.184570	-0.193359	0.758789	-0.806191	-0.684325	-0.403096	0.058594	0.597656	0.445313	87	16_30_32_7470930
0.199219	-0.190430	0.770508	-0.815566	-0.693700	-0.393721	0.011719	0.621094	0.597656	88	16_30_32_7632220
0.190430	-0.187500	0.770508	-0.815566	-0.693700	-0.393721	-0.199219	0.386719	0.421875	89	16_30_32_7793510
0.193359	-0.193359	0.764648	-0.806191	-0.693700	-0.393721	-0.199219	0.410156	0.585938	90	16_30_32_7954800
0.190430	-0.196289	0.758789	-0.815566	-0.693700	-0.403096	-0.187500	0.339844	0.433594	91	16_30_32_8116090
0.178711	-0.190430	0.761719	-0.806191	-0.693700	-0.393721	-0.164063	0.351563	0.421875	92	16_30_32_8277380
0.193359	-0.202148	0.764648	-0.815566	-0.684325	-0.403096	-0.164063	0.375000	0.480469	93	16_30_32_8438670
0.190430	-0.190430	0.764648	-0.806191	-0.693700	-0.403096	-0.187500	0.375000	0.457031	94	16_30_32_8599960
0.187500	-0.190430	0.770508	-0.815566	-0.684325	-0.403096	-0.164063	0.351563	0.468750	95	16_30_32_8761250
0.187500	-0.193359	0.761719	-0.806191	-0.693700	-0.393721	-0.199219	0.339844	0.492188	96	16_30_32_8922540
0.199219	-0.193359	0.764648	-0.806191	-0.693700	-0.403096	-0.187500	0.386719	0.421875	97	16_30_32_9083830
0.193359	-0.193359	0.761719	-0.815566	-0.693700	-0.403096	-0.187500	0.386719	0.433594	98	16_30_32_9245120
0.202148	-0.190430	0.776367	-0.806191	-0.684325	-0.403096	-0.105469	0.679688	0.492188	99	16_30_32_9406410
0.187500	-0.190430	0.770508	-0.806191	-0.693700	-0.403096	-0.199219	0.480469	0.667969	100	16_30_32_9567700
0.190430	-0.193359	0.767578	-0.815566	-0.693700	-0.403096	-0.199219	0.386719	0.445313	101	16_30_32_9728990
0.187500	-0.193359	0.770508	-0.806191	-0.693700	-0.403096	-0.164063	0.375000	0.410156	102	16_30_32_9890280
0.193359	-0.190430	0.770508	-0.806191	-0.693700	-0.403096	-0.187500	0.398438	0.398438	103	16_30_33_0051570
0.196289	-0.199219	0.770508	-0.806191	-0.693700	-0.403096	-0.199219	0.363281	0.421875	104	16_30_33_0212860
0.190430	-0.193359	0.773438	-0.806191	-0.693700	-0.403096	-0.187500	0.351563	0.445313	105	16_30_33_0374150
0.187500	-0.193359	0.764648	-0.815566	-0.693700	-0.403096	0.082031	0.515625	0.562500	106	16_30_33_0535440
0.202148	-0.199219	0.761719	-0.815566	-0.693700	-0.393721	-0.210938	0.363281	0.457031	107	16_30_33_0696730
0.199219	-0.199219	0.770508	-0.815566	-0.693700	-0.403096	-0.199219	0.304688	0.480469	108	16_30_33_0858020
0.205078	-0.193359	0.758789	-0.815566	-0.693700	-0.403096	0.011719	0.597656	0.820313	109	16_30_33_1019310
0.208008	-0.193359	0.761719	-0.815566	-0.684325	-0.403096	-0.199219	0.386719	0.468750	110	16_30_33_1180600
0.199219	-0.196289	0.764648	-0.815566	-0.684325	-0.403096	-0.093750	0.445313	0.503906	111	16_30_33_1341890
0.199219	-0.193359	0.773438	-0.806191	-0.684325	-0.403096	-0.222656	0.351563	0.457031	112	16_30_33_1503180
0.199219	-0.199219	0.767578	-0.815566	-0.693700	-0.403096	-0.210938	0.375000	0.527344	113	16_30_33_1664470
0.187500	-0.193359	0.764648	-0.815566	-0.684325	-0.403096	-0.199219	0.351563	0.515625	114	16_30_33_1825760
0.199219	-0.193359	0.764648	-0.796817	-0.674951	-0.403096	-0.175781	0.363281	0.445313	115	16_30_33_1987050
0.199219	-0.193359	0.764648	-0.815566	-0.684325	-0.393721	-0.199219	0.386719	0.398438	116	16_30_33_2148340
0.193359	-0.190430	0.761719	-0.815566	-0.693700	-0.403096	-0.210938	0.386719	0.445313	117	16_30_33_2309630
0.184570	-0.193359	0.764648	-0.806191	-0.684325	-0.403096	-0.187500	0.375000	0.503906	118	16_30_33_2470920
0.181641	-0.181641	0.761719	-0.824940	-0.684325	-0.403096	-0.128906	0.410156	0.445313	119	16_30_33_2632210
0.187500	-0.184570	0.770508	-0.815566	-0.693700	-0.403096	-0.175781	0.398438	0.503906	120	16_30_33_2793500
0.190430	-0.184570	0.764648	-0.815566	-0.693700	-0.403096	-0.128906	0.421875	0.562500	121	16_30_33_2954790
0.181641	-0.184570	0.773438	-0.815566	-0.693700	-0.393721	-0.199219	0.351563	0.515625	122	16_30_33_3116080
0.193359	-0.181641	0.770508	-0.815566	-0.693700	-0.403096	-0.199219	0.339844	0.433594	123	16_30_33_3277370
0.187500	-0.190430	0.770508	-0.806191	-0.693700	-0.403096	-0.210938	0.363281	0.457031	124	16_30_33_3438660
0.199219	-0.193359	0.770508	-0.806191	-0.693700	-0.403096	-0.175781	0.386719	0.410156	125	16_30_33_3599950
0.196289	-0.193359	0.761719	-0.815566	-0.693700	-0.403096	-0.199219	0.386719	0.421875	126	16_30_33_3761240
0.199219	-0.202148	0.770508	-0.815566	-0.693700	-0.403096	-0.046875	0.468750	0.503906	127	16_30_33_3922530
0.208008	-0.196289	0.767578	-0.815566	-0.693700	-0.403096	-0.175781	0.386719	0.503906	128	16_30_33_4083820
0.199219	-0.196289	0.764648	-0.815566	-0.693700	-0.403096	-0.199219	0.351563	0.492188	129	16_30_33_4245110
0.199219	-0.196289	0.770508	-0.806191	-0.693700	-0.403096	-0.199219	0.363281	0.445313	130	16_30_33_4406400
0.205078	-0.190430	0.758789	-0.815566	-0.693700	-0.403096	-0.187500	0.386719	0.492188	131	16_30_33_4567690
0.213867	-0.184570	0.767578	-0.815566	-0.684325	-0.412470	-0.199219	0.375000	0.527344	132	16_30_33_4728980
0.202148	-0.187500	0.761719	-0.815566	-0.674951	-0.403096	-0.093750	0.445313	0.527344	133	16_30_33_4890270
0.208008	-0.184570	0.773438	-0.815566	-0.684325	-0.403096	-0.199219	0.375000	0.480469	134	16_30_33_5051560
0.199219	-0.178711	0.758789	-0.815566	-0.684325	-0.393721	-0.187500	0.386719	0.515625	135	16_30_33_5212850
0.199219	-0.187500	0.767578	-0.806191	-0.674951	-0.403096	-0.058594	0.468750	0.539063	136	16_30_33_5374140
0.199219	-0.190430	0.770508	-0.806191	-0.684325	-0.403096	-0.175781	0.375000	0.492188	137	16_30_33_5535430
0.190430	-0.187500	0.761719	-0.806191	-0.684325	-0.393721	-0.187500	0.363281	0.468750	138	16_30_33_5696720
0.187500	-0.193359	0.770508	-0.806191	-0.684325	-0.393721	-0.199219	0.375000	0.503906	139	16_30_33_5858010
0.187500	-0.196289	0.767578	-0.815566	-0.684325	-0.393721	-0.210938	0.363281	0.492188	140	16_30_33_6019300
0.193359	-0.190430	0.770508	-0.815566	-0.684325	-0.393721	-0.187500	0.351563	0.503906	141	16_30_33_6180590
0.187500	-0.193359	0.764648	-0.815566	-0.684325	-0.403096	-0.199219	0.457031	0.527344	142	16_30_33_6341880
0.184570	-0.199219	0.773438	-0.806191	-0.674951	-0.403096	-0.210938	0.363281	0.410156	143	16_30_33_6503170
0.187500	-0.190430	0.767578	-0.815566	-0.684325	-0.403096	-0.175781	0.351563	0.433594	144	16_30_33_6664460
0.187500	-0.187500	0.770508	-0.815566	-0.684325	-0.403096	-0.210938	0.328125	0.410156	145	16_30_33_6825750
0.181641	-0.178711	0.773438	-0.806191	-0.684325	-0.403096	-0.199219	0.375000	0.410156	146	16_30_33_6987040
0.184570	-0.193359	0.770508	-0.806191	-0.693700	-0.403096	-0.187500	0.363281	0.457031	147	16_30_33_7148330
0.187500	-0.196289	0.767578	-0.824940	-0.693700	-0.403096	-0.140625	0.410156	0.421875	148	16_30_33_7309620
0.193359	-0.196289	0.770508	-0.815566	-0.693700	-0.403096	-0.199219	0.386719	0.421875	149	16_30_33_7470910
0.196289	-0.190430	0.767578	-0.806191	-0.693700	-0.403096	0.046875	0.492188	0.562500	150	16_30_33_7632200
0.190430	-0.196289	0.764648	-0.815566	-0.693700	-0.403096	-0.199219	0.316406	0.480469	151	16_30_33_7793490
0.193359	-0.190430	0.764648	-0.815566	-0.693700	-0.403096	-0.175781	0.375000	0.421875	152	16_30_33_7954780
0.184570	-0.187500	0.773438	-0.815566	-0.693700	-0.403096	-0.164063	0.363281	0.433594	153	16_30_33_8116070
0.187500	-0.193359	0.773438	-0.806191	-0.693700	-0.403096	-0.187500	0.398438	0.503906	154	16_30_33_8277360
0.184570	-0.193359	0.764648	-0.806191	-0.693700	-0.403096	-0.187500	0.375000	0.480469	155	16_30_33_8438650
0.181641	-0.196289	0.767578	-0.815566	-0.693700	-0.403096	-0.199219	0.351563	0.468750	156	16_30_33_8599940
0.193359	-0.193359	0.770508	-0.815566	-0.693700	-0.393721	-0.175781	0.351563	0.527344	157	16_30_33_8761230
0.199219	-0.187500	0.761719	-0.815566	-0.693700	-0.403096	0.128906	0.562500	0.550781	158	16_30_33_8922520
0.193359	-0.190430	0.764648	-0.806191	-0.693700	-0.403096	-0.164063	0.304688	0.457031	159	16_30_33_9083810
0.196289	-0.190430	0.770508	-0.815566	-0.693700	-0.403096	0.140625	0.703125	0.597656	160	16_30_33_9245100
0.193359	-0.187500	0.761719	-0.806191	-0.693700	-0.403096	-0.187500	0.351563	0.492188	161	16_30_33_9406390
0.196289	-0.187500	0.758789	-0.806191	-0.693700	-0.403096	-0.152344	0.386719	0.503906	162	16_30_33_9567680
0.193359	-0.199219	0.773438	-0.806191	-0.693700	-0.403096	-0.187500	0.398438	0.527344	163	16_30_33_9728970
0.181641	-0.181641	0.770508	-0.806191	-0.693700	-0.403096	-0.199219	0.328125	0.445313	164	16_30_33_9890260
0.175781	-0.193359	0.764648	-0.806191	-0.703074	-0.403096	-0.187500	0.339844	0.433594	165	16_30_34_0051550
0.193359	-0.190430	0.770508	-0.806191	-0.693700	-0.403096	-0.187500	0.386719	0.457031	166	16_30_34_0212840
0.193359	-0.199219	0.770508	-0.815566	-0.693700	-0.403096	-0.187500	0.398438	0.433594	167	16_30_34_0374130
0.193359	-0.193359	0.764648	-0.806191	-0.693700	-0.403096	-0.187500	0.386719	0.375000	168	16_30_34_0535420
0.202148	-0.184570	0.758789	-0.806191	-0.693700	-0.403096	-0.222656	0.386719	0.468750	169	16_30_34_0696710
0.193359	-0.193359	0.758789	-0.815566	-0.693700	-0.403096	-0.199219	0.375000	0.457031	170	16_30_34_0858000
0.196289	-0.196289	0.770508	-0.806191	-0.693700	-0.403096	0.000000	0.656250	0.527344	171	16_30_34_1019290
0.202148	-0.187500	0.770508	-0.824940	-0.693700	-0.403096	-0.070313	0.714844	0.562500	172	16_30_34_1180580
0.213867	-0.196289	0.776367	-0.815566	-0.693700	-0.403096	-0.199219	0.386719	0.410156	173	16_30_34_1341870
0.199219	-0.184570	0.761719	-0.815566	-0.693700	-0.403096	-0.199219	0.386719	0.433594	174	16_30_34_1503160
0.199219	-0.184570	0.770508	-0.806191	-0.693700	-0.403096	-0.175781	0.398438	0.410156	175	16_30_34_1664450
0.208008	-0.181641	0.767578	-0.815566	-0.693700	-0.403096	-0.070313	0.468750	0.398438	176	16_30_34_1825740
0.199219	-0.193359	0.764648	-0.815566	-0.693700	-0.393721	-0.199219	0.339844	0.468750	177	16_30_34_1987030
0.202148	-0.193359	0.761719	-0.806191	-0.693700	-0.393721	-0.210938	0.375000	0.468750	178	16_30_34_2148320
0.187500	-0.205078	0.761719	-0.806191	-0.693700	-0.403096	-0.210938	0.363281	0.421875	179	16_30_34_2309610
0.196289	-0.199219	0.752930	-0.815566	-0.693700	-0.403096	-0.175781	0.386719	0.457031	180	16_30_34_2470900
0.193359	-0.190430	0.770508	-0.806191	-0.693700	-0.403096	0.046875	0.527344	0.503906	181	16_30_34_2632190
0.190430	-0.199219	0.773438	-0.806191	-0.693700	-0.403096	-0.199219	0.386719	0.421875	182	16_30_34_2793480
0.187500	-0.196289	0.767578	-0.815566	-0.693700	-0.403096	-0.187500	0.386719	0.445313	183	16_30_34_2954770
0.169922	-0.193359	0.764648	-0.815566	-0.693700	-0.403096	-0.164063	0.375000	0.515625	184	16_30_34_3116060
0.181641	-0.199219	0.764648	-0.824940	-0.684325	-0.403096	-0.105469	0.410156	0.433594	185	16_30_34_3277350
0.193359	-0.196289	0.770508	-0.806191	-0.674951	-0.403096	-0.187500	0.363281	0.398438	186	16_30_34_3438640
0.187500	-0.196289	0.776367	-0.806191	-0.684325	-0.393721	-0.199219	0.339844	0.421875	187	16_30_34_3599930
0.181641	-0.196289	0.761719	-0.815566	-0.693700	-0.403096	-0.164063	0.363281	0.410156	188	16_30_34_3761220
0.193359	-0.196289	0.761719	-0.815566	-0.693700	-0.403096	0.082031	0.480469	0.550781	189	16_30_34_3922510
0.190430	-0.190430	0.770508	-0.806191	-0.693700	-0.393721	-0.175781	0.351563	0.445313	190	16_30_34_4083800
0.193359	-0.187500	0.767578	-0.815566	-0.693700	-0.403096	-0.199219	0.363281	0.421875	191	16_30_34_4245090
0.187500	-0.193359	0.770508	-0.806191	-0.693700	-0.403096	-0.175781	0.363281	0.457031	192	16_30_34_4406380
0.190430	-0.193359	0.764648	-0.806191	-0.693700	-0.403096	-0.199219	0.386719	0.503906	193	16_30_34_4567670
0.199219	-0.187500	0.770508	-0.806191	-0.693700	-0.403096	-0.187500	0.375000	0.503906	194	16_30_34_4728960
0.184570	-0.190430	0.773438	-0.815566	-0.693700	-0.403096	-0.187500	0.375000	0.527344	195	16_30_34_4890250
0.193359	-0.196289	0.764648	-0.796817	-0.693700	-0.403096	-0.187500	0.375000	0.433594	196	16_30_34_5051540
0.190430	-0.193359	0.770508	-0.806191	-0.693700	-0.403096	-0.210938	0.363281	0.421875	197	16_30_34_5212830
0.193359	-0.184570	0.776367	-0.806191	-0.693700	-0.403096	-0.199219	0.398438	0.410156	198	16_30_34_5374120
0.196289	-0.196289	0.767578	-0.815566	-0.693700	-0.403096	-0.199219	0.386719	0.421875	199	16_30_34_5535410
0.193359	-0.184570	0.764648	-0.806191	-0.693700	-0.403096	-0.199219	0.386719	0.421875	200	16_30_34_5696700
0.184570	-0.187500	0.761719	-0.806191	-0.693700	-0.403096	-0.187500	0.386719	0.480469	201	16_30_34_5857990
0.187500	-0.181641	0.764648	-0.815566	-0.693700	-0.403096	-0.152344	0.421875	0.527344	202	16_30_34_6019280
0.178711	-0.187500	0.770508	-0.815566	-0.693700	-0.393721	-0.187500	0.363281	0.445313	203	16_30_34_6180570
0.187500	-0.187500	0.776367	-0.806191	-0.693700	-0.393721	-0.199219	0.351563	0.445313	204	16_30_34_6341860
0.187500	-0.190430	0.770508	-0.815566	-0.693700	-0.403096	-0.187500	0.375000	0.457031	205	16_30_34_6503150
0.193359	-0.205078	0.770508	-0.806191	-0.693700	-0.403096	-0.199219	0.386719	0.433594	206	16_30_34_6664440
0.172852	-0.190430	0.770508	-0.806191	-0.693700	-0.403096	-0.222656	0.386719	0.457031	207	16_30_34_6825730
0.193359	-0.193359	0.758789	-0.806191	-0.693700	-0.412470	-0.187500	0.351563	0.457031	208	16_30_34_6987020
0.205078	-0.187500	0.758789	-0.815566	-0.693700	-0.403096	-0.199219	0.339844	0.433594	209	16_30_34_7148310
0.205078	-0.193359	0.764648	-0.806191	-0.684325	-0.412470	-0.199219	0.375000	0.445313	210	16_30_34_7309600
0.216797	-0.196289	0.773438	-0.815566	-0.693700	-0.403096	-0.187500	0.351563	0.503906	211	16_30_34_7470890
0.205078	-0.208008	0.764648	-0.815566	-0.684325	-0.403096	-0.140625	0.351563	0.503906	212	16_30_34_7632180
0.202148	-0.190430	0.758789	-0.806191	-0.684325	-0.403096	-0.199219	0.339844	0.468750	213	16_30_34_7793470
0.199219	-0.205078	0.773438	-0.806191	-0.684325	-0.403096	-0.199219	0.375000	0.457031	214	16_30_34_7954760
0.196289	-0.187500	0.773438	-0.815566	-0.684325	-0.393721	-0.199219	0.386719	0.421875	215	16_30_34_8116050
0.193359	-0.193359	0.761719	-0.796817	-0.684325	-0.393721	-0.187500	0.386719	0.457031	216	16_30_34_8277340
0.193359	-0.190430	0.767578	-0.806191	-0.684325	-0.403096	-0.187500	0.375000	0.457031	217	16_30_34_8438630
0.193359	-0.184570	0.770508	-0.815566	-0.684325	-0.403096	-0.199219	0.375000	0.445313	218	16_30_34_8599920
0.196289	-0.181641	0.770508	-0.815566	-0.693700	-0.403096	-0.199219	0.351563	0.457031	219	16_30_34_8761210
0.172852	-0.196289	0.770508	-0.806191	-0.684325	-0.403096	-0.175781	0.351563	0.410156	220	16_30_34_8922500
0.190430	-0.187500	0.767578	-0.815566	-0.693700	-0.403096	0.105469	0.609375	0.468750	221	16_30_34_9083790
0.184570	-0.190430	0.767578	-0.806191	-0.684325	-0.403096	-0.199219	0.351563	0.468750	222	16_30_34_9245080
0.187500	-0.199219	0.761719	-0.815566	-0.693700	-0.403096	0.035156	0.796875	0.503906	223	16_30_34_9406370
0.184570	-0.193359	0.764648	-0.815566	-0.693700	-0.403096	-0.199219	0.339844	0.410156	224	16_30_34_9567660
0.193359	-0.190430	0.764648	-0.806191	-0.693700	-0.403096	-0.187500	0.363281	0.421875	225	16_30_34_9728950
0.199219	-0.190430	0.773438	-0.815566	-0.693700	-0.403096	-0.187500	0.375000	0.445313	226	16_30_34_9890240
0.193359	-0.193359	0.764648	-0.806191	-0.703074	-0.403096	-0.187500	0.328125	0.457031	227	16_30_35_0051530
0.193359	-0.181641	0.761719	-0.806191	-0.693700	-0.403096	-0.199219	0.316406	0.433594	228	16_30_35_0212820
0.190430	-0.187500	0.764648	-0.806191	-0.693700	-0.393721	-0.210938	0.375000	0.457031	229	16_30_35_0374110
0.199219	-0.190430	0.770508	-0.806191	-0.693700	-0.403096	-0.199219	0.386719	0.421875	230	16_30_35_0535400
0.199219	-0.193359	0.770508	-0.815566	-0.693700	-0.403096	-0.199219	0.386719	0.457031	231	16_30_35_0696690
0.184570	-0.184570	0.758789	-0.806191	-0.684325	-0.403096	-0.128906	0.421875	0.492188	232	16_30_35_0857980
0.199219	-0.196289	0.758789	-0.806191	-0.684325	-0.393721	-0.199219	0.375000	0.468750	233	16_30_35_1019270
0.190430	-0.202148	0.767578	-0.815566	-0.684325	-0.403096	-0.105469	0.480469	0.562500	234	16_30_35_1180560
0.199219	-0.190430	0.764648	-0.815566	-0.693700	-0.403096	-0.164063	0.339844	0.445313	235	16_30_35_1341850
0.193359	-0.196289	0.767578	-0.815566	-0.693700	-0.403096	-0.164063	0.398438	0.457031	236	16_30_35_1503140
0.181641	-0.196289	0.770508	-0.806191	-0.693700	-0.403096	-0.070313	0.433594	0.457031	237	16_30_35_1664430
0.193359	-0.199219	0.770508	-0.815566	-0.693700	-0.403096	-0.187500	0.351563	0.398438	238	16_30_35_1825720
0.184570	-0.202148	0.782227	-0.815566	-0.693700	-0.403096	-0.011719	0.468750	0.468750	239	16_30_35_1987010
0.181641	-0.190430	0.764648	-0.815566	-0.693700	-0.403096	-0.210938	0.363281	0.433594	240	16_30_35_2148300
0.184570	-0.190430	0.770508	-0.806191	-0.703074	-0.403096	-0.199219	0.375000	0.410156	241	16_30_35_2309590
0.178711	-0.193359	0.761719	-0.806191	-0.703074	-0.403096	-0.199219	0.386719	0.468750	242	16_30_35_2470880
0.196289	-0.196289	0.767578	-0.806191	-0.703074	-0.403096	-0.199219	0.375000	0.503906	243	16_30_35_2632170
0.205078	-0.181641	0.758789	-0.806191	-0.693700	-0.403096	-0.035156	0.832031	0.527344	244	16_30_35_2793460
0.193359	-0.196289	0.755859	-0.806191	-0.684325	-0.412470	-0.199219	0.363281	0.445313	245	16_30_35_2954750
0.190430	-0.187500	0.761719	-0.815566	-0.693700	-0.403096	-0.222656	0.375000	0.515625	246	16_30_35_3116040
0.190430	-0.193359	0.767578	-0.806191	-0.693700	-0.403096	-0.187500	0.363281	0.550781	247	16_30_35_3277330
0.172852	-0.193359	0.770508	-0.806191	-0.693700	-0.403096	-0.128906	0.433594	0.609375	248	16_30_35_3438620
0.199219	-0.193359	0.770508	-0.806191	-0.693700	-0.403096	-0.175781	0.339844	0.585938	249	16_30_35_3599910
0.196289	-0.184570	0.770508	-0.815566	-0.693700	-0.403096	-0.199219	0.351563	0.515625	250	16_30_35_3761200
0.205078	-0.196289	0.770508	-0.806191	-0.693700	-0.403096	-0.187500	0.386719	0.421875	251	16_30_35_3922490
0.202148	-0.190430	0.761719	-0.815566	-0.693700	-0.403096	0.070313	0.539063	0.503906	252	16_30_35_4083780
0.202148	-0.184570	0.770508	-0.806191	-0.684325	-0.403096	-0.210938	0.375000	0.457031	253	16_30_35_4245070
0.190430	-0.193359	0.761719	-0.806191	-0.684325	-0.403096	-0.175781	0.351563	0.445313	254	16_30_35_4406360
0.181641	-0.187500	0.761719	-0.806191	-0.693700	-0.403096	-0.175781	0.363281	0.445313	255	16_30_35_4567650
0.193359	-0.205078	0.761719	-0.806191	-0.693700	-0.403096	-0.199219	0.339844	0.492188	256	16_30_35_4728940
0.193359	-0.187500	0.767578	-0.806191	-0.693700	-0.403096	-0.175781	0.363281	0.480469	257	16_30_35_4890230
0.193359	-0.187500	0.758789	-0.806191	-0.693700	-0.403096	-0.175781	0.375000	0.421875	258	16_30_35_5051520
0.190430	-0.196289	0.764648	-0.806191	-0.693700	-0.403096	-0.187500	0.375000	0.386719	259	16_30_35_5212810
0.193359	-0.184570	0.767578	-0.815566	-0.684325	-0.403096	-0.035156	0.445313	0.480469	260	16_30_35_5374100
0.187500	-0.187500	0.764648	-0.815566	-0.693700	-0.403096	-0.187500	0.363281	0.433594	261	16_30_35_5535390
0.181641	-0.190430	0.761719	-0.815566	-0.693700	-0.403096	-0.164063	0.375000	0.468750	262	16_30_35_5696680
0.199219	-0.193359	0.758789	-0.815566	-0.693700	-0.403096	-0.164063	0.375000	0.480469	263	16_30_35_5857970
0.208008	-0.199219	0.761719	-0.815566	-0.684325	-0.403096	-0.210938	0.304688	0.480469	264	16_30_35_6019260
0.219727	-0.193359	0.764648	-0.815566	-0.674951	-0.412470	-0.187500	0.351563	0.457031	265	16_30_35_6180550
0.205078	-0.193359	0.764648	-0.815566	-0.665577	-0.403096	-0.164063	0.574219	0.539063	266	16_30_35_6341840
0.193359	-0.181641	0.764648	-0.815566	-0.665577	-0.403096	-0.199219	0.351563	0.398438	267	16_30_35_6503130
0.178711	-0.187500	0.779297	-0.806191	-0.674951	-0.393721	-0.164063	0.375000	0.433594	268	16_30_35_6664420
0.169922	-0.181641	0.776367	-0.806191	-0.703074	-0.384347	-0.199219	0.386719	0.480469	269	16_30_35_6825710
0.178711	-0.187500	0.776367	-0.796817	-0.693700	-0.384347	-0.187500	0.351563	0.410156	270	16_30_35_6987000
0.187500	-0.184570	0.773438	-0.806191	-0.712448	-0.393721	-0.175781	0.351563	0.410156	271	16_30_35_7148290
0.190430	-0.187500	0.758789	-0.815566	-0.703074	-0.403096	-0.152344	0.398438	0.445313	272	16_30_35_7309580
0.208008	-0.190430	0.747070	-0.806191	-0.693700	-0.403096	-0.187500	0.398438	0.492188	273	16_30_35_7470870
0.205078	-0.169922	0.744141	-0.806191	-0.693700	-0.412470	-0.199219	0.386719	0.480469	274	16_30_35_7632160
0.199219	-0.187500	0.764648	-0.806191	-0.684325	-0.412470	-0.210938	0.398438	0.480469	275	16_30_35_7793450
0.193359	-0.190430	0.764648	-0.815566	-0.684325	-0.412470	-0.199219	0.386719	0.445313	276	16_30_35_7954740
0.178711	-0.193359	0.791016	-0.806191	-0.693700	-0.412470	-0.199219	0.363281	0.433594	277	16_30_35_8116030
0.190430	-0.193359	0.788086	-0.806191	-0.693700	-0.403096	-0.187500	0.363281	0.480469	278	16_30_35_8277320
0.202148	-0.205078	0.776367	-0.806191	-0.703074	-0.393721	-0.199219	0.375000	0.468750	279	16_30_35_8438610
0.205078	-0.199219	0.770508	-0.815566	-0.703074	-0.393721	-0.187500	0.375000	0.480469	280	16_30_35_8599900
0.213867	-0.199219	0.758789	-0.806191	-0.693700	-0.393721	-0.199219	0.375000	0.445313	281	16_30_35_8761190
0.210938	-0.193359	0.752930	-0.815566	-0.693700	-0.403096	0.058594	0.550781	0.480469	282	16_30_35_8922480
0.205078	-0.187500	0.752930	-0.815566	-0.674951	-0.403096	-0.199219	0.351563	0.421875	283	16_30_35_9083770
0.205078	-0.202148	0.761719	-0.815566	-0.674951	-0.403096	0.011719	0.492188	0.515625	284	16_30_35_9245060
0.193359	-0.190430	0.764648	-0.815566	-0.674951	-0.403096	-0.199219	0.375000	0.468750	285	16_30_35_9406350
0.193359	-0.190430	0.764648	-0.815566	-0.684325	-0.403096	-0.199219	0.386719	0.386719	286	16_30_35_9567640
0.196289	-0.193359	0.776367	-0.815566	-0.684325	-0.403096	-0.199219	0.375000	0.433594	287	16_30_35_9728930
0.178711	-0.193359	0.770508	-0.806191	-0.684325	-0.403096	-0.164063	0.386719	0.492188	288	16_30_35_9890220
0.187500	-0.187500	0.773438	-0.806191	-0.684325	-0.403096	-0.140625	0.398438	0.433594	289	16_30_36_0051510
0.181641	-0.199219	0.761719	-0.815566	-0.684325	-0.393721	-0.093750	0.398438	0.457031	290	16_30_36_0212800
0.181641	-0.193359	0.758789	-0.806191	-0.684325	-0.393721	-0.187500	0.339844	0.445313	291	16_30_36_0374090
0.175781	-0.181641	0.761719	-0.806191	-0.693700	-0.393721	-0.199219	0.375000	0.433594	292	16_30_36_0535380
0.181641	-0.199219	0.764648	-0.806191	-0.693700	-0.403096	-0.199219	0.386719	0.457031	293	16_30_36_0696670
0.178711	-0.202148	0.767578	-0.806191	-0.693700	-0.403096	-0.164063	0.386719	0.433594	294	16_30_36_0857960
0.184570	-0.199219	0.770508	-0.806191	-0.693700	-0.403096	-0.210938	0.386719	0.457031	295	16_30_36_1019250
0.187500	-0.187500	0.764648	-0.806191	-0.693700	-0.403096	-0.199219	0.375000	0.457031	296	16_30_36_1180540
0.181641	-0.190430	0.770508	-0.787443	-0.693700	-0.403096	-0.199219	0.363281	0.457031	297	16_30_36_1341830
0.178711	-0.181641	0.770508	-0.815566	-0.693700	-0.403096	-0.128906	0.468750	0.621094	298	16_30_36_1503120
0.190430	-0.193359	0.761719	-0.815566	-0.693700	-0.403096	-0.175781	0.375000	0.433594	299	16_30_36_1664410
0.190430	-0.187500	0.761719	-0.806191	-0.693700	-0.403096	-0.199219	0.375000	0.433594	300	16_30_36_1825700
0.193359	-0.193359	0.764648	-0.806191	-0.693700	-0.403096	-0.199219	0.386719	0.421875	301	16_30_36_1986990
0.199219	-0.196289	0.758789	-0.806191	-0.693700	-0.403096	-0.164063	0.398438	0.410156	302	16_30_36_2148280
0.205078	-0.190430	0.770508	-0.806191	-0.693700	-0.403096	-0.175781	0.386719	0.386719	303	16_30_36_2309570
0.193359	-0.196289	0.770508	-0.806191	-0.693700	-0.403096	-0.187500	0.386719	0.398438	304	16_30_36_2470860
0.205078	-0.187500	0.767578	-0.815566	-0.693700	-0.403096	-0.210938	0.386719	0.398438	305	16_30_36_2632150
0.190430	-0.190430	0.764648	-0.806191	-0.693700	-0.403096	-0.164063	0.386719	0.421875	306	16_30_36_2793440
0.205078	-0.196289	0.761719	-0.806191	-0.693700	-0.403096	-0.234375	0.386719	0.398438	307	16_30_36_2954730
0.208008	-0.193359	0.767578	-0.815566	-0.684325	-0.403096	-0.199219	0.503906	0.480469	308	16_30_36_3116020
0.202148	-0.184570	0.758789	-0.815566	-0.693700	-0.403096	-0.199219	0.351563	0.445313	309	16_30_36_3277310
0.199219	-0.175781	0.761719	-0.806191	-0.684325	-0.403096	-0.175781	0.375000	0.457031	310	16_30_36_3438600
0.202148	-0.178711	0.770508	-0.806191	-0.693700	-0.403096	-0.164063	0.351563	0.457031	311	16_30_36_3599890
0.202148	-0.199219	0.767578	-0.815566	-0.693700	-0.403096	-0.011719	0.457031	0.527344	312	16_30_36_3761180
0.199219	-0.193359	0.770508	-0.806191	-0.693700	-0.403096	-0.210938	0.386719	0.480469	313	16_30_36_3922470
0.199219	-0.205078	0.770508	-0.815566	-0.684325	-0.403096	-0.164063	0.386719	0.421875	314	16_30_36_4083760
0.208008	-0.193359	0.767578	-0.806191	-0.684325	-0.403096	-0.187500	0.363281	0.445313	315	16_30_36_4245050
0.190430	-0.196289	0.770508	-0.806191	-0.684325	-0.403096	-0.199219	0.386719	0.492188	316	16_30_36_4406340
0.205078	-0.196289	0.764648	-0.806191	-0.684325	-0.403096	-0.164063	0.386719	0.515625	317	16_30_36_4567630
0.199219	-0.196289	0.773438	-0.815566	-0.674951	-0.393721	-0.199219	0.386719	0.527344	318	16_30_36_4728920
0.196289	-0.193359	0.758789	-0.815566	-0.684325	-0.403096	-0.199219	0.386719	0.480469	319	16_30_36_4890210
0.190430	-0.190430	0.767578	-0.806191	-0.684325	-0.403096	-0.199219	0.386719	0.457031	320	16_30_36_5051500
0.196289	-0.193359	0.782227	-0.815566	-0.684325	-0.403096	-0.199219	0.386719	0.445313	321	16_30_36_5212790
0.190430	-0.187500	0.764648	-0.787443	-0.684325	-0.403096	-0.140625	0.457031	0.468750	322	16_30_36_5374080
0.196289	-0.190430	0.770508	-0.806191	-0.693700	-0.393721	-0.187500	0.386719	0.410156	323	16_30_36_5535370
0.196289	-0.184570	0.764648	-0.815566	-0.693700	-0.403096	-0.199219	0.386719	0.375000	324	16_30_36_5696660
0.172852	-0.190430	0.767578	-0.806191	-0.684325	-0.403096	-0.187500	0.386719	0.421875	325	16_30_36_5857950
0.181641	-0.190430	0.764648	-0.806191	-0.693700	-0.403096	-0.175781	0.386719	0.421875	326	16_30_36_6019240
0.181641	-0.181641	0.761719	-0.806191	-0.684325	-0.403096	-0.128906	0.421875	0.433594	327	16_30_36_6180530
0.175781	-0.190430	0.764648	-0.806191	-0.693700	-0.403096	-0.164063	0.375000	0.398438	328	16_30_36_6341820
0.181641	-0.187500	0.770508	-0.815566	-0.693700	-0.403096	-0.199219	0.468750	0.480469	329	16_30_36_6503110
0.187500	-0.187500	0.770508	-0.806191	-0.693700	-0.403096	-0.187500	0.339844	0.421875	330	16_30_36_6664400
0.181641	-0.187500	0.773438	-0.806191	-0.693700	-0.403096	-0.046875	0.421875	0.503906	331	16_30_36_6825690
0.187500	-0.190430	0.767578	-0.815566	-0.693700	-0.403096	-0.199219	0.375000	0.515625	332	16_30_36_6986980
0.190430	-0.184570	0.761719	-0.824940	-0.693700	-0.403096	-0.011719	0.480469	0.515625	333	16_30_36_7148270
0.193359	-0.190430	0.764648	-0.806191	-0.693700	-0.403096	-0.222656	0.375000	0.410156	334	16_30_36_7309560
0.202148	-0.184570	0.764648	-0.806191	-0.693700	-0.403096	-0.199219	0.363281	0.421875	335	16_30_36_7470850
0.202148	-0.199219	0.770508	-0.806191	-0.693700	-0.403096	-0.199219	0.386719	0.421875	336	16_30_36_7632140
0.205078	-0.184570	0.764648	-0.815566	-0.693700	-0.403096	-0.175781	0.386719	0.445313	337	16_30_36_7793430
0.208008	-0.190430	0.764648	-0.806191	-0.693700	-0.393721	-0.199219	0.375000	0.410156	338	16_30_36_7954720
0.205078	-0.190430	0.773438	-0.806191	-0.693700	-0.403096	-0.175781	0.386719	0.410156	339	16_30_36_8116010
0.208008	-0.187500	0.767578	-0.806191	-0.693700	-0.403096	-0.175781	0.386719	0.433594	340	16_30_36_8277300
0.196289	-0.187500	0.773438	-0.806191	-0.693700	-0.403096	-0.199219	0.351563	0.503906	341	16_30_36_8438590
0.199219	-0.193359	0.776367	-0.806191	-0.684325	-0.403096	-0.199219	0.339844	0.515625	342	16_30_36_8599880
0.199219	-0.181641	0.764648	-0.815566	-0.684325	-0.403096	0.000000	0.515625	0.480469	343	16_30_36_8761170
0.205078	-0.190430	0.761719	-0.815566	-0.684325	-0.403096	-0.187500	0.386719	0.445313	344	16_30_36_8922460
0.208008	-0.196289	0.761719	-0.815566	-0.684325	-0.403096	-0.199219	0.386719	0.410156	345	16_30_36_9083750
0.210938	-0.184570	0.764648	-0.806191	-0.674951	-0.403096	-0.199219	0.386719	0.433594	346	16_30_36_9245040
0.208008	-0.193359	0.770508	-0.806191	-0.684325	-0.403096	-0.199219	0.363281	0.410156	347	16_30_36_9406330
0.205078	-0.187500	0.764648	-0.806191	-0.684325	-0.403096	-0.187500	0.351563	0.375000	348	16_30_36_9567620
0.202148	-0.187500	0.758789	-0.806191	-0.674951	-0.403096	-0.199219	0.351563	0.468750	349	16_30_36_9728910
0.202148	-0.193359	0.770508	-0.806191	-0.674951	-0.403096	-0.199219	0.304688	0.492188	350	16_30_36_9890200
0.190430	-0.187500	0.770508	-0.806191	-0.684325	-0.403096	-0.187500	0.363281	0.445313	351	16_30_37_0051490
0.193359	-0.193359	0.764648	-0.806191	-0.674951	-0.393721	-0.175781	0.386719	0.445313	352	16_30_37_0212780
0.190430	-0.196289	0.770508	-0.806191	-0.674951	-0.393721	-0.199219	0.386719	0.492188	353	16_30_37_0374070
0.187500	-0.187500	0.764648	-0.806191	-0.684325	-0.393721	-0.187500	0.386719	0.480469	354	16_30_37_0535360
0.181641	-0.202148	0.761719	-0.815566	-0.684325	-0.393721	-0.199219	0.375000	0.492188	355	16_30_37_0696650
0.175781	-0.190430	0.764648	-0.806191	-0.684325	-0.393721	-0.210938	0.339844	0.480469	356	16_30_37_0857940
0.181641	-0.187500	0.764648	-0.806191	-0.674951	-0.393721	-0.210938	0.351563	0.421875	357	16_30_37_1019230
0.178711	-0.184570	0.773438	-0.815566	-0.693700	-0.403096	-0.187500	0.375000	0.480469	358	16_30_37_1180520
0.181641	-0.190430	0.770508	-0.806191	-0.693700	-0.393721	-0.210938	0.386719	0.480469	359	16_30_37_1341810
0.178711	-0.196289	0.767578	-0.806191	-0.684325	-0.403096	-0.187500	0.386719	0.445313	360	16_30_37_1503100
0.166992	-0.184570	0.773438	-0.815566	-0.693700	-0.403096	-0.105469	0.445313	0.527344	361	16_30_37_1664390
0.184570	-0.187500	0.770508	-0.806191	-0.693700	-0.403096	-0.187500	0.386719	0.457031	362	16_30_37_1825680
0.181641	-0.187500	0.764648	-0.806191	-0.693700	-0.403096	-0.187500	0.386719	0.386719	363	16_30_37_1986970
0.196289	-0.187500	0.767578	-0.815566	-0.693700	-0.403096	0.011719	0.539063	0.410156	364	16_30_37_2148260
0.187500	-0.193359	0.764648	-0.815566	-0.693700	-0.403096	-0.164063	0.328125	0.433594	365	16_30_37_2309550
0.202148	-0.187500	0.767578	-0.824940	-0.693700	-0.403096	0.199219	0.644531	0.421875	366	16_30_37_2470840
0.187500	-0.190430	0.770508	-0.815566	-0.693700	-0.403096	0.164063	0.609375	0.433594	367	16_30_37_2632130
0.199219	-0.193359	0.764648	-0.815566	-0.693700	-0.403096	-0.199219	0.351563	0.480469	368	16_30_37_2793420
0.199219	-0.196289	0.767578	-0.815566	-0.693700	-0.403096	-0.199219	0.375000	0.539063	369	16_30_37_2954710
0.193359	-0.208008	0.761719	-0.806191	-0.693700	-0.403096	-0.164063	0.351563	0.492188	370	16_30_37_3116000
0.193359	-0.184570	0.761719	-0.815566	-0.693700	-0.403096	-0.222656	0.351563	0.503906	371	16_30_37_3277290
0.196289	-0.199219	0.764648	-0.806191	-0.693700	-0.403096	-0.175781	0.386719	0.480469	372	16_30_37_3438580
0.205078	-0.193359	0.770508	-0.806191	-0.693700	-0.403096	-0.210938	0.363281	0.433594	373	16_30_37_3599870
0.199219	-0.205078	0.761719	-0.806191	-0.693700	-0.403096	-0.164063	0.328125	0.468750	374	16_30_37_3761160
0.210938	-0.187500	0.764648	-0.806191	-0.693700	-0.403096	-0.187500	0.292969	0.480469	375	16_30_37_3922450
0.213867	-0.193359	0.770508	-0.815566	-0.693700	-0.403096	-0.199219	0.328125	0.492188	376	16_30_37_4083740
0.210938	-0.199219	0.761719	-0.815566	-0.693700	-0.403096	0.187500	0.632813	0.609375	377	16_30_37_4245030
0.202148	-0.184570	0.764648	-0.806191	-0.684325	-0.403096	-0.187500	0.351563	0.492188	378	16_30_37_4406320
0.202148	-0.178711	0.761719	-0.815566	-0.684325	-0.403096	-0.164063	0.363281	0.445313	379	16_30_37_4567610
0.196289	-0.187500	0.761719	-0.806191	-0.684325	-0.393721	-0.199219	0.386719	0.410156	380	16_30_37_4728900
0.205078	-0.193359	0.758789	-0.806191	-0.684325	-0.403096	-0.199219	0.375000	0.433594	381	16_30_37_4890190
0.196289	-0.193359	0.767578	-0.806191	-0.684325	-0.393721	-0.199219	0.351563	0.503906	382	16_30_37_5051480
0.190430	-0.187500	0.767578	-0.815566	-0.684325	-0.393721	-0.199219	0.363281	0.550781	383	16_30_37_5212770
0.193359	-0.196289	0.758789	-0.806191	-0.684325	-0.403096	-0.199219	0.351563	0.480469	384	16_30_37_5374060
0.187500	-0.193359	0.767578	-0.806191	-0.684325	-0.403096	-0.175781	0.375000	0.410156	385	16_30_37_5535350
0.196289	-0.184570	0.761719	-0.806191	-0.693700	-0.403096	-0.187500	0.363281	0.421875	386	16_30_37_5696640
0.199219	-0.190430	0.767578	-0.815566	-0.684325	-0.403096	0.152344	0.679688	0.480469	387	16_30_37_5857930
0.190430	-0.190430	0.761719	-0.806191	-0.684325	-0.403096	-0.187500	0.375000	0.421875	388	16_30_37_6019220
0.193359	-0.190430	0.764648	-0.815566	-0.684325	-0.403096	-0.175781	0.339844	0.410156	389	16_30_37_6180510
0.187500	-0.187500	0.770508	-0.815566	-0.684325	-0.403096	-0.070313	0.609375	0.539063	390	16_30_37_6341800
0.181641	-0.187500	0.773438	-0.806191	-0.684325	-0.403096	-0.199219	0.375000	0.386719	391	16_30_37_6503090
0.193359	-0.187500	0.764648	-0.824940	-0.684325	-0.403096	-0.187500	0.363281	0.421875	392	16_30_37_6664380
0.193359	-0.193359	0.770508	-0.806191	-0.684325	-0.403096	-0.199219	0.375000	0.445313	393	16_30_37_6825670
0.178711	-0.184570	0.773438	-0.806191	-0.693700	-0.403096	-0.199219	0.339844	0.421875	394	16_30_37_6986960
0.202148	-0.181641	0.770508	-0.806191	-0.684325	-0.403096	-0.175781	0.363281	0.375000	395	16_30_37_7148250
0.187500	-0.193359	0.764648	-0.815566	-0.684325	-0.403096	0.023438	0.539063	0.457031	396	16_30_37_7309540
0.190430	-0.187500	0.764648	-0.806191	-0.693700	-0.403096	-0.187500	0.386719	0.457031	397	16_30_37_7470830
0.187500	-0.193359	0.770508	-0.806191	-0.693700	-0.403096	-0.199219	0.375000	0.433594	398	16_30_37_7632120
0.187500	-0.196289	0.761719	-0.806191	-0.693700	-0.403096	-0.199219	0.375000	0.480469	399	16_30_37_7793410
0.193359	-0.184570	0.764648	-0.806191	-0.693700	-0.403096	-0.187500	0.386719	0.503906	400	16_30_37_7954700
0.202148	-0.196289	0.776367	-0.815566	-0.693700	-0.403096	-0.164063	0.351563	0.457031	401	16_30_37_8115990
0.190430	-0.193359	0.776367	-0.815566	-0.693700	-0.403096	-0.187500	0.421875	0.515625	402	16_30_37_8277280
0.202148	-0.193359	0.767578	-0.806191	-0.693700	-0.403096	-0.199219	0.375000	0.503906	403	16_30_37_8438570
0.193359	-0.202148	0.764648	-0.806191	-0.684325	-0.403096	-0.187500	0.339844	0.503906	404	16_30_37_8599860
0.193359	-0.190430	0.770508	-0.824940	-0.693700	-0.403096	0.105469	0.562500	0.468750	405	16_30_37_8761150
0.202148	-0.199219	0.764648	-0.815566	-0.693700	-0.403096	-0.187500	0.351563	0.410156	406	16_30_37_8922440
0.190430	-0.181641	0.767578	-0.806191	-0.693700	-0.403096	-0.199219	0.351563	0.480469	407	16_30_37_9083730
0.199219	-0.187500	0.770508	-0.815566	-0.693700	-0.403096	-0.199219	0.351563	0.515625	408	16_30_37_9245020
0.187500	-0.193359	0.758789	-0.806191	-0.693700	-0.403096	-0.164063	0.328125	0.468750	409	16_30_37_9406310
0.193359	-0.187500	0.776367	-0.806191	-0.693700	-0.403096	-0.187500	0.375000	0.445313	410	16_30_37_9567600
0.181641	-0.190430	0.764648	-0.806191	-0.693700	-0.403096	-0.164063	0.339844	0.457031	411	16_30_37_9728890
0.190430	-0.184570	0.767578	-0.806191	-0.693700	-0.403096	-0.187500	0.351563	0.492188	412	16_30_37_9890180
0.184570	-0.196289	0.764648	-0.806191	-0.693700	-0.403096	-0.164063	0.386719	0.445313	413	16_30_38_0051470
0.193359	-0.190430	0.770508	-0.806191	-0.684325	-0.403096	-0.199219	0.375000	0.386719	414	16_30_38_0212760
0.190430	-0.190430	0.764648	-0.815566	-0.693700	-0.403096	-0.164063	0.363281	0.410156	415	16_30_38_0374050
0.196289	-0.193359	0.767578	-0.815566	-0.693700	-0.403096	-0.175781	0.375000	0.410156	416	16_30_38_0535340
0.193359	-0.193359	0.755859	-0.815566	-0.693700	-0.403096	-0.164063	0.363281	0.421875	417	16_30_38_0696630
0.193359	-0.190430	0.770508	-0.806191	-0.693700	-0.393721	-0.199219	0.375000	0.445313	418	16_30_38_0857920
0.193359	-0.190430	0.761719	-0.815566	-0.693700	-0.403096	-0.199219	0.363281	0.468750	419	16_30_38_1019210
0.184570	-0.193359	0.764648	-0.806191	-0.693700	-0.403096	-0.164063	0.386719	0.550781	420	16_30_38_1180500
0.193359	-0.187500	0.773438	-0.806191	-0.693700	-0.403096	-0.175781	0.375000	0.574219	421	16_30_38_1341790
0.196289	-0.193359	0.764648	-0.806191	-0.684325	-0.403096	-0.199219	0.351563	0.480469	422	16_30_38_1503080
0.193359	-0.193359	0.764648	-0.815566	-0.693700	-0.403096	-0.199219	0.386719	0.433594	423	16_30_38_1664370
0.184570	-0.193359	0.767578	-0.824940	-0.684325	-0.403096	-0.175781	0.363281	0.421875	424	16_30_38_1825660
0.196289	-0.193359	0.767578	-0.806191	-0.684325	-0.403096	-0.187500	0.328125	0.445313	425	16_30_38_1986950
0.193359	-0.187500	0.761719	-0.796817	-0.684325	-0.403096	-0.175781	0.375000	0.457031	426	16_30_38_2148240
0.193359	-0.178711	0.776367	-0.815566	-0.693700	-0.403096	-0.199219	0.386719	0.398438	427	16_30_38_2309530
0.199219	-0.193359	0.770508	-0.815566	-0.693700	-0.403096	-0.164063	0.351563	0.468750	428	16_30_38_2470820
0.193359	-0.193359	0.758789	-0.806191	-0.693700	-0.403096	-0.164063	0.339844	0.515625	429	16_30_38_2632110
0.193359	-0.193359	0.770508	-0.806191	-0.684325	-0.403096	-0.187500	0.363281	0.468750	430	16_30_38_2793400
0.193359	-0.187500	0.752930	-0.815566	-0.684325	-0.403096	0.105469	0.867188	0.468750	431	16_30_38_2954690
0.202148	-0.187500	0.767578	-0.806191	-0.684325	-0.403096	-0.187500	0.351563	0.433594	432	16_30_38_3115980
0.196289	-0.181641	0.770508	-0.815566	-0.693700	-0.403096	-0.199219	0.351563	0.457031	433	16_30_38_3277270
0.196289	-0.184570	0.764648	-0.806191	-0.684325	-0.403096	-0.140625	0.421875	0.468750	434	16_30_38_3438560
0.193359	-0.190430	0.770508	-0.806191	-0.693700	-0.403096	-0.199219	0.375000	0.445313	435	16_30_38_3599850
0.199219	-0.187500	0.770508	-0.806191	-0.684325	-0.403096	-0.199219	0.339844	0.480469	436	16_30_38_3761140
0.184570	-0.196289	0.773438	-0.806191	-0.684325	-0.403096	-0.187500	0.339844	0.480469	437	16_30_38_3922430
0.190430	-0.190430	0.770508	-0.815566	-0.693700	-0.393721	-0.164063	0.410156	0.410156	438	16_30_38_4083720
0.196289	-0.193359	0.770508	-0.815566	-0.684325	-0.403096	-0.175781	0.386719	0.398438	439	16_30_38_4245010
0.196289	-0.199219	0.761719	-0.815566	-0.684325	-0.403096	-0.187500	0.375000	0.445313	440	16_30_38_4406300
0.190430	-0.199219	0.755859	-0.806191	-0.674951	-0.393721	-0.117188	0.421875	0.457031	441	16_30_38_4567590
0.193359	-0.190430	0.758789	-0.815566	-0.684325	-0.403096	-0.199219	0.375000	0.468750	442	16_30_38_4728880
0.193359	-0.187500	0.764648	-0.815566	-0.684325	-0.403096	-0.164063	0.375000	0.503906	443	16_30_38_4890170
0.190430	-0.190430	0.761719	-0.806191	-0.684325	-0.403096	-0.199219	0.363281	0.503906	444	16_30_38_5051460
0.187500	-0.190430	0.761719	-0.806191	-0.684325	-0.403096	-0.199219	0.375000	0.527344	445	16_30_38_5212750
0.193359	-0.190430	0.767578	-0.806191	-0.684325	-0.393721	-0.152344	0.363281	0.492188	446	16_30_38_5374040
0.190430	-0.187500	0.761719	-0.815566	-0.693700	-0.403096	-0.187500	0.351563	0.421875	447	16_30_38_5535330
0.184570	-0.190430	0.770508	-0.815566	-0.684325	-0.403096	-0.187500	0.363281	0.421875	448	16_30_38_5696620
0.193359	-0.187500	0.767578	-0.815566	-0.684325	-0.403096	0.105469	0.585938	0.527344	449	16_30_38_5857910
0.184570	-0.190430	0.764648	-0.815566	-0.684325	-0.403096	-0.199219	0.351563	0.503906	450	16_30_38_6019200
0.193359	-0.193359	0.776367	-0.815566	-0.693700	-0.403096	0.117188	0.714844	0.503906	451	16_30_38_6180490
0.193359	-0.190430	0.770508	-0.815566	-0.693700	-0.403096	-0.199219	0.351563	0.398438	452	16_30_38_6341780
0.193359	-0.187500	0.770508	-0.815566	-0.693700	-0.403096	-0.199219	0.386719	0.445313	453	16_30_38_6503070
0.184570	-0.187500	0.767578	-0.806191	-0.693700	-0.403096	-0.175781	0.386719	0.421875	454	16_30_38_6664360
0.181641	-0.196289	0.761719	-0.815566	-0.693700	-0.403096	-0.175781	0.386719	0.445313	455	16_30_38_6825650
0.199219	-0.187500	0.767578	-0.806191	-0.693700	-0.403096	-0.199219	0.375000	0.468750	456	16_30_38_6986940
0.190430	-0.181641	0.764648	-0.815566	-0.693700	-0.403096	-0.011719	0.457031	0.492188	457	16_30_38_7148230
0.205078	-0.193359	0.761719	-0.815566	-0.693700	-0.412470	-0.199219	0.386719	0.410156	458	16_30_38_7309520
0.196289	-0.187500	0.764648	-0.806191	-0.693700	-0.403096	-0.187500	0.386719	0.363281	459	16_30_38_7470810
0.193359	-0.178711	0.770508	-0.815566	-0.693700	-0.403096	-0.199219	0.375000	0.410156	460	16_30_38_7632100
0.193359	-0.196289	0.773438	-0.815566	-0.693700	-0.403096	-0.152344	0.410156	0.492188	461	16_30_38_7793390
0.190430	-0.196289	0.773438	-0.806191	-0.693700	-0.403096	-0.187500	0.375000	0.457031	462	16_30_38_7954680
0.193359	-0.196289	0.764648	-0.806191	-0.693700	-0.403096	-0.187500	0.679688	0.492188	463	16_30_38_8115970
0.199219	-0.193359	0.767578	-0.815566	-0.693700	-0.403096	-0.187500	0.375000	0.468750	464	16_30_38_8277260
0.199219	-0.187500	0.770508	-0.815566	-0.693700	-0.403096	-0.199219	0.351563	0.410156	465	16_30_38_8438550
0.193359	-0.184570	0.761719	-0.806191	-0.684325	-0.403096	-0.199219	0.339844	0.410156	466	16_30_38_8599840
0.181641	-0.193359	0.773438	-0.806191	-0.684325	-0.403096	-0.187500	0.328125	0.457031	467	16_30_38_8761130
0.193359	-0.187500	0.761719	-0.815566	-0.693700	-0.403096	-0.187500	0.328125	0.433594	468	16_30_38_8922420
0.199219	-0.187500	0.764648	-0.815566	-0.693700	-0.403096	-0.187500	0.328125	0.398438	469	16_30_38_9083710
0.199219	-0.190430	0.770508	-0.806191	-0.684325	-0.393721	-0.222656	0.386719	0.433594	470	16_30_38_9245000
0.193359	-0.190430	0.764648	-0.815566	-0.693700	-0.403096	0.117188	0.539063	0.585938	471	16_30_38_9406290
0.196289	-0.193359	0.770508	-0.806191	-0.684325	-0.403096	-0.187500	0.375000	0.492188	472	16_30_38_9567580
0.196289	-0.190430	0.773438	-0.815566	-0.693700	-0.403096	-0.199219	0.304688	0.445313	473	16_30_38_9728870
0.193359	-0.187500	0.773438	-0.815566	-0.693700	-0.393721	-0.164063	0.539063	0.468750	474	16_30_38_9890160
0.193359	-0.193359	0.764648	-0.815566	-0.684325	-0.403096	-0.199219	0.375000	0.410156	475	16_30_39_0051450
0.199219	-0.181641	0.764648	-0.806191	-0.693700	-0.412470	-0.187500	0.351563	0.386719	476	16_30_39_0212740
0.199219	-0.184570	0.773438	-0.806191	-0.684325	-0.403096	-0.222656	0.351563	0.375000	477	16_30_39_0374030
0.190430	-0.193359	0.770508	-0.806191	-0.684325	-0.403096	-0.199219	0.375000	0.398438	478	16_30_39_0535320
0.190430	-0.199219	0.764648	-0.806191	-0.684325	-0.403096	-0.175781	0.375000	0.433594	479	16_30_39_0696610
0.190430	-0.187500	0.770508	-0.815566	-0.693700	-0.403096	-0.199219	0.363281	0.421875	480	16_30_39_0857900
0.196289	-0.187500	0.773438	-0.824940	-0.693700	-0.403096	0.222656	0.656250	0.480469	481	16_30_39_1019190
0.199219	-0.193359	0.770508	-0.815566	-0.693700	-0.403096	-0.152344	0.410156	0.421875	482	16_30_39_1180480
0.190430	-0.184570	0.767578	-0.815566	-0.693700	-0.403096	-0.199219	0.375000	0.433594	483	16_30_39_1341770
0.199219	-0.184570	0.761719	-0.806191	-0.693700	-0.403096	-0.210938	0.363281	0.410156	484	16_30_39_1503060
0.196289	-0.190430	0.770508	-0.806191	-0.693700	-0.403096	-0.175781	0.398438	0.421875	485	16_30_39_1664350
0.190430	-0.199219	0.770508	-0.806191	-0.693700	-0.403096	-0.175781	0.386719	0.433594	486	16_30_39_1825640
0.196289	-0.196289	0.770508	-0.815566	-0.693700	-0.403096	-0.175781	0.386719	0.468750	487	16_30_39_1986930
0.199219	-0.196289	0.761719	-0.806191	-0.684325	-0.403096	-0.187500	0.375000	0.445313	488	16_30_39_2148220
0.190430	-0.178711	0.761719	-0.806191	-0.684325	-0.403096	-0.187500	0.351563	0.492188	489	16_30_39_2309510
0.187500	-0.193359	0.761719	-0.815566	-0.693700	-0.403096	-0.164063	0.375000	0.468750	490	16_30_39_2470800
0.196289	-0.199219	0.764648	-0.815566	-0.693700	-0.403096	-0.199219	0.386719	0.386719	491	16_30_39_2632090
0.196289	-0.187500	0.764648	-0.815566	-0.693700	-0.403096	-0.222656	0.386719	0.433594	492	16_30_39_2793380
0.196289	-0.196289	0.773438	-0.806191	-0.684325	-0.403096	-0.187500	0.386719	0.421875	493	16_30_39_2954670
0.184570	-0.184570	0.764648	-0.806191	-0.684325	-0.403096	-0.187500	0.339844	0.445313	494	16_30_39_3115960
0.178711	-0.190430	0.761719	-0.815566	-0.693700	-0.403096	-0.187500	0.351563	0.550781	495	16_30_39_3277250
0.193359	-0.196289	0.770508	-0.806191	-0.684325	-0.403096	-0.199219	0.363281	0.550781	496	16_30_39_3438540
0.193359	-0.187500	0.770508	-0.806191	-0.693700	-0.403096	-0.210938	0.328125	0.445313	497	16_30_39_3599830
0.175781	-0.187500	0.770508	-0.815566	-0.693700	-0.403096	-0.187500	0.351563	0.515625	498	16_30_39_3761120
0.190430	-0.193359	0.773438	-0.806191	-0.684325	-0.403096	-0.199219	0.375000	0.515625	499	16_30_39_3922410
0.196289	-0.199219	0.764648	-0.815566	-0.693700	-0.403096	-0.199219	0.351563	0.445313	500	16_30_39_4083700
0.193359	-0.196289	0.764648	-0.824940	-0.693700	-0.403096	0.082031	0.585938	0.539063	501	16_30_39_4244990
0.199219	-0.193359	0.767578	-0.815566	-0.693700	-0.403096	-0.199219	0.363281	0.457031	502	16_30_39_4406280
0.190430	-0.196289	0.770508	-0.806191	-0.693700	-0.403096	0.023438	0.492188	0.480469	503	16_30_39_4567570
0.199219	-0.193359	0.770508	-0.806191	-0.693700	-0.393721	-0.199219	0.339844	0.468750	504	16_30_39_4728860
0.196289	-0.193359	0.761719	-0.815566	-0.693700	-0.403096	-0.199219	0.375000	0.539063	505	16_30_39_4890150
0.199219	-0.184570	0.773438	-0.806191	-0.693700	-0.403096	-0.175781	0.351563	0.527344	506	16_30_39_5051440
0.196289	-0.199219	0.761719	-0.806191	-0.693700	-0.403096	-0.187500	0.386719	0.468750	507	16_30_39_5212730
0.199219	-0.184570	0.773438	-0.806191	-0.684325	-0.403096	-0.187500	0.386719	0.503906	508	16_30_39_5374020
0.187500	-0.187500	0.767578	-0.806191	-0.693700	-0.403096	-0.199219	0.386719	0.503906	509	16_30_39_5535310
0.199219	-0.187500	0.770508	-0.806191	-0.693700	-0.403096	-0.199219	0.398438	0.527344	510	16_30_39_5696600
0.199219	-0.196289	0.767578	-0.806191	-0.693700	-0.403096	0.011719	0.515625	0.585938	511	16_30_39_5857890
0.202148	-0.184570	0.770508	-0.815566	-0.693700	-0.403096	-0.199219	0.375000	0.457031	512	16_30_39_6019180
0.193359	-0.199219	0.755859	-0.806191	-0.693700	-0.403096	-0.199219	0.363281	0.492188	513	16_30_39_6180470
0.190430	-0.193359	0.770508	-0.806191	-0.684325	-0.403096	-0.199219	0.351563	0.480469	514	16_30_39_6341760
0.202148	-0.202148	0.761719	-0.806191	-0.684325	-0.403096	-0.187500	0.375000	0.480469	515	16_30_39_6503050
0.187500	-0.193359	0.758789	-0.815566	-0.693700	-0.403096	-0.164063	0.351563	0.527344	516	16_30_39_6664340
0.193359	-0.184570	0.764648	-0.796817	-0.693700	-0.403096	-0.199219	0.375000	0.468750	517	16_30_39_6825630
0.196289	-0.187500	0.758789	-0.806191	-0.684325	-0.403096	-0.199219	0.375000	0.433594	518	16_30_39_6986920
0.193359	-0.193359	0.776367	-0.806191	-0.684325	-0.403096	-0.199219	0.351563	0.457031	519	16_30_39_7148210
0.193359	-0.184570	0.767578	-0.815566	-0.684325	-0.403096	-0.175781	0.386719	0.457031	520	16_30_39_7309500
0.187500	-0.196289	0.764648	-0.815566	-0.693700	-0.403096	-0.199219	0.398438	0.515625	521	16_30_39_7470790
0.202148	-0.184570	0.767578	-0.806191	-0.684325	-0.393721	-0.175781	0.398438	0.515625	522	16_30_39_7632080
0.193359	-0.196289	0.767578	-0.815566	-0.693700	-0.403096	-0.140625	0.386719	0.457031	523	16_30_39_7793370
0.190430	-0.190430	0.773438	-0.815566	-0.693700	-0.403096	-0.199219	0.351563	0.421875	524	16_30_39_7954660
0.184570	-0.193359	0.764648	-0.815566	-0.693700	-0.403096	-0.140625	0.398438	0.410156	525	16_30_39_8115950
0.196289	-0.184570	0.764648	-0.806191	-0.693700	-0.403096	-0.199219	0.386719	0.410156	526	16_30_39_8277240
0.187500	-0.199219	0.773438	-0.815566	-0.693700	-0.403096	-0.210938	0.375000	0.410156	527	16_30_39_8438530
0.199219	-0.196289	0.764648	-0.815566	-0.693700	-0.403096	-0.187500	0.351563	0.433594	528	16_30_39_8599820
0.187500	-0.193359	0.770508	-0.815566	-0.693700	-0.403096	-0.035156	0.445313	0.468750	529	16_30_39_8761110
0.190430	-0.196289	0.764648	-0.815566	-0.693700	-0.403096	-0.175781	0.386719	0.398438	530	16_30_39_8922400
0.193359	-0.199219	0.761719	-0.815566	-0.684325	-0.403096	-0.187500	0.386719	0.433594	531	16_30_39_9083690
0.202148	-0.199219	0.761719	-0.815566	-0.693700	-0.403096	0.140625	0.667969	0.503906	532	16_30_39_9244980
0.193359	-0.178711	0.764648	-0.806191	-0.693700	-0.403096	-0.187500	0.375000	0.457031	533	16_30_39_9406270
0.196289	-0.199219	0.770508	-0.806191	-0.693700	-0.403096	-0.164063	0.351563	0.468750	534	16_30_39_9567560
0.210938	-0.190430	0.770508	-0.806191	-0.693700	-0.403096	-0.175781	0.339844	0.503906	535	16_30_39_9728850
0.196289	-0.187500	0.770508	-0.806191	-0.693700	-0.403096	-0.199219	0.351563	0.468750	536	16_30_39_9890140
0.199219	-0.196289	0.770508	-0.815566	-0.693700	-0.403096	-0.222656	0.351563	0.445313	537	16_30_40_0051430
0.193359	-0.196289	0.770508	-0.815566	-0.693700	-0.403096	-0.175781	0.328125	0.457031	538	16_30_40_0212720
0.184570	-0.193359	0.770508	-0.806191	-0.693700	-0.393721	-0.187500	0.328125	0.457031	539	16_30_40_0374010
0.205078	-0.196289	0.758789	-0.815566	-0.693700	-0.403096	-0.058594	0.457031	0.503906	540	16_30_40_0535300
0.187500	-0.190430	0.758789	-0.815566	-0.693700	-0.393721	0.023438	0.539063	0.457031	541	16_30_40_0696590
0.199219	-0.178711	0.773438	-0.806191	-0.684325	-0.403096	-0.093750	0.398438	0.515625	542	16_30_40_0857880
0.199219	-0.193359	0.761719	-0.806191	-0.693700	-0.403096	-0.187500	0.363281	0.527344	543	16_30_40_1019170
0.193359	-0.184570	0.776367	-0.815566	-0.684325	-0.403096	-0.164063	0.375000	0.480469	544	16_30_40_1180460
0.187500	-0.187500	0.770508	-0.806191	-0.684325	-0.403096	-0.199219	0.351563	0.492188	545	16_30_40_1341750
0.193359	-0.184570	0.758789	-0.815566	-0.693700	-0.412470	-0.128906	0.433594	0.492188	546	16_30_40_1503040
0.202148	-0.187500	0.770508	-0.815566	-0.684325	-0.403096	-0.187500	0.386719	0.492188	547	16_30_40_1664330
0.199219	-0.193359	0.770508	-0.806191	-0.693700	-0.403096	-0.222656	0.386719	0.468750	548	16_30_40_1825620
0.193359	-0.190430	0.770508	-0.815566	-0.693700	-0.403096	-0.093750	0.457031	0.515625	549	16_30_40_1986910
0.196289	-0.196289	0.782227	-0.806191	-0.684325	-0.403096	-0.199219	0.375000	0.492188	550	16_30_40_2148200
0.196289	-0.199219	0.776367	-0.815566	-0.684325	-0.403096	-0.187500	0.351563	0.468750	551	16_30_40_2309490
0.193359	-0.190430	0.761719	-0.815566	-0.684325	-0.403096	-0.152344	0.363281	0.421875	552	16_30_40_2470780
0.184570	-0.187500	0.767578	-0.806191	-0.684325	-0.403096	0.140625	0.562500	0.550781	553	16_30_40_2632070
0.199219	-0.187500	0.764648	-0.806191	-0.684325	-0.403096	-0.199219	0.351563	0.527344	554	16_30_40_2793360
0.187500	-0.193359	0.764648	-0.815566	-0.684325	-0.412470	-0.187500	0.375000	0.480469	555	16_30_40_2954650
0.181641	-0.187500	0.770508	-0.815566	-0.684325	-0.403096	-0.199219	0.351563	0.457031	556	16_30_40_3115940
0.190430	-0.187500	0.773438	-0.815566	-0.684325	-0.403096	-0.199219	0.363281	0.503906	557	16_30_40_3277230
0.196289	-0.196289	0.761719	-0.815566	-0.693700	-0.403096	-0.187500	0.339844	0.503906	558	16_30_40_3438520
0.187500	-0.184570	0.770508	-0.806191	-0.693700	-0.403096	-0.175781	0.375000	0.515625	559	16_30_40_3599810
0.187500	-0.196289	0.770508	-0.815566	-0.693700	-0.403096	-0.199219	0.375000	0.445313	560	16_30_40_3761100
0.187500	-0.178711	0.767578	-0.806191	-0.693700	-0.403096	-0.175781	0.386719	0.468750	561	16_30_40_3922390
0.187500	-0.202148	0.770508	-0.815566	-0.693700	-0.403096	-0.199219	0.375000	0.457031	562	16_30_40_4083680
0.184570	-0.193359	0.767578	-0.806191	-0.693700	-0.403096	0.023438	0.550781	0.492188	563	16_30_40_4244970
0.187500	-0.196289	0.773438	-0.815566	-0.693700	-0.403096	-0.199219	0.351563	0.492188	564	16_30_40_4406260
0.193359	-0.199219	0.770508	-0.815566	-0.693700	-0.403096	0.152344	0.738281	0.492188	565	16_30_40_4567550
0.187500	-0.190430	0.770508	-0.806191	-0.693700	-0.403096	-0.199219	0.375000	0.457031	566	16_30_40_4728840
0.193359	-0.199219	0.764648	-0.806191	-0.693700	-0.403096	-0.222656	0.375000	0.515625	567	16_30_40_4890130
0.196289	-0.187500	0.764648	-0.806191	-0.693700	-0.403096	-0.105469	0.421875	0.515625	568	16_30_40_5051420
0.184570	-0.190430	0.761719	-0.806191	-0.693700	-0.403096	-0.175781	0.386719	0.457031	569	16_30_40_5212710
0.210938	-0.190430	0.776367	-0.815566	-0.693700	-0.403096	-0.187500	0.363281	0.433594	570	16_30_40_5374000
0.196289	-0.190430	0.773438	-0.806191	-0.693700	-0.403096	-0.187500	0.375000	0.410156	571	16_30_40_5535290
0.202148	-0.187500	0.764648	-0.806191	-0.693700	-0.412470	-0.187500	0.375000	0.457031	572	16_30_40_5696580
0.202148	-0.181641	0.767578	-0.806191	-0.693700	-0.403096	-0.210938	0.351563	0.515625	573	16_30_40_5857870
0.202148	-0.187500	0.764648	-0.806191	-0.693700	-0.403096	-0.210938	0.351563	0.457031	574	16_30_40_6019160
0.196289	-0.208008	0.764648	-0.806191	-0.693700	-0.403096	-0.164063	0.375000	0.457031	575	16_30_40_6180450
0.199219	-0.193359	0.761719	-0.815566	-0.693700	-0.403096	-0.199219	0.386719	0.492188	576	16_30_40_6341740
0.202148	-0.187500	0.764648	-0.806191	-0.684325	-0.403096	-0.199219	0.375000	0.515625	577	16_30_40_6503030
0.193359	-0.190430	0.770508	-0.806191	-0.684325	-0.403096	-0.164063	0.363281	0.503906	578	16_30_40_6664320
0.193359	-0.184570	0.770508	-0.815566	-0.693700	-0.393721	-0.164063	0.375000	0.421875	579	16_30_40_6825610
0.196289	-0.187500	0.767578	-0.815566	-0.693700	-0.403096	-0.175781	0.386719	0.421875	580	16_30_40_6986900
0.193359	-0.184570	0.773438	-0.815566	-0.693700	-0.393721	-0.199219	0.375000	0.480469	581	16_30_40_7148190
0.196289	-0.196289	0.761719	-0.806191	-0.684325	-0.403096	-0.175781	0.316406	0.503906	582	16_30_40_7309480
0.190430	-0.181641	0.764648	-0.815566	-0.684325	-0.403096	-0.199219	0.304688	0.503906	583	16_30_40_7470770
0.199219	-0.190430	0.755859	-0.815566	-0.693700	-0.403096	-0.175781	0.351563	0.480469	584	16_30_40_7632060
0.190430	-0.187500	0.770508	-0.815566	-0.693700	-0.403096	-0.187500	0.339844	0.445313	585	16_30_40_7793350
0.184570	-0.190430	0.752930	-0.796817	-0.684325	-0.403096	-0.187500	0.363281	0.421875	586	16_30_40_7954640
0.190430	-0.190430	0.764648	-0.806191	-0.684325	-0.403096	-0.199219	0.386719	0.433594	587	16_30_40_8115930
0.199219	-0.193359	0.764648	-0.815566	-0.693700	-0.403096	-0.210938	0.386719	0.468750	588	16_30_40_8277220
0.184570	-0.193359	0.770508	-0.815566	-0.693700	-0.403096	-0.199219	0.375000	0.457031	589	16_30_40_8438510
0.196289	-0.187500	0.770508	-0.806191	-0.693700	-0.403096	-0.164063	0.351563	0.421875	590	16_30_40_8599800
0.199219	-0.190430	0.761719	-0.815566	-0.693700	-0.403096	-0.210938	0.351563	0.410156	591	16_30_40_8761090
0.199219	-0.199219	0.767578	-0.806191	-0.693700	-0.403096	-0.175781	0.328125	0.410156	592	16_30_40_8922380
0.193359	-0.190430	0.761719	-0.824940	-0.693700	-0.403096	0.011719	0.550781	0.433594	593	16_30_40_9083670
0.199219	-0.184570	0.758789	-0.806191	-0.693700	-0.403096	-0.187500	0.386719	0.480469	594	16_30_40_9244960
0.202148	-0.187500	0.761719	-0.815566	-0.693700	-0.403096	-0.164063	0.375000	0.503906	595	16_30_40_9406250
0.199219	-0.178711	0.773438	-0.815566	-0.693700	-0.403096	-0.187500	0.363281	0.445313	596	16_30_40_9567540
0.193359	-0.187500	0.761719	-0.806191	-0.693700	-0.403096	-0.175781	0.386719	0.410156	597	16_30_40_9728830
0.193359	-0.187500	0.764648	-0.806191	-0.693700	-0.403096	-0.187500	0.375000	0.445313	598	16_30_40_9890120
0.193359	-0.187500	0.761719	-0.806191	-0.693700	-0.403096	-0.164063	0.375000	0.433594	599	16_30_41_0051410
0.190430	-0.199219	0.776367	-0.815566	-0.693700	-0.403096	-0.164063	0.386719	0.410156	600	16_30_41_0212700
0.193359	-0.193359	0.764648	-0.815566	-0.693700	-0.403096	-0.164063	0.375000	0.433594	601	16_30_41_0373990
0.190430	-0.193359	0.767578	-0.806191	-0.693700	-0.403096	-0.199219	0.363281	0.433594	602	16_30_41_0535280
0.190430	-0.181641	0.764648	-0.796817	-0.693700	-0.393721	-0.199219	0.351563	0.492188	603	16_30_41_0696570
0.196289	-0.175781	0.767578	-0.815566	-0.693700	-0.403096	-0.011719	0.468750	0.515625	604	16_30_41_0857860
0.199219	-0.187500	0.770508	-0.806191	-0.693700	-0.403096	-0.199219	0.386719	0.421875	605	16_30_41_1019150
0.196289	-0.190430	0.761719	-0.806191	-0.684325	-0.403096	-0.222656	0.386719	0.421875	606	16_30_41_1180440
0.184570	-0.187500	0.767578	-0.806191	-0.693700	-0.403096	-0.187500	0.386719	0.457031	607	16_30_41_1341730
0.193359	-0.199219	0.764648	-0.815566	-0.693700	-0.403096	-0.175781	0.363281	0.468750	608	16_30_41_1503020
0.193359	-0.181641	0.752930	-0.806191	-0.693700	-0.403096	-0.199219	0.304688	0.445313	609	16_30_41_1664310
0.202148	-0.193359	0.767578	-0.815566	-0.693700	-0.403096	-0.187500	0.328125	0.492188	610	16_30_41_1825600
0.196289	-0.196289	0.770508	-0.815566	-0.693700	-0.403096	-0.199219	0.386719	0.480469	611	16_30_41_1986890
0.193359	-0.193359	0.764648	-0.815566	-0.693700	-0.403096	-0.187500	0.398438	0.457031	612	16_30_41_2148180
0.190430	-0.196289	0.770508	-0.806191	-0.693700	-0.403096	-0.199219	0.386719	0.457031	613	16_30_41_2309470
0.205078	-0.193359	0.776367	-0.815566	-0.693700	-0.403096	-0.175781	0.398438	0.503906	614	16_30_41_2470760
0.193359	-0.193359	0.770508	-0.806191	-0.693700	-0.403096	-0.187500	0.375000	0.457031	615	16_30_41_2632050
0.193359	-0.193359	0.761719	-0.815566	-0.693700	-0.403096	-0.199219	0.351563	0.398438	616	16_30_41_2793340
0.196289	-0.190430	0.767578	-0.806191	-0.684325	-0.403096	0.152344	0.761719	0.457031	617	16_30_41_2954630
0.210938	-0.190430	0.770508	-0.806191	-0.693700	-0.403096	-0.187500	0.386719	0.457031	618	16_30_41_3115920
0.187500	-0.187500	0.764648	-0.815566	-0.684325	-0.403096	-0.152344	0.421875	0.421875	619	16_30_41_3277210
0.193359	-0.196289	0.770508	-0.806191	-0.693700	-0.403096	-0.164063	0.386719	0.363281	620	16_30_41_3438500
0.193359	-0.187500	0.764648	-0.806191	-0.684325	-0.403096	-0.210938	0.363281	0.375000	621	16_30_41_3599790
0.193359	-0.199219	0.761719	-0.815566	-0.693700	-0.393721	-0.199219	0.375000	0.421875	622	16_30_41_3761080
0.184570	-0.190430	0.761719	-0.806191	-0.693700	-0.403096	-0.187500	0.375000	0.410156	623	16_30_41_3922370
0.196289	-0.199219	0.770508	-0.806191	-0.684325	-0.403096	-0.210938	0.375000	0.421875	624	16_30_41_4083660
0.193359	-0.190430	0.761719	-0.806191	-0.684325	-0.403096	-0.222656	0.351563	0.457031	625	16_30_41_4244950
0.193359	-0.187500	0.767578	-0.815566	-0.693700	-0.403096	-0.199219	0.386719	0.445313	626	16_30_41_4406240
0.190430	-0.190430	0.773438	-0.806191	-0.693700	-0.403096	-0.187500	0.363281	0.410156	627	16_30_41_4567530
0.199219	-0.187500	0.761719	-0.815566	-0.693700	-0.403096	-0.210938	0.375000	0.433594	628	16_30_41_4728820
0.190430	-0.193359	0.761719	-0.815566	-0.693700	-0.403096	-0.175781	0.375000	0.457031	629	16_30_41_4890110
0.196289	-0.187500	0.770508	-0.806191	-0.693700	-0.403096	-0.175781	0.351563	0.457031	630	16_30_41_5051400
0.181641	-0.196289	0.767578	-0.815566	-0.693700	-0.403096	-0.164063	0.351563	0.457031	631	16_30_41_5212690
0.193359	-0.193359	0.761719	-0.815566	-0.693700	-0.403096	-0.210938	0.351563	0.574219	632	16_30_41_5373980
0.199219	-0.187500	0.770508	-0.806191	-0.693700	-0.403096	-0.199219	0.375000	0.527344	633	16_30_41_5535270
0.196289	-0.187500	0.761719	-0.815566	-0.693700	-0.403096	-0.011719	0.515625	0.457031	634	16_30_41_5696560
0.205078	-0.190430	0.770508	-0.815566	-0.693700	-0.403096	-0.210938	0.339844	0.468750	635	16_30_41_5857850
0.196289	-0.193359	0.770508	-0.815566	-0.693700	-0.403096	-0.175781	0.328125	0.457031	636	16_30_41_6019140
0.202148	-0.196289	0.764648	-0.806191	-0.684325	-0.412470	0.175781	0.550781	0.609375	637	16_30_41_6180430
0.193359	-0.193359	0.764648	-0.815566	-0.693700	-0.403096	-0.187500	0.375000	0.433594	638	16_30_41_6341720
0.187500	-0.187500	0.764648	-0.806191	-0.693700	-0.403096	0.000000	0.527344	0.480469	639	16_30_41_6503010
0.202148	-0.184570	0.770508	-0.815566	-0.693700	-0.403096	-0.164063	0.386719	0.421875	640	16_30_41_6664300
0.190430	-0.202148	0.764648	-0.815566	-0.693700	-0.403096	-0.199219	0.351563	0.445313	641	16_30_41_6825590
0.199219	-0.196289	0.764648	-0.806191	-0.693700	-0.403096	-0.187500	0.375000	0.515625	642	16_30_41_6986880
0.193359	-0.187500	0.770508	-0.815566	-0.693700	-0.403096	-0.187500	0.375000	0.515625	643	16_30_41_7148170
0.193359	-0.193359	0.770508	-0.815566	-0.693700	-0.403096	-0.199219	0.363281	0.457031	644	16_30_41_7309460
0.202148	-0.181641	0.773438	-0.806191	-0.684325	-0.403096	-0.082031	0.398438	0.433594	645	16_30_41_7470750
0.196289	-0.181641	0.761719	-0.815566	-0.693700	-0.403096	-0.222656	0.351563	0.421875	646	16_30_41_7632040
0.202148	-0.190430	0.764648	-0.815566	-0.693700	-0.403096	-0.175781	0.410156	0.445313	647	16_30_41_7793330
0.199219	-0.184570	0.770508	-0.806191	-0.693700	-0.403096	-0.222656	0.386719	0.433594	648	16_30_41_7954620
0.196289	-0.193359	0.764648	-0.806191	-0.693700	-0.403096	-0.199219	0.375000	0.457031	649	16_30_41_8115910
0.199219	-0.196289	0.761719	-0.815566	-0.693700	-0.403096	-0.199219	0.386719	0.457031	650	16_30_41_8277200
0.193359	-0.193359	0.770508	-0.815566	-0.693700	-0.403096	-0.128906	0.503906	0.609375	651	16_30_41_8438490
0.193359	-0.193359	0.770508	-0.806191	-0.693700	-0.403096	-0.175781	0.316406	0.515625	652	16_30_41_8599780
0.193359	-0.193359	0.770508	-0.815566	-0.693700	-0.403096	-0.164063	0.328125	0.468750	653	16_30_41_8761070
0.190430	-0.193359	0.761719	-0.815566	-0.693700	-0.403096	-0.082031	0.421875	0.515625	654	16_30_41_8922360
0.190430	-0.187500	0.761719	-0.806191	-0.693700	-0.412470	-0.175781	0.386719	0.515625	655	16_30_41_9083650
0.193359	-0.187500	0.773438	-0.806191	-0.693700	-0.403096	-0.187500	0.375000	0.527344	656	16_30_41_9244940
0.196289	-0.190430	0.770508	-0.815566	-0.693700	-0.403096	-0.175781	0.363281	0.492188	657	16_30_41_9406230
0.202148	-0.187500	0.764648	-0.806191	-0.693700	-0.403096	-0.187500	0.375000	0.398438	658	16_30_41_9567520
0.199219	-0.196289	0.767578	-0.806191	-0.693700	-0.403096	-0.187500	0.351563	0.421875	659	16_30_41_9728810
0.205078	-0.184570	0.764648	-0.815566	-0.693700	-0.403096	-0.164063	0.363281	0.445313	660	16_30_41_9890100
0.199219	-0.193359	0.764648	-0.815566	-0.693700	-0.403096	-0.105469	0.585938	0.609375	661	16_30_42_0051390
0.193359	-0.193359	0.770508	-0.815566	-0.693700	-0.403096	-0.187500	0.375000	0.480469	662	16_30_42_0212680
0.181641	-0.193359	0.770508	-0.815566	-0.693700	-0.403096	-0.187500	0.351563	0.492188	663	16_30_42_0373970
0.202148	-0.190430	0.761719	-0.815566	-0.693700	-0.403096	-0.175781	0.375000	0.492188	664	16_30_42_0535260
0.199219	-0.184570	0.761719	-0.806191	-0.693700	-0.403096	-0.199219	0.363281	0.515625	665	16_30_42_0696550
0.199219	-0.196289	0.764648	-0.815566	-0.693700	-0.403096	-0.187500	0.386719	0.457031	666	16_30_42_0857840
0.187500	-0.196289	0.770508	-0.815566	-0.693700	-0.403096	-0.175781	0.386719	0.468750	667	16_30_42_1019130
0.193359	-0.187500	0.767578	-0.815566	-0.693700	-0.403096	-0.152344	0.398438	0.457031	668	16_30_42_1180420
0.196289	-0.193359	0.764648	-0.806191	-0.693700	-0.403096	-0.199219	0.375000	0.433594	669	16_30_42_1341710
0.193359	-0.190430	0.770508	-0.815566	-0.693700	-0.403096	-0.187500	0.351563	0.445313	670	16_30_42_1503000
0.196289	-0.190430	0.767578	-0.815566	-0.693700	-0.403096	-0.175781	0.515625	0.703125	671	16_30_42_1664290
0.181641	-0.187500	0.770508	-0.806191	-0.693700	-0.403096	-0.199219	0.386719	0.468750	672	16_30_42_1825580
0.199219	-0.184570	0.761719	-0.815566	-0.693700	-0.403096	-0.175781	0.386719	0.550781	673	16_30_42_1986870
0.193359	-0.193359	0.770508	-0.806191	-0.693700	-0.403096	-0.187500	0.386719	0.492188	674	16_30_42_2148160
0.193359	-0.193359	0.764648	-0.815566	-0.693700	-0.403096	-0.035156	0.457031	0.550781	675	16_30_42_2309450
0.193359	-0.193359	0.770508	-0.815566	-0.684325	-0.403096	-0.011719	0.457031	0.527344	676	16_30_42_2470740
0.190430	-0.187500	0.770508	-0.815566	-0.693700	-0.403096	-0.199219	0.375000	0.410156	677	16_30_42_2632030
0.193359	-0.181641	0.770508	-0.787443	-0.693700	-0.403096	-0.164063	0.351563	0.398438	678	16_30_42_2793320
0.193359	-0.193359	0.767578	-0.815566	-0.693700	-0.403096	-0.175781	0.328125	0.386719	679	16_30_42_2954610
0.193359	-0.193359	0.767578	-0.815566	-0.693700	-0.403096	0.105469	0.703125	0.445313	680	16_30_42_3115900
0.193359	-0.181641	0.770508	-0.815566	-0.693700	-0.403096	-0.222656	0.386719	0.363281	681	16_30_42_3277190
0.199219	-0.193359	0.761719	-0.815566	-0.693700	-0.403096	-0.105469	0.421875	0.410156	682	16_30_42_3438480
0.202148	-0.190430	0.770508	-0.815566	-0.693700	-0.403096	-0.199219	0.363281	0.492188	683	16_30_42_3599770
0.172852	-0.187500	0.776367	-0.815566	-0.693700	-0.403096	-0.175781	0.375000	0.468750	684	16_30_42_3761060
0.202148	-0.193359	0.770508	-0.815566	-0.693700	-0.403096	-0.187500	0.386719	0.480469	685	16_30_42_3922350
0.190430	-0.193359	0.764648	-0.806191	-0.693700	-0.403096	-0.199219	0.386719	0.468750	686	16_30_42_4083640
0.190430	-0.193359	0.767578	-0.815566	-0.693700	-0.403096	-0.199219	0.386719	0.421875	687	16_30_42_4244930
0.199219	-0.193359	0.764648	-0.815566	-0.693700	-0.403096	-0.199219	0.375000	0.433594	688	16_30_42_4406220
0.208008	-0.184570	0.761719	-0.806191	-0.684325	-0.403096	-0.199219	0.363281	0.410156	689	16_30_42_4567510
0.202148	-0.196289	0.764648	-0.815566	-0.693700	-0.403096	-0.187500	0.351563	0.457031	690	16_30_42_4728800
0.202148	-0.184570	0.770508	-0.806191	-0.684325	-0.403096	-0.199219	0.304688	0.539063	691	16_30_42_4890090
0.193359	-0.184570	0.770508	-0.815566	-0.684325	-0.403096	-0.164063	0.375000	0.515625	692	16_30_42_5051380
0.199219	-0.187500	0.764648	-0.815566	-0.684325	-0.403096	-0.199219	0.375000	0.480469	693	16_30_42_5212670
0.190430	-0.190430	0.761719	-0.815566	-0.693700	-0.403096	-0.199219	0.386719	0.468750	694	16_30_42_5373960
0.190430	-0.196289	0.770508	-0.815566	-0.693700	-0.403096	-0.164063	0.398438	0.433594	695	16_30_42_5535250
0.202148	-0.187500	0.764648	-0.806191	-0.693700	-0.403096	-0.246094	0.386719	0.386719	696	16_30_42_5696540
0.193359	-0.205078	0.764648	-0.815566	-0.693700	-0.403096	-0.199219	0.386719	0.363281	697	16_30_42_5857830
0.196289	-0.193359	0.761719	-0.815566	-0.693700	-0.403096	-0.222656	0.386719	0.410156	698	16_30_42_6019120
0.187500	-0.184570	0.770508	-0.806191	-0.693700	-0.403096	-0.199219	0.386719	0.492188	699	16_30_42_6180410
0.196289	-0.196289	0.764648	-0.815566	-0.693700	-0.403096	0.152344	0.667969	0.480469	700	16_30_42_6341700
0.190430	-0.193359	0.770508	-0.806191	-0.693700	-0.403096	-0.152344	0.363281	0.375000	701	16_30_42_6502990
0.190430	-0.187500	0.767578	-0.806191	-0.693700	-0.403096	-0.199219	0.398438	0.386719	702	16_30_42_6664280
0.193359	-0.190430	0.770508	-0.806191	-0.693700	-0.403096	-0.199219	0.492188	0.550781	703	16_30_42_6825570
0.190430	-0.193359	0.773438	-0.815566	-0.693700	-0.403096	-0.199219	0.351563	0.421875	704	16_30_42_6986860
0.190430	-0.190430	0.764648	-0.806191	-0.684325	-0.403096	-0.210938	0.351563	0.468750	705	16_30_42_7148150
0.184570	-0.205078	0.758789	-0.815566	-0.693700	-0.403096	-0.058594	0.468750	0.574219	706	16_30_42_7309440
0.190430	-0.190430	0.764648	-0.815566	-0.693700	-0.412470	-0.199219	0.363281	0.562500	707	16_30_42_7470730
0.193359	-0.187500	0.767578	-0.815566	-0.693700	-0.403096	-0.199219	0.375000	0.539063	708	16_30_42_7632020
0.190430	-0.187500	0.770508	-0.806191	-0.693700	-0.403096	-0.199219	0.363281	0.410156	709	16_30_42_7793310
0.205078	-0.193359	0.767578	-0.815566	-0.693700	-0.403096	-0.199219	0.375000	0.433594	710	16_30_42_7954600
0.202148	-0.193359	0.776367	-0.796817	-0.684325	-0.403096	-0.164063	0.375000	0.468750	711	16_30_42_8115890
0.202148	-0.196289	0.761719	-0.815566	-0.693700	-0.403096	-0.175781	0.363281	0.457031	712	16_30_42_8277180
0.190430	-0.196289	0.764648	-0.806191	-0.693700	-0.403096	-0.199219	0.339844	0.480469	713	16_30_42_8438470
0.199219	-0.187500	0.776367	-0.815566	-0.693700	-0.403096	-0.152344	0.375000	0.457031	714	16_30_42_8599760
0.199219	-0.199219	0.761719	-0.806191	-0.693700	-0.403096	-0.187500	0.363281	0.410156	715	16_30_42_8761050
0.178711	-0.184570	0.773438	-0.806191	-0.703074	-0.403096	-0.175781	0.386719	0.421875	716	16_30_42_8922340
0.178711	-0.184570	0.758789	-0.815566	-0.693700	-0.403096	0.011719	0.492188	0.480469	717	16_30_42_9083630
0.193359	-0.193359	0.764648	-0.815566	-0.693700	-0.403096	-0.187500	0.328125	0.421875	718	16_30_42_9244920
0.208008	-0.181641	0.770508	-0.815566	-0.693700	-0.403096	-0.199219	0.375000	0.433594	719	16_30_42_9406210
0.193359	-0.190430	0.770508	-0.815566	-0.693700	-0.403096	-0.187500	0.375000	0.515625	720	16_30_42_9567500
0.190430	-0.181641	0.767578	-0.806191	-0.693700	-0.403096	-0.199219	0.375000	0.457031	721	16_30_42_9728790
0.181641	-0.199219	0.767578	-0.815566	-0.693700	-0.403096	-0.187500	0.339844	0.375000	722	16_30_42_9890080
0.193359	-0.190430	0.764648	-0.806191	-0.693700	-0.403096	-0.187500	0.339844	0.398438	723	16_30_43_0051370
0.199219	-0.187500	0.761719	-0.815566	-0.693700	-0.403096	-0.210938	0.375000	0.468750	724	16_30_43_0212660
0.190430	-0.193359	0.764648	-0.815566	-0.693700	-0.403096	-0.187500	0.375000	0.457031	725	16_30_43_0373950
0.187500	-0.193359	0.773438	-0.815566	-0.693700	-0.403096	-0.199219	0.386719	0.410156	726	16_30_43_0535240
0.190430	-0.193359	0.761719	-0.806191	-0.684325	-0.403096	-0.210938	0.386719	0.492188	727	16_30_43_0696530
0.199219	-0.190430	0.770508	-0.815566	-0.693700	-0.403096	-0.175781	0.351563	0.527344	728	16_30_43_0857820
0.187500	-0.184570	0.767578	-0.806191	-0.693700	-0.403096	-0.199219	0.316406	0.468750	729	16_30_43_1019110
0.193359	-0.187500	0.770508	-0.806191	-0.693700	-0.403096	-0.187500	0.316406	0.445313	730	16_30_43_1180400
0.199219	-0.193359	0.761719	-0.815566	-0.693700	-0.403096	-0.164063	0.363281	0.398438	731	16_30_43_1341690
0.196289	-0.193359	0.767578	-0.806191	-0.693700	-0.403096	-0.222656	0.339844	0.480469	732	16_30_43_1502980
0.199219	-0.187500	0.761719	-0.796817	-0.684325	-0.403096	-0.199219	0.386719	0.457031	733	16_30_43_1664270
0.196289	-0.187500	0.776367	-0.815566	-0.693700	-0.403096	-0.210938	0.386719	0.398438	734	16_30_43_1825560
0.202148	-0.190430	0.767578	-0.815566	-0.684325	-0.403096	-0.187500	0.386719	0.539063	735	16_30_43_1986850
0.193359	-0.187500	0.770508	-0.815566	-0.684325	-0.403096	-0.199219	0.375000	0.457031	736	16_30_43_2148140
0.193359	-0.193359	0.767578	-0.815566	-0.684325	-0.403096	-0.199219	0.375000	0.398438	737	16_30_43_2309430
0.190430	-0.181641	0.758789	-0.815566	-0.693700	-0.403096	-0.199219	0.375000	0.421875	738	16_30_43_2470720
0.202148	-0.193359	0.767578	-0.815566	-0.693700	-0.403096	-0.199219	0.351563	0.433594	739	16_30_43_2632010
0.181641	-0.187500	0.770508	-0.806191	-0.693700	-0.403096	-0.046875	0.492188	0.457031	740	16_30_43_2793300
0.196289	-0.193359	0.770508	-0.806191	-0.693700	-0.403096	-0.199219	0.351563	0.515625	741	16_30_43_2954590
0.193359	-0.184570	0.770508	-0.815566	-0.693700	-0.403096	-0.199219	0.386719	0.457031	742	16_30_43_3115880
0.193359	-0.184570	0.770508	-0.806191	-0.693700	-0.403096	-0.199219	0.375000	0.410156	743	16_30_43_3277170
0.196289	-0.184570	0.758789	-0.806191	-0.693700	-0.403096	-0.199219	0.351563	0.468750	744	16_30_43_3438460
0.193359	-0.190430	0.761719	-0.806191	-0.693700	-0.403096	-0.175781	0.351563	0.433594	745	16_30_43_3599750
0.193359	-0.190430	0.773438	-0.815566	-0.693700	-0.403096	-0.199219	0.363281	0.421875	746	16_30_43_3761040
0.199219	-0.196289	0.776367	-0.815566	-0.693700	-0.403096	-0.058594	0.539063	0.527344	747	16_30_43_3922330
0.193359	-0.196289	0.764648	-0.815566	-0.693700	-0.403096	-0.199219	0.386719	0.480469	748	16_30_43_4083620
0.205078	-0.196289	0.767578	-0.815566	-0.684325	-0.403096	-0.011719	0.503906	0.433594	749	16_30_43_4244910
0.196289	-0.190430	0.764648	-0.815566	-0.693700	-0.403096	0.035156	0.515625	0.480469	750	16_30_43_4406200
0.196289	-0.199219	0.770508	-0.806191	-0.693700	-0.403096	-0.199219	0.386719	0.468750	751	16_30_43_4567490
0.190430	-0.187500	0.770508	-0.796817	-0.693700	-0.403096	-0.199219	0.386719	0.492188	752	16_30_43_4728780
0.187500	-0.190430	0.773438	-0.815566	-0.693700	-0.403096	-0.199219	0.386719	0.480469	753	16_30_43_4890070
0.196289	-0.181641	0.764648	-0.806191	-0.693700	-0.403096	-0.222656	0.386719	0.433594	754	16_30_43_5051360
0.190430	-0.193359	0.758789	-0.815566	-0.684325	-0.403096	-0.152344	0.398438	0.480469	755	16_30_43_5212650
0.193359	-0.199219	0.761719	-0.815566	-0.693700	-0.403096	-0.199219	0.363281	0.468750	756	16_30_43_5373940
0.181641	-0.187500	0.773438	-0.824940	-0.693700	-0.403096	0.000000	0.492188	0.468750	757	16_30_43_5535230
0.196289	-0.184570	0.770508	-0.815566	-0.693700	-0.403096	-0.187500	0.375000	0.433594	758	16_30_43_5696520
0.190430	-0.196289	0.761719	-0.815566	-0.693700	-0.403096	-0.187500	0.386719	0.445313	759	16_30_43_5857810
0.190430	-0.196289	0.758789	-0.815566	-0.693700	-0.403096	-0.070313	0.445313	0.457031	760	16_30_43_6019100
0.199219	-0.199219	0.758789	-0.815566	-0.693700	-0.403096	-0.199219	0.386719	0.386719	761	16_30_43_6180390
0.193359	-0.184570	0.764648	-0.806191	-0.693700	-0.403096	-0.199219	0.375000	0.433594	762	16_30_43_6341680
0.199219	-0.184570	0.764648	-0.806191	-0.693700	-0.403096	-0.222656	0.375000	0.457031	763	16_30_43_6502970
0.193359	-0.187500	0.770508	-0.815566	-0.693700	-0.403096	-0.210938	0.410156	0.468750	764	16_30_43_6664260
0.202148	-0.187500	0.761719	-0.815566	-0.693700	-0.403096	-0.128906	0.433594	0.468750	765	16_30_43_6825550
0.181641	-0.178711	0.767578	-0.806191	-0.693700	-0.403096	-0.210938	0.386719	0.433594	766	16_30_43_6986840
0.190430	-0.190430	0.773438	-0.815566	-0.693700	-0.403096	-0.105469	0.433594	0.468750	767	16_30_43_7148130
0.190430	-0.199219	0.770508	-0.815566	-0.693700	-0.403096	-0.164063	0.375000	0.421875	768	16_30_43_7309420
0.196289	-0.184570	0.764648	-0.806191	-0.693700	-0.403096	-0.199219	0.328125	0.410156	769	16_30_43_7470710
0.202148	-0.187500	0.764648	-0.815566	-0.693700	-0.403096	-0.199219	0.304688	0.433594	770	16_30_43_7632000
0.187500	-0.181641	0.770508	-0.806191	-0.693700	-0.403096	0.082031	0.457031	0.527344	771	16_30_43_7793290
0.193359	-0.184570	0.764648	-0.815566	-0.693700	-0.403096	-0.164063	0.375000	0.410156	772	16_30_43_7954580
0.193359	-0.193359	0.761719	-0.815566	-0.693700	-0.403096	-0.152344	0.351563	0.480469	773	16_30_43_8115870
0.202148	-0.193359	0.767578	-0.815566	-0.693700	-0.403096	-0.140625	0.398438	0.550781	774	16_30_43_8277160
0.187500	-0.193359	0.767578	-0.815566	-0.693700	-0.403096	-0.152344	0.621094	0.656250	775	16_30_43_8438450
0.190430	-0.193359	0.776367	-0.815566	-0.693700	-0.403096	-0.175781	0.457031	0.703125	776	16_30_43_8599740
0.193359	-0.196289	0.770508	-0.815566	-0.693700	-0.403096	-0.199219	0.375000	0.539063	777	16_30_43_8761030
0.190430	-0.181641	0.770508	-0.815566	-0.693700	-0.393721	-0.199219	0.351563	0.468750	778	16_30_43_8922320
0.202148	-0.184570	0.770508	-0.815566	-0.693700	-0.403096	-0.046875	0.457031	0.480469	779	16_30_43_9083610
0.190430	-0.190430	0.758789	-0.815566	-0.693700	-0.403096	-0.199219	0.386719	0.421875	780	16_30_43_9244900
0.205078	-0.187500	0.767578	-0.815566	-0.693700	-0.403096	-0.152344	0.386719	0.433594	781	16_30_43_9406190
0.193359	-0.187500	0.764648	-0.815566	-0.693700	-0.403096	-0.199219	0.304688	0.515625	782	16_30_43_9567480
0.184570	-0.187500	0.770508	-0.815566	-0.693700	-0.403096	0.187500	0.609375	0.644531	783	16_30_43_9728770
0.184570	-0.190430	0.770508	-0.806191	-0.693700	-0.403096	-0.199219	0.386719	0.421875	784	16_30_43_9890060
0.190430	-0.190430	0.761719	-0.815566	-0.693700	-0.403096	-0.175781	0.398438	0.375000	785	16_30_44_0051350
0.184570	-0.184570	0.770508	-0.815566	-0.693700	-0.403096	-0.140625	0.433594	0.433594	786	16_30_44_0212640
0.187500	-0.193359	0.770508	-0.815566	-0.684325	-0.403096	-0.058594	0.492188	0.515625	787	16_30_44_0373930
0.193359	-0.187500	0.773438	-0.815566	-0.693700	-0.403096	-0.187500	0.398438	0.398438	788	16_30_44_0535220
0.199219	-0.190430	0.764648	-0.815566	-0.693700	-0.403096	-0.187500	0.386719	0.339844	789	16_30_44_0696510
0.196289	-0.187500	0.773438	-0.824940	-0.693700	-0.403096	-0.011719	0.492188	0.398438	790	16_30_44_0857800
0.193359	-0.187500	0.773438	-0.815566	-0.693700	-0.403096	-0.164063	0.375000	0.410156	791	16_30_44_1019090
0.193359	-0.193359	0.770508	-0.815566	-0.693700	-0.403096	-0.199219	0.351563	0.445313	792	16_30_44_1180380
0.199219	-0.193359	0.764648	-0.806191	-0.693700	-0.403096	-0.175781	0.375000	0.515625	793	16_30_44_1341670
0.205078	-0.199219	0.770508	-0.806191	-0.693700	-0.403096	-0.175781	0.386719	0.562500	794	16_30_44_1502960
0.196289	-0.181641	0.773438	-0.778068	-0.693700	-0.403096	-0.222656	0.375000	0.527344	795	16_30_44_1664250
0.199219	-0.190430	0.758789	-0.815566	-0.693700	-0.403096	-0.199219	0.363281	0.421875	796	16_30_44_1825540
0.199219	-0.187500	0.764648	-0.806191	-0.693700	-0.403096	-0.222656	0.386719	0.457031	797	16_30_44_1986830
0.196289	-0.190430	0.764648	-0.815566	-0.693700	-0.403096	-0.175781	0.386719	0.503906	798	16_30_44_2148120
0.184570	-0.193359	0.767578	-0.806191	-0.684325	-0.403096	-0.199219	0.375000	0.480469	799	16_30_44_2309410
0.193359	-0.187500	0.767578	-0.815566	-0.693700	-0.403096	-0.164063	0.375000	0.468750	800	16_30_44_2470700
0.199219	-0.187500	0.773438	-0.806191	-0.684325	-0.403096	-0.199219	0.363281	0.433594	801	16_30_44_2631990
0.193359	-0.193359	0.764648	-0.806191	-0.693700	-0.403096	-0.175781	0.398438	0.445313	802	16_30_44_2793280
0.193359	-0.184570	0.761719	-0.806191	-0.693700	-0.403096	-0.234375	0.375000	0.445313	803	16_30_44_2954570
0.181641	-0.184570	0.761719	-0.815566	-0.693700	-0.403096	-0.199219	0.351563	0.457031	804	16_30_44_3115860
0.196289	-0.187500	0.761719	-0.806191	-0.693700	-0.403096	-0.175781	0.363281	0.410156	805	16_30_44_3277150
0.193359	-0.184570	0.764648	-0.815566	-0.693700	-0.403096	-0.128906	0.410156	0.421875	806	16_30_44_3438440
0.193359	-0.199219	0.770508	-0.815566	-0.693700	-0.403096	-0.187500	0.527344	0.527344	807	16_30_44_3599730
0.199219	-0.193359	0.767578	-0.815566	-0.693700	-0.403096	-0.140625	0.410156	0.480469	808	16_30_44_3761020
0.199219	-0.181641	0.767578	-0.806191	-0.693700	-0.403096	-0.210938	0.375000	0.445313	809	16_30_44_3922310
0.190430	-0.184570	0.764648	-0.806191	-0.693700	-0.403096	-0.210938	0.386719	0.421875	810	16_30_44_4083600
0.193359	-0.187500	0.761719	-0.815566	-0.693700	-0.403096	-0.222656	0.375000	0.457031	811	16_30_44_4244890
0.193359	-0.193359	0.770508	-0.806191	-0.684325	-0.403096	-0.175781	0.363281	0.457031	812	16_30_44_4406180
0.199219	-0.187500	0.767578	-0.806191	-0.693700	-0.403096	-0.164063	0.375000	0.410156	813	16_30_44_4567470
0.196289	-0.196289	0.773438	-0.806191	-0.684325	-0.403096	-0.175781	0.339844	0.421875	814	16_30_44_4728760
0.190430	-0.190430	0.761719	-0.815566	-0.693700	-0.403096	0.128906	0.679688	0.550781	815	16_30_44_4890050
0.193359	-0.178711	0.764648	-0.815566	-0.693700	-0.403096	-0.199219	0.386719	0.445313	816	16_30_44_5051340
0.202148	-0.193359	0.761719	-0.806191	-0.693700	-0.403096	-0.199219	0.386719	0.492188	817	16_30_44_5212630
0.202148	-0.193359	0.764648	-0.815566	-0.693700	-0.403096	-0.210938	0.386719	0.550781	818	16_30_44_5373920
0.190430	-0.193359	0.770508	-0.806191	-0.693700	-0.403096	-0.199219	0.375000	0.457031	819	16_30_44_5535210
0.193359	-0.181641	0.761719	-0.806191	-0.693700	-0.403096	-0.187500	0.351563	0.410156	820	16_30_44_5696500
0.193359	-0.193359	0.773438	-0.815566	-0.693700	-0.403096	-0.140625	0.339844	0.410156	821	16_30_44_5857790
0.196289	-0.187500	0.764648	-0.806191	-0.693700	-0.403096	-0.187500	0.339844	0.421875	822	16_30_44_6019080
0.199219	-0.196289	0.764648	-0.815566	-0.693700	-0.403096	-0.199219	0.328125	0.457031	823	16_30_44_6180370
0.190430	-0.184570	0.770508	-0.806191	-0.693700	-0.403096	-0.199219	0.316406	0.433594	824	16_30_44_6341660
0.193359	-0.190430	0.764648	-0.815566	-0.693700	-0.403096	-0.164063	0.351563	0.421875	825	16_30_44_6502950
0.196289	-0.199219	0.764648	-0.806191	-0.693700	-0.403096	-0.222656	0.328125	0.480469	826	16_30_44_6664240
0.190430	-0.190430	0.773438	-0.815566	-0.693700	-0.403096	-0.175781	0.351563	0.468750	827	16_30_44_6825530
0.193359	-0.184570	0.770508	-0.815566	-0.693700	-0.403096	-0.128906	0.562500	0.503906	828	16_30_44_6986820
0.190430	-0.181641	0.776367	-0.806191	-0.693700	-0.403096	-0.199219	0.363281	0.468750	829	16_30_44_7148110
0.202148	-0.187500	0.770508	-0.815566	-0.693700	-0.403096	-0.187500	0.351563	0.421875	830	16_30_44_7309400
0.193359	-0.184570	0.770508	-0.815566	-0.693700	-0.403096	-0.199219	0.386719	0.421875	831	16_30_44_7470690
0.193359	-0.187500	0.761719	-0.806191	-0.693700	-0.403096	-0.187500	0.363281	0.457031	832	16_30_44_7631980
0.187500	-0.190430	0.770508	-0.815566	-0.693700	-0.403096	-0.152344	0.339844	0.457031	833	16_30_44_7793270
0.193359	-0.187500	0.764648	-0.815566	-0.693700	-0.403096	-0.199219	0.386719	0.468750	834	16_30_44_7954560
0.193359	-0.187500	0.767578	-0.815566	-0.693700	-0.403096	-0.187500	0.386719	0.398438	835	16_30_44_8115850
0.193359	-0.190430	0.764648	-0.815566	-0.693700	-0.403096	0.046875	0.632813	0.562500	836	16_30_44_8277140
0.190430	-0.190430	0.770508	-0.806191	-0.693700	-0.403096	-0.175781	0.375000	0.433594	837	16_30_44_8438430
0.184570	-0.184570	0.770508	-0.806191	-0.693700	-0.403096	-0.199219	0.351563	0.480469	838	16_30_44_8599720
0.199219	-0.196289	0.770508	-0.815566	-0.693700	-0.403096	-0.199219	0.375000	0.644531	839	16_30_44_8761010
0.187500	-0.199219	0.770508	-0.806191	-0.693700	-0.403096	-0.175781	0.363281	0.445313	840	16_30_44_8922300
0.181641	-0.196289	0.764648	-0.815566	-0.693700	-0.403096	-0.210938	0.386719	0.457031	841	16_30_44_9083590
0.199219	-0.193359	0.773438	-0.815566	-0.693700	-0.403096	-0.210938	0.375000	0.433594	842	16_30_44_9244880
0.199219	-0.187500	0.764648	-0.815566	-0.693700	-0.403096	-0.199219	0.398438	0.421875	843	16_30_44_9406170
0.199219	-0.187500	0.767578	-0.815566	-0.693700	-0.403096	-0.175781	0.375000	0.457031	844	16_30_44_9567460
0.193359	-0.196289	0.767578	-0.815566	-0.693700	-0.403096	-0.187500	0.339844	0.492188	845	16_30_44_9728750
0.202148	-0.193359	0.764648	-0.815566	-0.693700	-0.403096	-0.175781	0.328125	0.492188	846	16_30_44_9890040
0.190430	-0.202148	0.761719	-0.806191	-0.693700	-0.412470	-0.199219	0.351563	0.433594	847	16_30_45_0051330
0.193359	-0.184570	0.764648	-0.806191	-0.693700	-0.403096	-0.187500	0.351563	0.398438	848	16_30_45_0212620
0.193359	-0.190430	0.758789	-0.824940	-0.693700	-0.403096	-0.082031	0.480469	0.433594	849	16_30_45_0373910
0.202148	-0.193359	0.764648	-0.815566	-0.693700	-0.403096	-0.175781	0.386719	0.433594	850	16_30_45_0535200
0.178711	-0.193359	0.776367	-0.815566	-0.693700	-0.403096	-0.164063	0.386719	0.480469	851	16_30_45_0696490
0.196289	-0.196289	0.770508	-0.806191	-0.693700	-0.403096	-0.187500	0.375000	0.457031	852	16_30_45_0857780
0.202148	-0.187500	0.773438	-0.815566	-0.684325	-0.403096	-0.175781	0.375000	0.445313	853	16_30_45_1019070
0.184570	-0.190430	0.761719	-0.806191	-0.684325	-0.403096	-0.199219	0.375000	0.457031	854	16_30_45_1180360
0.181641	-0.199219	0.752930	-0.815566	-0.693700	-0.403096	-0.187500	0.386719	0.457031	855	16_30_45_1341650
0.199219	-0.187500	0.770508	-0.815566	-0.693700	-0.403096	-0.187500	0.351563	0.421875	856	16_30_45_1502940
0.187500	-0.190430	0.764648	-0.815566	-0.693700	-0.403096	0.035156	0.691406	0.503906	857	16_30_45_1664230
0.193359	-0.184570	0.767578	-0.806191	-0.684325	-0.403096	-0.199219	0.351563	0.492188	858	16_30_45_1825520
0.190430	-0.178711	0.770508	-0.815566	-0.693700	-0.403096	-0.187500	0.386719	0.480469	859	16_30_45_1986810
0.202148	-0.193359	0.770508	-0.815566	-0.693700	-0.403096	-0.199219	0.386719	0.433594	860	16_30_45_2148100
0.190430	-0.193359	0.758789	-0.806191	-0.693700	-0.403096	-0.187500	0.375000	0.445313	861	16_30_45_2309390
0.190430	-0.190430	0.767578	-0.815566	-0.693700	-0.403096	-0.210938	0.363281	0.457031	862	16_30_45_2470680
0.202148	-0.187500	0.767578	-0.815566	-0.693700	-0.403096	-0.210938	0.386719	0.480469	863	16_30_45_2631970
0.193359	-0.181641	0.770508	-0.815566	-0.693700	-0.403096	-0.175781	0.386719	0.445313	864	16_30_45_2793260
0.196289	-0.184570	0.776367	-0.806191	-0.693700	-0.403096	-0.199219	0.375000	0.410156	865	16_30_45_2954550
0.190430	-0.199219	0.764648	-0.806191	-0.693700	-0.403096	0.128906	0.515625	0.527344	866	16_30_45_3115840
0.193359	-0.190430	0.776367	-0.815566	-0.693700	-0.403096	-0.187500	0.363281	0.398438	867	16_30_45_3277130
0.199219	-0.193359	0.779297	-0.815566	-0.693700	-0.403096	-0.210938	0.386719	0.375000	868	16_30_45_3438420
0.193359	-0.193359	0.758789	-0.815566	-0.693700	-0.403096	-0.199219	0.585938	0.527344	869	16_30_45_3599710
0.202148	-0.193359	0.764648	-0.806191	-0.693700	-0.403096	-0.187500	0.363281	0.480469	870	16_30_45_3761000
0.205078	-0.193359	0.770508	-0.815566	-0.693700	-0.403096	-0.187500	0.386719	0.457031	871	16_30_45_3922290
0.205078	-0.190430	0.767578	-0.815566	-0.693700	-0.403096	-0.199219	0.386719	0.410156	872	16_30_45_4083580
0.196289	-0.190430	0.761719	-0.806191	-0.693700	-0.403096	-0.175781	0.386719	0.410156	873	16_30_45_4244870
0.190430	-0.199219	0.770508	-0.806191	-0.684325	-0.403096	-0.199219	0.386719	0.468750	874	16_30_45_4406160
0.193359	-0.193359	0.764648	-0.815566	-0.693700	-0.403096	-0.175781	0.386719	0.421875	875	16_30_45_4567450
0.196289	-0.193359	0.767578	-0.815566	-0.693700	-0.403096	0.199219	0.656250	0.515625	876	16_30_45_4728740
0.190430	-0.190430	0.767578	-0.806191	-0.693700	-0.403096	-0.164063	0.375000	0.445313	877	16_30_45_4890030
0.193359	-0.196289	0.764648	-0.815566	-0.693700	-0.403096	-0.187500	0.375000	0.433594	878	16_30_45_5051320
0.190430	-0.193359	0.764648	-0.815566	-0.693700	-0.403096	-0.199219	0.386719	0.503906	879	16_30_45_5212610
0.187500	-0.187500	0.770508	-0.806191	-0.693700	-0.403096	-0.222656	0.375000	0.468750	880	16_30_45_5373900
0.199219	-0.193359	0.773438	-0.806191	-0.693700	-0.403096	-0.210938	0.351563	0.398438	881	16_30_45_5535190
0.184570	-0.196289	0.764648	-0.815566	-0.693700	-0.403096	-0.199219	0.339844	0.421875	882	16_30_45_5696480
0.190430	-0.193359	0.770508	-0.806191	-0.693700	-0.403096	-0.164063	0.363281	0.410156	883	16_30_45_5857770
0.196289	-0.190430	0.770508	-0.815566	-0.693700	-0.412470	-0.164063	0.375000	0.468750	884	16_30_45_6019060
0.193359	-0.184570	0.776367	-0.815566	-0.693700	-0.403096	-0.199219	0.363281	0.515625	885	16_30_45_6180350
0.199219	-0.193359	0.767578	-0.806191	-0.693700	-0.403096	0.023438	0.515625	0.527344	886	16_30_45_6341640
0.187500	-0.202148	0.770508	-0.815566	-0.693700	-0.403096	-0.199219	0.351563	0.433594	887	16_30_45_6502930
0.190430	-0.184570	0.764648	-0.815566	-0.693700	-0.403096	-0.199219	0.375000	0.492188	888	16_30_45_6664220
0.193359	-0.190430	0.773438	-0.806191	-0.693700	-0.403096	-0.152344	0.398438	0.515625	889	16_30_45_6825510
0.202148	-0.193359	0.761719	-0.806191	-0.693700	-0.403096	-0.199219	0.375000	0.457031	890	16_30_45_6986800
0.205078	-0.193359	0.764648	-0.815566	-0.693700	-0.403096	-0.164063	0.351563	0.421875	891	16_30_45_7148090
0.199219	-0.193359	0.761719	-0.806191	-0.693700	-0.403096	-0.187500	0.375000	0.421875	892	16_30_45_7309380
0.190430	-0.181641	0.764648	-0.815566	-0.693700	-0.403096	-0.164063	0.375000	0.410156	893	16_30_45_7470670
0.205078	-0.181641	0.755859	-0.806191	-0.693700	-0.403096	-0.175781	0.375000	0.445313	894	16_30_45_7631960
0.193359	-0.181641	0.764648	-0.806191	-0.693700	-0.403096	-0.175781	0.363281	0.492188	895	16_30_45_7793250
0.199219	-0.187500	0.770508	-0.806191	-0.693700	-0.403096	-0.199219	0.375000	0.457031	896	16_30_45_7954540
0.193359	-0.190430	0.776367	-0.815566	-0.693700	-0.403096	-0.175781	0.386719	0.410156	897	16_30_45_8115830
0.202148	-0.184570	0.770508	-0.806191	-0.693700	-0.403096	-0.199219	0.386719	0.375000	898	16_30_45_8277120
0.199219	-0.196289	0.758789	-0.815566	-0.693700	-0.403096	-0.187500	0.375000	0.445313	899	16_30_45_8438410
0.193359	-0.196289	0.761719	-0.806191	-0.693700	-0.403096	-0.199219	0.339844	0.457031	900	16_30_45_8599700
0.193359	-0.187500	0.770508	-0.815566	-0.693700	-0.403096	-0.187500	0.351563	0.445313	901	16_30_45_8760990
0.187500	-0.193359	0.770508	-0.815566	-0.684325	-0.403096	-0.105469	0.433594	0.480469	902	16_30_45_8922280
0.175781	-0.184570	0.761719	-0.815566	-0.684325	-0.403096	-0.035156	0.492188	0.468750	903	16_30_45_9083570
0.193359	-0.187500	0.770508	-0.815566	-0.684325	-0.403096	-0.187500	0.386719	0.445313	904	16_30_45_9244860
0.199219	-0.202148	0.767578	-0.815566	-0.693700	-0.403096	-0.187500	0.386719	0.421875	905	16_30_45_9406150
0.187500	-0.184570	0.767578	-0.815566	-0.693700	-0.403096	0.070313	0.562500	0.445313	906	16_30_45_9567440
0.199219	-0.193359	0.776367	-0.806191	-0.693700	-0.403096	-0.187500	0.339844	0.410156	907	16_30_45_9728730
0.190430	-0.190430	0.767578	-0.806191	-0.684325	-0.403096	-0.187500	0.351563	0.468750	908	16_30_45_9890020
0.193359	-0.190430	0.767578	-0.815566	-0.693700	-0.403096	-0.199219	0.386719	0.445313	909	16_30_46_0051310
0.193359	-0.181641	0.770508	-0.806191	-0.693700	-0.403096	-0.175781	0.375000	0.410156	910	16_30_46_0212600
0.199219	-0.181641	0.767578	-0.815566	-0.693700	-0.403096	-0.222656	0.351563	0.457031	911	16_30_46_0373890
0.202148	-0.193359	0.770508	-0.806191	-0.693700	-0.403096	-0.187500	0.363281	0.421875	912	16_30_46_0535180
0.193359	-0.193359	0.758789	-0.806191	-0.693700	-0.403096	-0.199219	0.375000	0.421875	913	16_30_46_0696470
0.193359	-0.190430	0.770508	-0.806191	-0.693700	-0.403096	-0.199219	0.375000	0.468750	914	16_30_46_0857760
0.202148	-0.193359	0.764648	-0.806191	-0.693700	-0.393721	-0.187500	0.386719	0.503906	915	16_30_46_1019050
0.187500	-0.193359	0.758789	-0.815566	-0.693700	-0.403096	0.070313	0.539063	0.539063	916	16_30_46_1180340
0.190430	-0.184570	0.773438	-0.806191	-0.684325	-0.393721	-0.164063	0.386719	0.445313	917	16_30_46_1341630
0.202148	-0.193359	0.758789	-0.815566	-0.693700	-0.403096	-0.199219	0.386719	0.410156	918	16_30_46_1502920
0.187500	-0.199219	0.758789	-0.806191	-0.693700	-0.403096	-0.164063	0.386719	0.398438	919	16_30_46_1664210
0.193359	-0.193359	0.776367	-0.806191	-0.684325	-0.403096	-0.187500	0.386719	0.445313	920	16_30_46_1825500
0.199219	-0.199219	0.773438	-0.806191	-0.684325	-0.403096	-0.164063	0.386719	0.457031	921	16_30_46_1986790
0.199219	-0.184570	0.770508	-0.815566	-0.684325	-0.403096	-0.175781	0.375000	0.550781	922	16_30_46_2148080
0.187500	-0.181641	0.761719	-0.806191	-0.693700	-0.403096	-0.199219	0.351563	0.398438	923	16_30_46_2309370
0.193359	-0.190430	0.770508	-0.815566	-0.693700	-0.403096	-0.199219	0.375000	0.433594	924	16_30_46_2470660
0.205078	-0.184570	0.770508	-0.815566	-0.693700	-0.403096	-0.210938	0.351563	0.492188	925	16_30_46_2631950
0.190430	-0.187500	0.761719	-0.815566	-0.684325	-0.403096	0.011719	0.480469	0.562500	926	16_30_46_2793240
0.196289	-0.187500	0.761719	-0.806191	-0.693700	-0.403096	-0.222656	0.316406	0.492188	927	16_30_46_2954530
0.190430	-0.184570	0.770508	-0.806191	-0.693700	-0.403096	-0.175781	0.398438	0.457031	928	16_30_46_3115820
0.193359	-0.196289	0.764648	-0.806191	-0.684325	-0.403096	-0.199219	0.398438	0.457031	929	16_30_46_3277110
0.193359	-0.196289	0.767578	-0.806191	-0.693700	-0.403096	-0.199219	0.386719	0.457031	930	16_30_46_3438400
0.193359	-0.193359	0.770508	-0.824940	-0.693700	-0.403096	-0.128906	0.667969	0.597656	931	16_30_46_3599690
0.196289	-0.193359	0.767578	-0.815566	-0.693700	-0.403096	-0.199219	0.363281	0.468750	932	16_30_46_3760980
0.193359	-0.190430	0.761719	-0.815566	-0.693700	-0.403096	-0.222656	0.351563	0.503906	933	16_30_46_3922270
0.199219	-0.193359	0.773438	-0.806191	-0.693700	-0.403096	-0.199219	0.351563	0.480469	934	16_30_46_4083560
0.202148	-0.193359	0.764648	-0.806191	-0.693700	-0.403096	-0.199219	0.351563	0.433594	935	16_30_46_4244850
0.190430	-0.184570	0.770508	-0.815566	-0.693700	-0.403096	-0.199219	0.316406	0.421875	936	16_30_46_4406140
0.199219	-0.199219	0.767578	-0.806191	-0.684325	-0.403096	-0.140625	0.398438	0.398438	937	16_30_46_4567430
0.196289	-0.199219	0.767578	-0.806191	-0.693700	-0.403096	-0.199219	0.386719	0.351563	938	16_30_46_4728720
0.187500	-0.196289	0.770508	-0.806191	-0.693700	-0.403096	-0.199219	0.375000	0.398438	939	16_30_46_4890010
0.193359	-0.193359	0.773438	-0.815566	-0.693700	-0.403096	-0.164063	0.410156	0.410156	940	16_30_46_5051300
0.199219	-0.199219	0.770508	-0.815566	-0.693700	-0.403096	-0.199219	0.386719	0.421875	941	16_30_46_5212590
0.196289	-0.187500	0.761719	-0.806191	-0.693700	-0.403096	-0.199219	0.375000	0.457031	942	16_30_46_5373880
0.190430	-0.199219	0.770508	-0.806191	-0.693700	-0.403096	-0.187500	0.363281	0.445313	943	16_30_46_5535170
0.196289	-0.187500	0.764648	-0.806191	-0.693700	-0.403096	-0.164063	0.375000	0.468750	944	16_30_46_5696460
0.193359	-0.187500	0.770508	-0.815566	-0.693700	-0.403096	-0.187500	0.375000	0.433594	945	16_30_46_5857750
0.193359	-0.193359	0.773438	-0.815566	-0.693700	-0.403096	-0.187500	0.351563	0.433594	946	16_30_46_6019040
0.199219	-0.199219	0.755859	-0.806191	-0.693700	-0.403096	-0.199219	0.386719	0.421875	947	16_30_46_6180330
0.193359	-0.190430	0.770508	-0.796817	-0.684325	-0.403096	-0.199219	0.398438	0.398438	948	16_30_46_6341620
0.190430	-0.184570	0.761719	-0.815566	-0.693700	-0.403096	-0.164063	0.375000	0.421875	949	16_30_46_6502910
0.196289	-0.196289	0.770508	-0.806191	-0.693700	-0.403096	-0.175781	0.328125	0.410156	950	16_30_46_6664200
0.202148	-0.184570	0.773438	-0.815566	-0.693700	-0.403096	-0.023438	0.597656	0.644531	951	16_30_46_6825490
0.193359	-0.187500	0.758789	-0.815566	-0.693700	-0.403096	-0.164063	0.597656	0.503906	952	16_30_46_6986780
0.190430	-0.190430	0.761719	-0.806191	-0.693700	-0.403096	-0.199219	0.375000	0.445313	953	16_30_46_7148070
0.187500	-0.193359	0.761719	-0.806191	-0.693700	-0.403096	-0.199219	0.386719	0.468750	954	16_30_46_7309360
0.193359	-0.187500	0.770508	-0.815566	-0.693700	-0.403096	-0.199219	0.386719	0.480469	955	16_30_46_7470650
0.205078	-0.193359	0.770508	-0.815566	-0.693700	-0.403096	-0.164063	0.386719	0.515625	956	16_30_46_7631940
0.193359	-0.187500	0.761719	-0.815566	-0.693700	-0.403096	-0.164063	0.375000	0.492188	957	16_30_46_7793230
0.190430	-0.196289	0.764648	-0.815566	-0.693700	-0.403096	-0.210938	0.328125	0.433594	958	16_30_46_7954520
0.205078	-0.190430	0.767578	-0.815566	-0.684325	-0.403096	0.152344	0.609375	0.480469	959	16_30_46_8115810
0.190430	-0.193359	0.764648	-0.815566	-0.693700	-0.403096	-0.187500	0.386719	0.457031	960	16_30_46_8277100
0.193359	-0.184570	0.770508	-0.815566	-0.693700	-0.403096	-0.175781	0.351563	0.445313	961	16_30_46_8438390
0.196289	-0.184570	0.770508	-0.806191	-0.684325	-0.403096	-0.187500	0.375000	0.421875	962	16_30_46_8599680
0.193359	-0.187500	0.761719	-0.806191	-0.693700	-0.403096	-0.199219	0.351563	0.421875	963	16_30_46_8760970
0.190430	-0.193359	0.761719	-0.806191	-0.693700	-0.403096	-0.175781	0.386719	0.433594	964	16_30_46_8922260
0.187500	-0.187500	0.761719	-0.806191	-0.693700	-0.403096	-0.199219	0.386719	0.421875	965	16_30_46_9083550
0.199219	-0.193359	0.776367	-0.806191	-0.693700	-0.403096	-0.175781	0.386719	0.457031	966	16_30_46_9244840
0.187500	-0.190430	0.770508	-0.815566	-0.693700	-0.403096	-0.199219	0.375000	0.492188	967	16_30_46_9406130
0.196289	-0.199219	0.773438	-0.796817	-0.693700	-0.403096	-0.187500	0.351563	0.480469	968	16_30_46_9567420
0.187500	-0.199219	0.767578	-0.815566	-0.693700	-0.403096	0.105469	0.656250	0.468750	969	16_30_46_9728710
0.202148	-0.193359	0.773438	-0.815566	-0.693700	-0.403096	-0.199219	0.375000	0.375000	970	16_30_46_9890000
0.193359	-0.187500	0.773438	-0.815566	-0.693700	-0.403096	-0.152344	0.398438	0.363281	971	16_30_47_0051290
0.193359	-0.187500	0.770508	-0.806191	-0.684325	-0.403096	-0.187500	0.351563	0.410156	972	16_30_47_0212580
0.199219	-0.193359	0.770508	-0.815566	-0.693700	-0.403096	-0.187500	0.339844	0.433594	973	16_30_47_0373870
0.193359	-0.184570	0.764648	-0.806191	-0.693700	-0.403096	-0.152344	0.316406	0.457031	974	16_30_47_0535160
0.196289	-0.196289	0.773438	-0.806191	-0.693700	-0.403096	-0.199219	0.292969	0.468750	975	16_30_47_0696450
0.190430	-0.190430	0.758789	-0.815566	-0.693700	-0.403096	-0.082031	0.492188	0.457031	976	16_30_47_0857740
0.202148	-0.187500	0.767578	-0.815566	-0.693700	-0.403096	-0.187500	0.375000	0.410156	977	16_30_47_1019030
0.193359	-0.187500	0.764648	-0.815566	-0.693700	-0.403096	-0.187500	0.351563	0.468750	978	16_30_47_1180320
0.184570	-0.199219	0.770508	-0.806191	-0.693700	-0.403096	-0.058594	0.468750	0.550781	979	16_30_47_1341610
0.193359	-0.196289	0.758789	-0.815566	-0.684325	-0.403096	-0.199219	0.363281	0.503906	980	16_30_47_1502900
0.190430	-0.187500	0.767578	-0.815566	-0.693700	-0.403096	-0.199219	0.375000	0.503906	981	16_30_47_1664190
0.193359	-0.184570	0.761719	-0.806191	-0.693700	-0.403096	-0.140625	0.363281	0.503906	982	16_30_47_1825480
0.196289	-0.184570	0.761719	-0.815566	-0.693700	-0.403096	-0.175781	0.363281	0.386719	983	16_30_47_1986770
0.193359	-0.193359	0.761719	-0.806191	-0.693700	-0.403096	-0.187500	0.375000	0.375000	984	16_30_47_2148060
0.202148	-0.190430	0.776367	-0.815566	-0.693700	-0.403096	-0.175781	0.351563	0.410156	985	16_30_47_2309350
0.202148	-0.193359	0.770508	-0.815566	-0.693700	-0.403096	-0.199219	0.339844	0.421875	986	16_30_47_2470640
0.193359	-0.196289	0.764648	-0.806191	-0.693700	-0.403096	-0.222656	0.351563	0.468750	987	16_30_47_2631930
0.202148	-0.196289	0.770508	-0.815566	-0.693700	-0.403096	-0.187500	0.351563	0.457031	988	16_30_47_2793220
0.193359	-0.193359	0.764648	-0.815566	-0.693700	-0.403096	-0.164063	0.386719	0.433594	989	16_30_47_2954510
0.196289	-0.190430	0.770508	-0.815566	-0.693700	-0.403096	-0.140625	0.375000	0.480469	990	16_30_47_3115800
0.199219	-0.190430	0.770508	-0.815566	-0.693700	-0.403096	-0.140625	0.410156	0.515625	991	16_30_47_3277090
0.199219	-0.184570	0.764648	-0.815566	-0.693700	-0.403096	-0.164063	0.386719	0.480469	992	16_30_47_3438380
0.208008	-0.187500	0.770508	-0.815566	-0.693700	-0.403096	-0.175781	0.386719	0.433594	993	16_30_47_3599670
0.190430	-0.181641	0.770508	-0.806191	-0.693700	-0.403096	-0.199219	0.386719	0.386719	994	16_30_47_3760960
0.199219	-0.193359	0.770508	-0.815566	-0.693700	-0.403096	-0.187500	0.375000	0.410156	995	16_30_47_3922250
0.190430	-0.190430	0.770508	-0.815566	-0.693700	-0.403096	-0.058594	0.421875	0.539063	996	16_30_47_4083540
0.193359	-0.193359	0.773438	-0.806191	-0.693700	-0.403096	-0.199219	0.351563	0.503906	997	16_30_47_4244830
0.193359	-0.193359	0.761719	-0.815566	-0.693700	-0.403096	-0.035156	0.492188	0.550781	998	16_30_47_4406120
0.190430	-0.184570	0.770508	-0.815566	-0.693700	-0.403096	-0.187500	0.386719	0.550781	999	16_30_47_4567410
0.196289	-0.181641	0.764648	-0.806191	-0.693700	-0.403096	-0.175781	0.386719	0.457031	1000	16_30_47_4728700
0.199219	-0.187500	0.770508	-0.815566	-0.693700	-0.403096	-0.175781	0.363281	0.375000	1001	16_30_47_4889990
0.208008	-0.199219	0.770508	-0.815566	-0.693700	-0.403096	-0.199219	0.328125	0.421875	1002	16_30_47_5051280
0.199219	-0.193359	0.764648	-0.806191	-0.684325	-0.403096	-0.175781	0.351563	0.457031	1003	16_30_47_5212570
0.193359	-0.190430	0.773438	-0.806191	-0.684325	-0.403096	-0.222656	0.339844	0.421875	1004	16_30_47_5373860
0.193359	-0.184570	0.764648	-0.806191	-0.684325	-0.403096	-0.210938	0.328125	0.433594	1005	16_30_47_5535150
0.181641	-0.193359	0.776367	-0.815566	-0.693700	-0.403096	-0.222656	0.375000	0.562500	1006	16_30_47_5696440
0.193359	-0.190430	0.770508	-0.815566	-0.674951	-0.403096	-0.187500	0.328125	0.468750	1007	16_30_47_5857730
0.193359	-0.190430	0.767578	-0.806191	-0.693700	-0.403096	-0.187500	0.339844	0.445313	1008	16_30_47_6019020
0.181641	-0.193359	0.770508	-0.806191	-0.693700	-0.403096	-0.199219	0.398438	0.433594	1009	16_30_47_6180310
0.190430	-0.193359	0.764648	-0.815566	-0.693700	-0.403096	-0.199219	0.363281	0.375000	1010	16_30_47_6341600
0.193359	-0.190430	0.770508	-0.815566	-0.693700	-0.403096	-0.175781	0.339844	0.386719	1011	16_30_47_6502890
0.190430	-0.199219	0.758789	-0.806191	-0.693700	-0.403096	-0.187500	0.386719	0.421875	1012	16_30_47_6664180
0.205078	-0.187500	0.764648	-0.806191	-0.693700	-0.403096	-0.187500	0.351563	0.480469	1013	16_30_47_6825470
0.202148	-0.190430	0.764648	-0.815566	-0.693700	-0.403096	-0.199219	0.316406	0.503906	1014	16_30_47_6986760
0.205078	-0.196289	0.764648	-0.815566	-0.693700	-0.403096	-0.187500	0.363281	0.480469	1015	16_30_47_7148050
0.190430	-0.187500	0.770508	-0.806191	-0.693700	-0.403096	-0.187500	0.386719	0.457031	1016	16_30_47_7309340
0.187500	-0.199219	0.767578	-0.815566	-0.693700	-0.403096	-0.222656	0.375000	0.457031	1017	16_30_47_7470630
0.193359	-0.190430	0.770508	-0.815566	-0.693700	-0.403096	-0.210938	0.386719	0.468750	1018	16_30_47_7631920
0.193359	-0.199219	0.770508	-0.806191	-0.693700	-0.403096	-0.082031	0.457031	0.433594	1019	16_30_47_7793210
0.205078	-0.187500	0.767578	-0.815566	-0.693700	-0.403096	0.070313	0.621094	0.421875	1020	16_30_47_7954500
0.205078	-0.193359	0.770508	-0.815566	-0.693700	-0.403096	-0.175781	0.375000	0.445313	1021	16_30_47_8115790
0.199219	-0.193359	0.767578	-0.815566	-0.693700	-0.403096	-0.199219	0.351563	0.480469	1022	16_30_47_8277080
0.190430	-0.193359	0.770508	-0.806191	-0.684325	-0.403096	-0.152344	0.398438	0.433594	1023	16_30_47_8438370
0.193359	-0.184570	0.761719	-0.806191	-0.684325	-0.403096	-0.199219	0.339844	0.433594	1024	16_30_47_8599660
0.193359	-0.193359	0.761719	-0.815566	-0.693700	-0.403096	-0.199219	0.585938	0.527344	1025	16_30_47_8760950
0.196289	-0.193359	0.761719	-0.806191	-0.693700	-0.403096	-0.175781	0.375000	0.468750	1026	16_30_47_8922240
0.193359	-0.193359	0.761719	-0.806191	-0.693700	-0.403096	-0.187500	0.351563	0.445313	1027	16_30_47_9083530
0.199219	-0.193359	0.767578	-0.806191	-0.693700	-0.403096	-0.210938	0.386719	0.433594	1028	16_30_47_9244820
0.190430	-0.193359	0.764648	-0.815566	-0.693700	-0.403096	-0.199219	0.386719	0.445313	1029	16_30_47_9406110
0.190430	-0.199219	0.770508	-0.806191	-0.693700	-0.403096	-0.210938	0.386719	0.457031	1030	16_30_47_9567400
0.193359	-0.196289	0.770508	-0.815566	-0.693700	-0.403096	-0.187500	0.386719	0.457031	1031	16_30_47_9728690
0.208008	-0.193359	0.761719	-0.815566	-0.693700	-0.403096	-0.187500	0.375000	0.503906	1032	16_30_47_9889980
0.193359	-0.181641	0.761719	-0.806191	-0.693700	-0.403096	-0.164063	0.375000	0.550781	1033	16_30_48_0051270
0.196289	-0.184570	0.770508	-0.815566	-0.693700	-0.403096	-0.199219	0.339844	0.457031	1034	16_30_48_0212560
0.205078	-0.187500	0.770508	-0.815566	-0.693700	-0.403096	-0.105469	0.386719	0.433594	1035	16_30_48_0373850
0.196289	-0.190430	0.764648	-0.815566	-0.693700	-0.403096	-0.199219	0.328125	0.410156	1036	16_30_48_0535140
0.199219	-0.190430	0.773438	-0.806191	-0.693700	-0.403096	-0.199219	0.339844	0.445313	1037	16_30_48_0696430
0.193359	-0.190430	0.773438	-0.806191	-0.693700	-0.403096	-0.175781	0.386719	0.410156	1038	16_30_48_0857720
0.199219	-0.196289	0.764648	-0.815566	-0.693700	-0.403096	-0.187500	0.386719	0.445313	1039	16_30_48_1019010
0.202148	-0.193359	0.764648	-0.815566	-0.693700	-0.403096	-0.105469	0.421875	0.539063	1040	16_30_48_1180300
0.196289	-0.190430	0.779297	-0.806191	-0.684325	-0.403096	-0.222656	0.339844	0.492188	1041	16_30_48_1341590
0.190430	-0.202148	0.773438	-0.806191	-0.684325	-0.403096	-0.199219	0.351563	0.503906	1042	16_30_48_1502880
0.190430	-0.187500	0.761719	-0.815566	-0.684325	-0.403096	-0.199219	0.339844	0.492188	1043	16_30_48_1664170
0.199219	-0.193359	0.758789	-0.815566	-0.693700	-0.403096	-0.175781	0.339844	0.480469	1044	16_30_48_1825460
0.199219	-0.184570	0.764648	-0.815566	-0.684325	-0.403096	-0.117188	0.738281	0.515625	1045	16_30_48_1986750
0.193359	-0.193359	0.764648	-0.806191	-0.693700	-0.403096	-0.199219	0.363281	0.433594	1046	16_30_48_2148040
0.181641	-0.190430	0.770508	-0.815566	-0.693700	-0.403096	-0.199219	0.351563	0.492188	1047	16_30_48_2309330
0.190430	-0.199219	0.764648	-0.815566	-0.684325	-0.403096	-0.187500	0.386719	0.398438	1048	16_30_48_2470620
0.172852	-0.187500	0.764648	-0.815566	-0.693700	-0.403096	-0.187500	0.386719	0.410156	1049	16_30_48_2631910
0.202148	-0.193359	0.770508	-0.815566	-0.693700	-0.403096	-0.164063	0.375000	0.457031	1050	16_30_48_2793200
0.196289	-0.196289	0.767578	-0.806191	-0.693700	-0.403096	-0.187500	0.351563	0.433594	1051	16_30_48_2954490
0.190430	-0.190430	0.773438	-0.815566	-0.693700	-0.403096	-0.222656	0.386719	0.433594	1052	16_30_48_3115780
0.199219	-0.187500	0.758789	-0.815566	-0.693700	-0.403096	-0.187500	0.386719	0.433594	1053	16_30_48_3277070
0.196289	-0.187500	0.767578	-0.815566	-0.684325	-0.403096	-0.199219	0.386719	0.445313	1054	16_30_48_3438360
0.199219	-0.193359	0.767578	-0.815566	-0.693700	-0.403096	-0.175781	0.375000	0.457031	1055	16_30_48_3599650
0.202148	-0.193359	0.764648	-0.815566	-0.693700	-0.403096	-0.187500	0.375000	0.457031	1056	16_30_48_3760940
0.193359	-0.190430	0.761719	-0.815566	-0.684325	-0.403096	-0.164063	0.375000	0.480469	1057	16_30_48_3922230
0.202148	-0.190430	0.761719	-0.824940	-0.684325	-0.403096	-0.164063	0.375000	0.468750	1058	16_30_48_4083520
0.196289	-0.190430	0.764648	-0.815566	-0.693700	-0.403096	-0.175781	0.363281	0.503906	1059	16_30_48_4244810
0.187500	-0.193359	0.758789	-0.815566	-0.693700	-0.403096	-0.164063	0.386719	0.515625	1060	16_30_48_4406100
0.187500	-0.196289	0.764648	-0.806191	-0.684325	-0.403096	-0.187500	0.375000	0.468750	1061	16_30_48_4567390
0.199219	-0.187500	0.764648	-0.815566	-0.693700	-0.403096	0.058594	0.527344	0.574219	1062	16_30_48_4728680
0.193359	-0.199219	0.770508	-0.815566	-0.693700	-0.403096	-0.210938	0.375000	0.550781	1063	16_30_48_4889970
0.196289	-0.193359	0.764648	-0.806191	-0.684325	-0.403096	-0.187500	0.363281	0.503906	1064	16_30_48_5051260
0.190430	-0.181641	0.752930	-0.806191	-0.693700	-0.403096	-0.187500	0.375000	0.457031	1065	16_30_48_5212550
0.193359	-0.184570	0.767578	-0.815566	-0.693700	-0.403096	-0.164063	0.339844	0.433594	1066	16_30_48_5373840
0.199219	-0.193359	0.758789	-0.806191	-0.693700	-0.403096	-0.199219	0.351563	0.410156	1067	16_30_48_5535130
0.196289	-0.193359	0.770508	-0.815566	-0.684325	-0.403096	-0.199219	0.398438	0.398438	1068	16_30_48_5696420
0.193359	-0.193359	0.767578	-0.815566	-0.693700	-0.403096	-0.199219	0.386719	0.492188	1069	16_30_48_5857710
0.196289	-0.193359	0.770508	-0.815566	-0.693700	-0.403096	-0.128906	0.421875	0.480469	1070	16_30_48_6019000
0.199219	-0.193359	0.764648	-0.815566	-0.693700	-0.403096	-0.187500	0.375000	0.410156	1071	16_30_48_6180290
0.193359	-0.196289	0.770508	-0.806191	-0.684325	-0.403096	-0.175781	0.375000	0.445313	1072	16_30_48_6341580
0.202148	-0.187500	0.764648	-0.815566	-0.693700	-0.403096	-0.175781	0.375000	0.457031	1073	16_30_48_6502870
0.193359	-0.190430	0.779297	-0.815566	-0.693700	-0.403096	0.117188	0.527344	0.597656	1074	16_30_48_6664160
0.193359	-0.193359	0.764648	-0.815566	-0.693700	-0.403096	0.082031	0.761719	0.562500	1075	16_30_48_6825450
0.199219	-0.196289	0.764648	-0.806191	-0.693700	-0.403096	-0.187500	0.386719	0.468750	1076	16_30_48_6986740
0.193359	-0.190430	0.770508	-0.815566	-0.693700	-0.403096	-0.175781	0.386719	0.503906	1077	16_30_48_7148030
0.193359	-0.181641	0.770508	-0.806191	-0.693700	-0.403096	-0.187500	0.375000	0.515625	1078	16_30_48_7309320
0.202148	-0.199219	0.764648	-0.806191	-0.693700	-0.403096	-0.199219	0.363281	0.421875	1079	16_30_48_7470610
0.190430	-0.190430	0.761719	-0.815566	-0.693700	-0.403096	-0.164063	0.398438	0.445313	1080	16_30_48_7631900
0.193359	-0.193359	0.770508	-0.806191	-0.693700	-0.403096	-0.199219	0.386719	0.503906	1081	16_30_48_7793190
0.193359	-0.199219	0.770508	-0.815566	-0.693700	-0.403096	-0.164063	0.375000	0.503906	1082	16_30_48_7954480
0.199219	-0.190430	0.758789	-0.815566	-0.693700	-0.403096	-0.210938	0.363281	0.492188	1083	16_30_48_8115770
0.199219	-0.193359	0.773438	-0.806191	-0.693700	-0.403096	-0.164063	0.386719	0.527344	1084	16_30_48_8277060
0.199219	-0.187500	0.761719	-0.815566	-0.693700	-0.403096	-0.187500	0.351563	0.527344	1085	16_30_48_8438350
0.196289	-0.196289	0.776367	-0.815566	-0.693700	-0.403096	-0.175781	0.386719	0.445313	1086	16_30_48_8599640
0.199219	-0.193359	0.770508	-0.824940	-0.693700	-0.403096	-0.199219	0.656250	0.492188	1087	16_30_48_8760930
0.193359	-0.181641	0.767578	-0.806191	-0.684325	-0.403096	-0.199219	0.386719	0.492188	1088	16_30_48_8922220
0.193359	-0.193359	0.776367	-0.824940	-0.693700	-0.403096	-0.070313	0.468750	0.492188	1089	16_30_48_9083510
0.196289	-0.181641	0.767578	-0.815566	-0.693700	-0.403096	-0.164063	0.386719	0.457031	1090	16_30_48_9244800
0.196289	-0.199219	0.770508	-0.815566	-0.693700	-0.403096	-0.199219	0.375000	0.492188	1091	16_30_48_9406090
0.196289	-0.193359	0.770508	-0.806191	-0.693700	-0.403096	-0.199219	0.363281	0.457031	1092	16_30_48_9567380
0.193359	-0.184570	0.761719	-0.806191	-0.684325	-0.403096	-0.187500	0.386719	0.457031	1093	16_30_48_9728670
0.190430	-0.184570	0.764648	-0.815566	-0.693700	-0.403096	-0.187500	0.375000	0.492188	1094	16_30_48_9889960
0.193359	-0.202148	0.767578	-0.806191	-0.693700	-0.403096	-0.210938	0.375000	0.480469	1095	16_30_49_0051250
0.205078	-0.187500	0.770508	-0.806191	-0.684325	-0.403096	-0.199219	0.351563	0.433594	1096	16_30_49_0212540
0.202148	-0.193359	0.770508	-0.815566	-0.693700	-0.393721	-0.199219	0.351563	0.445313	1097	16_30_49_0373830
0.196289	-0.184570	0.767578	-0.806191	-0.693700	-0.403096	-0.187500	0.375000	0.457031	1098	16_30_49_0535120
0.196289	-0.190430	0.761719	-0.815566	-0.693700	-0.403096	-0.187500	0.351563	0.410156	1099	16_30_49_0696410
0.193359	-0.187500	0.770508	-0.806191	-0.684325	-0.403096	-0.187500	0.363281	0.421875	1100	16_30_49_0857700
0.205078	-0.187500	0.770508	-0.815566	-0.693700	-0.403096	-0.175781	0.386719	0.433594	1101	16_30_49_1018990
0.202148	-0.187500	0.761719	-0.815566	-0.693700	-0.403096	-0.175781	0.398438	0.386719	1102	16_30_49_1180280
0.190430	-0.184570	0.758789	-0.815566	-0.693700	-0.403096	-0.187500	0.386719	0.375000	1103	16_30_49_1341570
0.199219	-0.187500	0.767578	-0.796817	-0.684325	-0.403096	-0.199219	0.386719	0.386719	1104	16_30_49_1502860
0.202148	-0.187500	0.767578	-0.815566	-0.693700	-0.403096	-0.187500	0.328125	0.339844	1105	16_30_49_1664150
0.193359	-0.190430	0.770508	-0.815566	-0.693700	-0.403096	-0.222656	0.304688	0.386719	1106	16_30_49_1825440
0.196289	-0.187500	0.764648	-0.815566	-0.693700	-0.403096	-0.011719	0.843750	0.539063	1107	16_30_49_1986730
0.193359	-0.187500	0.764648	-0.806191	-0.693700	-0.403096	-0.199219	0.375000	0.457031	1108	16_30_49_2148020
0.199219	-0.199219	0.758789	-0.806191	-0.693700	-0.403096	-0.187500	0.375000	0.457031	1109	16_30_49_2309310
0.205078	-0.187500	0.761719	-0.815566	-0.693700	-0.403096	-0.187500	0.375000	0.480469	1110	16_30_49_2470600
0.196289	-0.172852	0.767578	-0.806191	-0.693700	-0.403096	-0.187500	0.351563	0.503906	1111	16_30_49_2631890
0.196289	-0.193359	0.770508	-0.806191	-0.693700	-0.403096	-0.210938	0.386719	0.492188	1112	16_30_49_2793180
0.193359	-0.190430	0.770508	-0.806191	-0.693700	-0.403096	-0.152344	0.375000	0.539063	1113	16_30_49_2954470
0.199219	-0.190430	0.767578	-0.815566	-0.693700	-0.403096	-0.175781	0.351563	0.503906	1114	16_30_49_3115760
0.199219	-0.196289	0.764648	-0.806191	-0.693700	-0.403096	-0.199219	0.375000	0.421875	1115	16_30_49_3277050
0.199219	-0.193359	0.764648	-0.806191	-0.693700	-0.403096	-0.199219	0.351563	0.468750	1116	16_30_49_3438340
0.199219	-0.187500	0.770508	-0.815566	-0.693700	-0.403096	-0.222656	0.375000	0.527344	1117	16_30_49_3599630
0.205078	-0.193359	0.773438	-0.806191	-0.693700	-0.403096	-0.210938	0.328125	0.480469	1118	16_30_49_3760920
0.199219	-0.196289	0.770508	-0.806191	-0.693700	-0.403096	-0.164063	0.292969	0.421875	1119	16_30_49_3922210
0.202148	-0.184570	0.770508	-0.815566	-0.693700	-0.403096	-0.164063	0.386719	0.433594	1120	16_30_49_4083500
