sensor_ID	0006660160E3
Accel_X	Accel_Y	Accel_Z	Roll	Pitch	Yaw	Mag_X	Mag_Y	Mag_Z	Count	SysTime
0.041016	-0.568359	0.049805	-0.356224	-0.618705	-0.571833	0.433594	1.007813	0.046875	0	16_30_31_4378700
0.049805	-0.568359	0.055664	-0.356224	-0.618705	-0.581208	0.480469	0.914063	-0.058594	1	16_30_31_4539990
0.055664	-0.562500	0.052734	-0.356224	-0.618705	-0.571833	0.527344	0.914063	-0.058594	2	16_30_31_4701280
0.058594	-0.562500	0.043945	-0.356224	-0.618705	-0.571833	0.445313	0.914063	-0.058594	3	16_30_31_4862570
0.058594	-0.574219	0.038086	-0.346850	-0.618705	-0.571833	0.468750	0.890625	-0.070313	4	16_30_31_5023860
0.061523	-0.583008	0.043945	-0.346850	-0.618705	-0.571833	0.457031	0.867188	-0.070313	5	16_30_31_5185150
0.073242	-0.571289	0.038086	-0.337475	-0.637454	-0.571833	0.878906	0.890625	0.035156	6	16_30_31_5346440
0.073242	-0.556641	0.046875	-0.346850	-0.628079	-0.581208	0.503906	0.914063	-0.058594	7	16_30_31_5507730
0.067383	-0.550781	0.043945	-0.356224	-0.628079	-0.590582	0.480469	0.867188	-0.035156	8	16_30_31_5669020
0.082031	-0.553711	0.046875	-0.356224	-0.618705	-0.599956	0.445313	0.937500	-0.093750	9	16_30_31_5830310
0.076172	-0.594727	0.023438	-0.365598	-0.618705	-0.609331	0.539063	0.902344	-0.058594	10	16_30_31_5991600
0.064453	-0.603516	0.020508	-0.384347	-0.618705	-0.628079	0.480469	0.890625	-0.035156	11	16_30_31_6152890
0.064453	-0.568359	0.026367	-0.393721	-0.618705	-0.646828	0.445313	0.890625	-0.023438	12	16_30_31_6314180
0.049805	-0.556641	0.032227	-0.393721	-0.637454	-0.628079	0.457031	0.843750	-0.046875	13	16_30_31_6475470
0.046875	-0.541992	0.049805	-0.374973	-0.637454	-0.618705	0.445313	0.914063	-0.093750	14	16_30_31_6636760
0.052734	-0.553711	0.052734	-0.346850	-0.637454	-0.609331	0.445313	0.890625	-0.070313	15	16_30_31_6798050
0.052734	-0.577148	0.043945	-0.337475	-0.628079	-0.599956	0.468750	0.878906	-0.035156	16	16_30_31_6959340
0.049805	-0.597656	0.055664	-0.337475	-0.665577	-0.599956	0.445313	0.914063	-0.011719	17	16_30_31_7120630
0.041016	-0.609375	0.046875	-0.346850	-0.618705	-0.599956	0.492188	0.925781	-0.046875	18	16_30_31_7281920
0.052734	-0.612305	0.058594	-0.356224	-0.618705	-0.618705	0.843750	0.855469	0.105469	19	16_30_31_7443210
0.032227	-0.580078	0.055664	-0.374973	-0.618705	-0.628079	0.468750	0.843750	-0.093750	20	16_30_31_7604500
0.032227	-0.559570	0.055664	-0.374973	-0.628079	-0.618705	0.445313	0.843750	-0.058594	21	16_30_31_7765790
0.020508	-0.553711	0.049805	-0.374973	-0.646828	-0.618705	0.480469	0.925781	-0.058594	22	16_30_31_7927080
0.041016	-0.568359	0.055664	-0.374973	-0.656202	-0.609331	0.457031	0.878906	-0.058594	23	16_30_31_8088370
0.052734	-0.577148	0.038086	-0.374973	-0.665577	-0.609331	0.468750	0.902344	-0.070313	24	16_30_31_8249660
0.052734	-0.583008	0.038086	-0.374973	-0.656202	-0.609331	0.480469	0.855469	-0.093750	25	16_30_31_8410950
0.052734	-0.571289	0.041016	-0.384347	-0.646828	-0.609331	0.468750	0.878906	-0.082031	26	16_30_31_8572240
0.046875	-0.577148	0.035156	-0.374973	-0.656202	-0.609331	0.480469	0.832031	-0.046875	27	16_30_31_8733530
0.046875	-0.580078	0.032227	-0.384347	-0.656202	-0.618705	0.480469	0.902344	-0.058594	28	16_30_31_8894820
0.052734	-0.577148	0.023438	-0.393721	-0.665577	-0.628079	0.492188	0.914063	-0.070313	29	16_30_31_9056110
0.041016	-0.565430	0.029297	-0.384347	-0.665577	-0.628079	0.691406	0.914063	0.304688	30	16_30_31_9217400
0.032227	-0.562500	0.043945	-0.384347	-0.665577	-0.637454	0.492188	0.890625	-0.070313	31	16_30_31_9378690
0.029297	-0.550781	0.052734	-0.384347	-0.656202	-0.646828	0.515625	0.867188	-0.058594	32	16_30_31_9539980
0.023438	-0.550781	0.058594	-0.374973	-0.646828	-0.646828	0.468750	0.867188	-0.058594	33	16_30_31_9701270
0.020508	-0.559570	0.055664	-0.374973	-0.637454	-0.646828	0.480469	0.902344	-0.093750	34	16_30_31_9862560
0.011719	-0.568359	0.055664	-0.365598	-0.646828	-0.646828	0.738281	0.960938	-0.035156	35	16_30_32_0023850
0.000000	-0.562500	0.049805	-0.365598	-0.646828	-0.646828	0.750000	0.914063	-0.011719	36	16_30_32_0185140
0.026367	-0.574219	0.043945	-0.365598	-0.665577	-0.628079	0.457031	0.878906	-0.093750	37	16_30_32_0346430
0.038086	-0.562500	0.058594	-0.356224	-0.665577	-0.628079	0.515625	0.855469	-0.070313	38	16_30_32_0507720
0.043945	-0.580078	0.070313	-0.356224	-0.656202	-0.628079	0.480469	0.878906	-0.058594	39	16_30_32_0669010
0.035156	-0.583008	0.073242	-0.356224	-0.656202	-0.618705	0.527344	0.937500	-0.058594	40	16_30_32_0830300
0.011719	-0.594727	0.067383	-0.356224	-0.656202	-0.618705	0.457031	0.902344	-0.082031	41	16_30_32_0991590
0.002930	-0.597656	0.067383	-0.365598	-0.684325	-0.609331	0.457031	0.960938	-0.082031	42	16_30_32_1152880
0.023438	-0.591797	0.058594	-0.374973	-0.693700	-0.609331	0.457031	0.984375	-0.035156	43	16_30_32_1314170
0.023438	-0.603516	0.064453	-0.374973	-0.693700	-0.609331	0.457031	0.949219	-0.035156	44	16_30_32_1475460
0.029297	-0.580078	0.064453	-0.393721	-0.703074	-0.609331	0.503906	0.878906	-0.070313	45	16_30_32_1636750
0.046875	-0.568359	0.061523	-0.384347	-0.712448	-0.609331	0.750000	0.902344	-0.011719	46	16_30_32_1798040
0.029297	-0.536133	0.061523	-0.384347	-0.703074	-0.609331	0.480469	0.890625	-0.105469	47	16_30_32_1959330
0.035156	-0.536133	0.058594	-0.384347	-0.684325	-0.609331	0.480469	0.914063	-0.117188	48	16_30_32_2120620
0.041016	-0.541992	0.043945	-0.374973	-0.674951	-0.599956	0.515625	0.878906	-0.093750	49	16_30_32_2281910
0.041016	-0.574219	0.038086	-0.365598	-0.665577	-0.599956	0.457031	0.832031	-0.046875	50	16_30_32_2443200
0.035156	-0.594727	0.026367	-0.365598	-0.656202	-0.599956	0.515625	0.937500	-0.082031	51	16_30_32_2604490
0.035156	-0.585938	0.011719	-0.374973	-0.656202	-0.609331	0.503906	0.914063	-0.117188	52	16_30_32_2765780
0.041016	-0.591797	0.023438	-0.374973	-0.656202	-0.618705	0.503906	0.878906	-0.093750	53	16_30_32_2927070
0.043945	-0.585938	0.026367	-0.384347	-0.656202	-0.628079	0.515625	0.914063	-0.070313	54	16_30_32_3088360
0.041016	-0.585938	0.029297	-0.384347	-0.646828	-0.628079	0.492188	0.890625	-0.082031	55	16_30_32_3249650
0.043945	-0.585938	0.020508	-0.393721	-0.637454	-0.628079	0.515625	0.890625	-0.093750	56	16_30_32_3410940
0.041016	-0.603516	0.032227	-0.374973	-0.637454	-0.637454	0.492188	0.902344	-0.070313	57	16_30_32_3572230
0.017578	-0.609375	0.020508	-0.384347	-0.628079	-0.646828	0.468750	0.843750	-0.082031	58	16_30_32_3733520
0.020508	-0.591797	0.035156	-0.393721	-0.637454	-0.646828	0.503906	0.914063	-0.093750	59	16_30_32_3894810
0.011719	-0.580078	0.041016	-0.393721	-0.637454	-0.646828	0.468750	0.890625	-0.082031	60	16_30_32_4056100
0.017578	-0.565430	0.052734	-0.393721	-0.637454	-0.646828	0.480469	0.878906	-0.058594	61	16_30_32_4217390
0.023438	-0.565430	0.067383	-0.393721	-0.637454	-0.646828	0.492188	0.914063	-0.058594	62	16_30_32_4378680
0.014648	-0.556641	0.070313	-0.374973	-0.618705	-0.646828	0.480469	0.878906	-0.070313	63	16_30_32_4539970
0.000000	-0.571289	0.084961	-0.374973	-0.628079	-0.646828	0.468750	0.890625	-0.070313	64	16_30_32_4701260
0.011719	-0.562500	0.076172	-0.374973	-0.618705	-0.637454	0.527344	0.937500	-0.082031	65	16_30_32_4862550
0.005859	-0.571289	0.084961	-0.365598	-0.628079	-0.637454	0.703125	0.937500	0.035156	66	16_30_32_5023840
0.002930	-0.580078	0.082031	-0.365598	-0.637454	-0.637454	0.468750	0.960938	-0.023438	67	16_30_32_5185130
-0.011719	-0.585938	0.079102	-0.365598	-0.656202	-0.628079	0.820313	0.949219	0.035156	68	16_30_32_5346420
-0.017578	-0.591797	0.079102	-0.374973	-0.656202	-0.618705	0.515625	0.914063	-0.128906	69	16_30_32_5507710
-0.002930	-0.603516	0.073242	-0.374973	-0.656202	-0.609331	0.468750	0.937500	-0.140625	70	16_30_32_5669000
-0.017578	-0.591797	0.073242	-0.384347	-0.665577	-0.609331	0.902344	0.925781	0.199219	71	16_30_32_5830290
-0.008789	-0.583008	0.064453	-0.393721	-0.665577	-0.599956	0.480469	0.960938	-0.058594	72	16_30_32_5991580
-0.011719	-0.577148	0.055664	-0.393721	-0.684325	-0.599956	0.515625	0.960938	-0.011719	73	16_30_32_6152870
-0.011719	-0.574219	0.055664	-0.393721	-0.693700	-0.599956	0.503906	0.902344	-0.046875	74	16_30_32_6314160
-0.005859	-0.574219	0.049805	-0.393721	-0.693700	-0.599956	0.621094	0.867188	0.046875	75	16_30_32_6475450
0.000000	-0.577148	0.046875	-0.393721	-0.684325	-0.599956	0.468750	0.914063	-0.035156	76	16_30_32_6636740
0.002930	-0.580078	0.052734	-0.393721	-0.674951	-0.599956	0.468750	0.914063	-0.093750	77	16_30_32_6798030
0.000000	-0.574219	0.043945	-0.393721	-0.674951	-0.599956	0.539063	0.902344	-0.093750	78	16_30_32_6959320
0.002930	-0.556641	0.043945	-0.384347	-0.656202	-0.599956	0.468750	0.914063	-0.117188	79	16_30_32_7120610
0.005859	-0.571289	0.052734	-0.374973	-0.656202	-0.599956	0.503906	0.949219	-0.105469	80	16_30_32_7281900
0.005859	-0.562500	0.061523	-0.374973	-0.637454	-0.599956	0.503906	0.925781	-0.105469	81	16_30_32_7443190
0.000000	-0.562500	0.061523	-0.365598	-0.637454	-0.609331	0.468750	0.890625	-0.046875	82	16_30_32_7604480
0.011719	-0.585938	0.061523	-0.365598	-0.628079	-0.609331	0.492188	0.914063	0.328125	83	16_30_32_7765770
-0.002930	-0.571289	0.061523	-0.374973	-0.628079	-0.618705	0.480469	0.867188	-0.058594	84	16_30_32_7927060
0.005859	-0.585938	0.067383	-0.365598	-0.628079	-0.618705	0.527344	0.820313	-0.070313	85	16_30_32_8088350
0.000000	-0.583008	0.064453	-0.365598	-0.628079	-0.618705	0.492188	0.820313	-0.058594	86	16_30_32_8249640
-0.008789	-0.580078	0.070313	-0.365598	-0.637454	-0.618705	0.621094	0.820313	-0.023438	87	16_30_32_8410930
-0.008789	-0.580078	0.064453	-0.356224	-0.637454	-0.618705	0.457031	0.914063	-0.082031	88	16_30_32_8572220
0.005859	-0.568359	0.073242	-0.356224	-0.637454	-0.618705	0.480469	0.914063	-0.105469	89	16_30_32_8733510
-0.002930	-0.577148	0.073242	-0.356224	-0.637454	-0.609331	0.492188	0.820313	-0.082031	90	16_30_32_8894800
-0.002930	-0.585938	0.070313	-0.356224	-0.646828	-0.609331	0.949219	0.867188	0.128906	91	16_30_32_9056090
-0.005859	-0.591797	0.067383	-0.365598	-0.646828	-0.609331	0.515625	0.902344	-0.093750	92	16_30_32_9217380
-0.005859	-0.583008	0.067383	-0.365598	-0.656202	-0.609331	0.527344	0.902344	-0.082031	93	16_30_32_9378670
-0.005859	-0.577148	0.067383	-0.374973	-0.656202	-0.609331	0.539063	0.902344	-0.058594	94	16_30_32_9539960
-0.014648	-0.577148	0.055664	-0.374973	-0.665577	-0.599956	0.480469	0.878906	-0.070313	95	16_30_32_9701250
0.000000	-0.583008	0.067383	-0.374973	-0.665577	-0.609331	0.515625	0.890625	-0.093750	96	16_30_32_9862540
-0.008789	-0.568359	0.055664	-0.374973	-0.665577	-0.609331	0.480469	0.937500	-0.082031	97	16_30_33_0023830
0.000000	-0.571289	0.055664	-0.384347	-0.665577	-0.609331	0.480469	0.890625	-0.070313	98	16_30_33_0185120
0.017578	-0.580078	0.058594	-0.374973	-0.665577	-0.609331	0.468750	0.890625	-0.105469	99	16_30_33_0346410
0.005859	-0.574219	0.049805	-0.374973	-0.665577	-0.618705	0.503906	0.914063	-0.082031	100	16_30_33_0507700
0.002930	-0.583008	0.055664	-0.384347	-0.665577	-0.618705	1.101563	1.007813	0.128906	101	16_30_33_0668990
-0.005859	-0.580078	0.043945	-0.384347	-0.656202	-0.618705	0.492188	0.937500	-0.105469	102	16_30_33_0830280
-0.002930	-0.580078	0.055664	-0.374973	-0.656202	-0.609331	0.515625	0.867188	-0.117188	103	16_30_33_0991570
-0.008789	-0.574219	0.061523	-0.365598	-0.656202	-0.609331	0.597656	0.914063	0.316406	104	16_30_33_1152860
-0.014648	-0.580078	0.052734	-0.374973	-0.646828	-0.609331	0.539063	0.902344	-0.058594	105	16_30_33_1314150
-0.008789	-0.580078	0.055664	-0.374973	-0.656202	-0.618705	0.480469	0.890625	-0.046875	106	16_30_33_1475440
-0.008789	-0.580078	0.073242	-0.384347	-0.656202	-0.609331	0.503906	0.949219	-0.070313	107	16_30_33_1636730
-0.014648	-0.574219	0.079102	-0.374973	-0.656202	-0.609331	0.843750	0.914063	0.046875	108	16_30_33_1798020
-0.026367	-0.577148	0.073242	-0.374973	-0.656202	-0.599956	0.515625	0.960938	-0.035156	109	16_30_33_1959310
-0.023438	-0.568359	0.070313	-0.365598	-0.665577	-0.590582	0.503906	0.984375	-0.058594	110	16_30_33_2120600
-0.029297	-0.574219	0.070313	-0.356224	-0.674951	-0.590582	1.019531	0.960938	0.152344	111	16_30_33_2281890
-0.020508	-0.550781	0.076172	-0.365598	-0.665577	-0.581208	0.480469	0.867188	-0.058594	112	16_30_33_2443180
-0.011719	-0.544922	0.082031	-0.346850	-0.656202	-0.571833	0.480469	0.878906	-0.070313	113	16_30_33_2604470
-0.023438	-0.547852	0.076172	-0.337475	-0.656202	-0.571833	0.503906	0.949219	-0.046875	114	16_30_33_2765760
-0.017578	-0.562500	0.079102	-0.337475	-0.656202	-0.571833	0.468750	0.937500	-0.070313	115	16_30_33_2927050
-0.008789	-0.577148	0.073242	-0.337475	-0.656202	-0.581208	0.632813	0.867188	0.117188	116	16_30_33_3088340
0.000000	-0.565430	0.055664	-0.337475	-0.656202	-0.571833	0.539063	0.855469	-0.070313	117	16_30_33_3249630
-0.005859	-0.577148	0.067383	-0.337475	-0.656202	-0.581208	0.492188	0.914063	-0.082031	118	16_30_33_3410920
0.011719	-0.588867	0.058594	-0.346850	-0.646828	-0.590582	0.480469	0.890625	-0.105469	119	16_30_33_3572210
0.014648	-0.588867	0.058594	-0.337475	-0.637454	-0.590582	0.843750	0.949219	0.000000	120	16_30_33_3733500
0.005859	-0.583008	0.055664	-0.346850	-0.656202	-0.599956	0.925781	0.960938	0.023438	121	16_30_33_3894790
0.011719	-0.580078	0.049805	-0.346850	-0.646828	-0.599956	0.468750	0.914063	-0.105469	122	16_30_33_4056080
0.023438	-0.585938	0.041016	-0.346850	-0.646828	-0.599956	0.468750	0.867188	-0.070313	123	16_30_33_4217370
0.011719	-0.583008	0.052734	-0.356224	-0.637454	-0.599956	0.503906	0.867188	-0.058594	124	16_30_33_4378660
0.008789	-0.580078	0.041016	-0.356224	-0.656202	-0.599956	0.492188	0.867188	-0.070313	125	16_30_33_4539950
0.005859	-0.580078	0.046875	-0.356224	-0.646828	-0.609331	0.503906	0.890625	-0.058594	126	16_30_33_4701240
0.000000	-0.580078	0.043945	-0.356224	-0.637454	-0.599956	0.480469	0.902344	-0.070313	127	16_30_33_4862530
0.002930	-0.588867	0.043945	-0.365598	-0.646828	-0.599956	0.515625	0.914063	-0.070313	128	16_30_33_5023820
0.002930	-0.583008	0.046875	-0.365598	-0.646828	-0.609331	0.468750	0.937500	-0.046875	129	16_30_33_5185110
0.000000	-0.583008	0.049805	-0.365598	-0.637454	-0.609331	0.503906	0.890625	-0.046875	130	16_30_33_5346400
0.002930	-0.585938	0.032227	-0.365598	-0.637454	-0.618705	0.492188	0.914063	-0.093750	131	16_30_33_5507690
-0.005859	-0.577148	0.046875	-0.365598	-0.637454	-0.618705	0.480469	0.937500	-0.070313	132	16_30_33_5668980
0.005859	-0.583008	0.043945	-0.365598	-0.637454	-0.618705	0.984375	0.937500	0.164063	133	16_30_33_5830270
-0.008789	-0.574219	0.049805	-0.365598	-0.637454	-0.618705	0.468750	0.914063	-0.082031	134	16_30_33_5991560
-0.011719	-0.591797	0.049805	-0.374973	-0.637454	-0.618705	0.480469	0.914063	-0.105469	135	16_30_33_6152850
-0.011719	-0.574219	0.052734	-0.374973	-0.637454	-0.618705	0.480469	0.902344	-0.070313	136	16_30_33_6314140
-0.020508	-0.588867	0.058594	-0.374973	-0.646828	-0.609331	0.621094	0.843750	0.175781	137	16_30_33_6475430
-0.002930	-0.580078	0.049805	-0.374973	-0.646828	-0.609331	0.468750	0.914063	-0.046875	138	16_30_33_6636720
-0.005859	-0.577148	0.052734	-0.365598	-0.656202	-0.599956	0.457031	0.937500	-0.128906	139	16_30_33_6798010
-0.011719	-0.571289	0.055664	-0.365598	-0.656202	-0.599956	0.515625	0.925781	-0.140625	140	16_30_33_6959300
-0.014648	-0.583008	0.055664	-0.374973	-0.646828	-0.599956	0.468750	0.890625	-0.093750	141	16_30_33_7120590
-0.023438	-0.568359	0.061523	-0.374973	-0.656202	-0.599956	0.480469	0.914063	-0.058594	142	16_30_33_7281880
-0.017578	-0.580078	0.061523	-0.374973	-0.656202	-0.599956	0.480469	0.960938	-0.058594	143	16_30_33_7443170
-0.017578	-0.571289	0.046875	-0.374973	-0.656202	-0.599956	0.492188	0.914063	-0.082031	144	16_30_33_7604460
-0.005859	-0.577148	0.055664	-0.365598	-0.656202	-0.599956	0.480469	0.914063	-0.093750	145	16_30_33_7765750
-0.005859	-0.580078	0.046875	-0.365598	-0.665577	-0.599956	0.503906	0.867188	-0.105469	146	16_30_33_7927040
-0.008789	-0.580078	0.043945	-0.374973	-0.656202	-0.590582	0.515625	0.820313	-0.070313	147	16_30_33_8088330
-0.005859	-0.574219	0.052734	-0.365598	-0.656202	-0.599956	0.632813	0.796875	-0.023438	148	16_30_33_8249620
-0.008789	-0.583008	0.052734	-0.365598	-0.656202	-0.599956	0.503906	0.843750	-0.082031	149	16_30_33_8410910
0.002930	-0.577148	0.055664	-0.365598	-0.665577	-0.590582	0.480469	0.937500	-0.082031	150	16_30_33_8572200
-0.005859	-0.585938	0.043945	-0.374973	-0.665577	-0.599956	0.515625	0.867188	-0.105469	151	16_30_33_8733490
0.000000	-0.574219	0.049805	-0.374973	-0.656202	-0.599956	0.527344	0.855469	-0.105469	152	16_30_33_8894780
-0.005859	-0.571289	0.055664	-0.374973	-0.656202	-0.609331	0.480469	0.902344	-0.105469	153	16_30_33_9056070
-0.014648	-0.580078	0.043945	-0.374973	-0.656202	-0.599956	0.550781	0.890625	-0.035156	154	16_30_33_9217360
0.002930	-0.580078	0.043945	-0.365598	-0.656202	-0.599956	0.714844	0.890625	0.363281	155	16_30_33_9378650
-0.002930	-0.583008	0.049805	-0.374973	-0.656202	-0.599956	0.468750	0.890625	-0.093750	156	16_30_33_9539940
-0.005859	-0.580078	0.043945	-0.374973	-0.656202	-0.599956	0.527344	0.949219	-0.117188	157	16_30_33_9701230
-0.002930	-0.580078	0.064453	-0.374973	-0.646828	-0.609331	0.445313	0.937500	-0.082031	158	16_30_33_9862520
-0.011719	-0.580078	0.049805	-0.374973	-0.637454	-0.609331	0.480469	0.878906	-0.046875	159	16_30_34_0023810
-0.002930	-0.577148	0.049805	-0.374973	-0.646828	-0.609331	0.480469	0.914063	-0.046875	160	16_30_34_0185100
-0.017578	-0.571289	0.043945	-0.374973	-0.646828	-0.609331	0.539063	0.914063	-0.023438	161	16_30_34_0346390
-0.008789	-0.568359	0.055664	-0.374973	-0.665577	-0.609331	1.066406	0.890625	0.128906	162	16_30_34_0507680
-0.008789	-0.565430	0.058594	-0.365598	-0.656202	-0.609331	0.480469	0.902344	-0.058594	163	16_30_34_0668970
-0.005859	-0.568359	0.058594	-0.365598	-0.656202	-0.609331	0.515625	0.890625	-0.070313	164	16_30_34_0830260
-0.011719	-0.562500	0.064453	-0.356224	-0.656202	-0.599956	0.796875	0.914063	0.128906	165	16_30_34_0991550
-0.017578	-0.577148	0.061523	-0.374973	-0.656202	-0.599956	0.503906	0.867188	-0.093750	166	16_30_34_1152840
-0.017578	-0.580078	0.058594	-0.356224	-0.656202	-0.590582	0.503906	0.867188	-0.093750	167	16_30_34_1314130
-0.005859	-0.583008	0.058594	-0.365598	-0.656202	-0.590582	0.527344	0.855469	-0.058594	168	16_30_34_1475420
-0.002930	-0.568359	0.064453	-0.365598	-0.656202	-0.599956	0.550781	0.867188	-0.082031	169	16_30_34_1636710
-0.002930	-0.583008	0.052734	-0.365598	-0.656202	-0.590582	0.515625	0.902344	-0.070313	170	16_30_34_1798000
-0.017578	-0.583008	0.055664	-0.356224	-0.656202	-0.590582	0.550781	0.914063	-0.046875	171	16_30_34_1959290
-0.014648	-0.583008	0.052734	-0.365598	-0.656202	-0.599956	0.492188	0.914063	-0.058594	172	16_30_34_2120580
-0.008789	-0.583008	0.043945	-0.365598	-0.656202	-0.590582	0.480469	0.890625	-0.046875	173	16_30_34_2281870
0.002930	-0.574219	0.038086	-0.365598	-0.665577	-0.599956	0.480469	0.832031	-0.058594	174	16_30_34_2443160
0.002930	-0.568359	0.043945	-0.365598	-0.665577	-0.599956	0.902344	0.832031	0.128906	175	16_30_34_2604450
0.008789	-0.565430	0.035156	-0.365598	-0.656202	-0.599956	0.539063	0.878906	-0.128906	176	16_30_34_2765740
0.011719	-0.571289	0.043945	-0.365598	-0.656202	-0.599956	0.468750	0.902344	-0.117188	177	16_30_34_2927030
-0.005859	-0.574219	0.035156	-0.365598	-0.646828	-0.599956	0.632813	0.796875	0.210938	178	16_30_34_3088320
0.000000	-0.580078	0.043945	-0.365598	-0.637454	-0.599956	0.644531	0.855469	-0.023438	179	16_30_34_3249610
-0.008789	-0.580078	0.043945	-0.365598	-0.656202	-0.609331	0.667969	0.937500	-0.023438	180	16_30_34_3410900
-0.008789	-0.580078	0.055664	-0.374973	-0.637454	-0.609331	0.527344	0.855469	-0.070313	181	16_30_34_3572190
-0.002930	-0.585938	0.055664	-0.374973	-0.646828	-0.609331	0.480469	0.890625	-0.035156	182	16_30_34_3733480
-0.005859	-0.591797	0.055664	-0.365598	-0.646828	-0.609331	0.878906	0.960938	0.093750	183	16_30_34_3894770
-0.011719	-0.591797	0.043945	-0.374973	-0.646828	-0.609331	0.878906	0.960938	0.093750	184	16_30_34_4056060
-0.008789	-0.591797	0.055664	-0.374973	-0.646828	-0.609331	0.515625	0.937500	0.011719	185	16_30_34_4217350
-0.014648	-0.594727	0.046875	-0.384347	-0.646828	-0.618705	0.468750	0.937500	-0.035156	186	16_30_34_4378640
-0.005859	-0.585938	0.052734	-0.393721	-0.656202	-0.609331	0.480469	0.855469	-0.070313	187	16_30_34_4539930
-0.029297	-0.580078	0.055664	-0.384347	-0.656202	-0.609331	0.492188	0.902344	-0.082031	188	16_30_34_4701220
-0.008789	-0.580078	0.055664	-0.393721	-0.665577	-0.599956	0.515625	0.914063	-0.035156	189	16_30_34_4862510
-0.002930	-0.577148	0.043945	-0.393721	-0.665577	-0.599956	0.503906	0.949219	-0.105469	190	16_30_34_5023800
0.002930	-0.568359	0.055664	-0.384347	-0.674951	-0.599956	0.503906	0.984375	-0.128906	191	16_30_34_5185090
-0.008789	-0.556641	0.052734	-0.374973	-0.674951	-0.599956	0.480469	0.972656	-0.082031	192	16_30_34_5346380
-0.005859	-0.556641	0.061523	-0.365598	-0.656202	-0.590582	0.503906	0.925781	-0.023438	193	16_30_34_5507670
-0.008789	-0.562500	0.055664	-0.356224	-0.646828	-0.590582	0.515625	0.890625	-0.058594	194	16_30_34_5668960
-0.011719	-0.571289	0.061523	-0.356224	-0.637454	-0.590582	0.480469	0.878906	-0.117188	195	16_30_34_5830250
-0.008789	-0.574219	0.058594	-0.356224	-0.637454	-0.590582	0.503906	0.878906	-0.128906	196	16_30_34_5991540
-0.014648	-0.568359	0.043945	-0.365598	-0.637454	-0.599956	0.527344	0.937500	-0.093750	197	16_30_34_6152830
-0.020508	-0.571289	0.061523	-0.356224	-0.646828	-0.609331	0.503906	0.937500	-0.105469	198	16_30_34_6314120
-0.008789	-0.580078	0.043945	-0.356224	-0.646828	-0.609331	0.492188	0.925781	-0.117188	199	16_30_34_6475410
0.000000	-0.580078	0.052734	-0.356224	-0.656202	-0.609331	0.468750	0.890625	-0.058594	200	16_30_34_6636700
0.000000	-0.583008	0.043945	-0.365598	-0.656202	-0.609331	0.492188	0.902344	-0.023438	201	16_30_34_6797990
0.008789	-0.583008	0.043945	-0.365598	-0.656202	-0.599956	0.527344	0.867188	-0.070313	202	16_30_34_6959280
0.005859	-0.585938	0.032227	-0.374973	-0.656202	-0.599956	0.492188	0.914063	-0.082031	203	16_30_34_7120570
-0.002930	-0.588867	0.046875	-0.365598	-0.656202	-0.609331	0.503906	0.902344	-0.058594	204	16_30_34_7281860
-0.002930	-0.585938	0.043945	-0.374973	-0.646828	-0.609331	0.468750	0.925781	-0.058594	205	16_30_34_7443150
-0.011719	-0.583008	0.049805	-0.365598	-0.656202	-0.609331	0.503906	0.960938	-0.070313	206	16_30_34_7604440
-0.017578	-0.571289	0.046875	-0.374973	-0.656202	-0.609331	0.480469	0.949219	-0.070313	207	16_30_34_7765730
-0.008789	-0.588867	0.055664	-0.365598	-0.656202	-0.609331	0.480469	0.890625	-0.058594	208	16_30_34_7927020
-0.017578	-0.583008	0.055664	-0.374973	-0.656202	-0.599956	0.515625	0.855469	-0.035156	209	16_30_34_8088310
-0.011719	-0.583008	0.043945	-0.374973	-0.646828	-0.609331	0.480469	0.867188	-0.046875	210	16_30_34_8249600
-0.020508	-0.583008	0.046875	-0.374973	-0.656202	-0.609331	0.492188	0.867188	-0.023438	211	16_30_34_8410890
-0.017578	-0.580078	0.058594	-0.374973	-0.656202	-0.609331	0.691406	0.843750	0.035156	212	16_30_34_8572180
-0.026367	-0.571289	0.055664	-0.374973	-0.656202	-0.609331	0.503906	0.914063	-0.082031	213	16_30_34_8733470
-0.011719	-0.580078	0.046875	-0.374973	-0.656202	-0.599956	1.007813	0.960938	0.058594	214	16_30_34_8894760
-0.014648	-0.571289	0.061523	-0.365598	-0.646828	-0.599956	0.468750	0.925781	-0.093750	215	16_30_34_9056050
-0.017578	-0.583008	0.058594	-0.374973	-0.656202	-0.599956	0.796875	0.960938	0.035156	216	16_30_34_9217340
-0.011719	-0.580078	0.049805	-0.374973	-0.656202	-0.590582	0.480469	0.914063	-0.058594	217	16_30_34_9378630
-0.017578	-0.580078	0.055664	-0.374973	-0.665577	-0.599956	0.480469	0.878906	-0.046875	218	16_30_34_9539920
-0.011719	-0.580078	0.052734	-0.374973	-0.665577	-0.599956	0.480469	0.902344	-0.046875	219	16_30_34_9701210
-0.005859	-0.580078	0.055664	-0.374973	-0.665577	-0.599956	0.480469	0.867188	-0.035156	220	16_30_34_9862500
-0.005859	-0.588867	0.043945	-0.365598	-0.665577	-0.599956	0.492188	0.878906	-0.046875	221	16_30_35_0023790
-0.008789	-0.577148	0.046875	-0.374973	-0.665577	-0.599956	0.492188	0.890625	-0.046875	222	16_30_35_0185080
0.002930	-0.580078	0.058594	-0.384347	-0.665577	-0.599956	0.480469	0.902344	-0.058594	223	16_30_35_0346370
-0.008789	-0.574219	0.043945	-0.374973	-0.665577	-0.599956	0.527344	0.902344	-0.082031	224	16_30_35_0507660
-0.011719	-0.571289	0.052734	-0.374973	-0.665577	-0.599956	0.503906	0.855469	-0.070313	225	16_30_35_0668950
0.000000	-0.568359	0.052734	-0.374973	-0.665577	-0.599956	0.503906	0.867188	-0.082031	226	16_30_35_0830240
-0.011719	-0.571289	0.052734	-0.365598	-0.656202	-0.581208	0.492188	0.855469	-0.105469	227	16_30_35_0991530
-0.005859	-0.585938	0.076172	-0.365598	-0.656202	-0.599956	0.468750	0.914063	-0.105469	228	16_30_35_1152820
0.005859	-0.574219	0.079102	-0.356224	-0.637454	-0.599956	0.503906	0.960938	-0.070313	229	16_30_35_1314110
0.005859	-0.585938	0.061523	-0.374973	-0.628079	-0.590582	0.503906	0.890625	0.105469	230	16_30_35_1475400
-0.002930	-0.583008	0.038086	-0.384347	-0.637454	-0.590582	0.667969	0.902344	0.082031	231	16_30_35_1636690
0.008789	-0.597656	0.073242	-0.403096	-0.618705	-0.590582	0.644531	0.902344	-0.058594	232	16_30_35_1797980
0.049805	-0.580078	0.084961	-0.431219	-0.599956	-0.590582	0.492188	0.914063	-0.082031	233	16_30_35_1959270
0.041016	-0.553711	0.073242	-0.440593	-0.562459	-0.590582	0.796875	0.914063	-0.035156	234	16_30_35_2120560
0.017578	-0.571289	0.055664	-0.412470	-0.543711	-0.581208	0.515625	0.867188	-0.105469	235	16_30_35_2281850
0.000000	-0.594727	0.038086	-0.393721	-0.562459	-0.571833	0.503906	0.878906	-0.070313	236	16_30_35_2443140
0.005859	-0.591797	0.052734	-0.403096	-0.581208	-0.553085	0.503906	0.937500	-0.093750	237	16_30_35_2604430
0.005859	-0.585938	0.079102	-0.412470	-0.590582	-0.562459	0.468750	0.890625	-0.082031	238	16_30_35_2765720
-0.011719	-0.574219	0.061523	-0.393721	-0.590582	-0.562459	0.492188	0.832031	-0.070313	239	16_30_35_2927010
-0.017578	-0.568359	0.043945	-0.393721	-0.599956	-0.553085	0.609375	0.890625	-0.058594	240	16_30_35_3088300
-0.008789	-0.580078	0.043945	-0.374973	-0.628079	-0.553085	0.492188	0.949219	0.128906	241	16_30_35_3249590
-0.014648	-0.571289	0.046875	-0.374973	-0.628079	-0.562459	0.503906	0.867188	-0.046875	242	16_30_35_3410880
-0.020508	-0.565430	0.041016	-0.365598	-0.628079	-0.571833	0.492188	0.902344	-0.082031	243	16_30_35_3572170
-0.017578	-0.553711	0.043945	-0.365598	-0.646828	-0.581208	0.515625	0.972656	-0.058594	244	16_30_35_3733460
-0.020508	-0.556641	0.046875	-0.356224	-0.656202	-0.590582	0.480469	0.960938	-0.023438	245	16_30_35_3894750
-0.029297	-0.556641	0.043945	-0.346850	-0.665577	-0.599956	0.527344	0.914063	-0.070313	246	16_30_35_4056040
-0.029297	-0.553711	0.043945	-0.337475	-0.656202	-0.609331	1.078125	0.949219	0.117188	247	16_30_35_4217330
-0.023438	-0.553711	0.070313	-0.337475	-0.656202	-0.628079	0.468750	0.902344	-0.082031	248	16_30_35_4378620
-0.023438	-0.568359	0.067383	-0.337475	-0.656202	-0.628079	0.539063	0.843750	-0.093750	249	16_30_35_4539910
-0.035156	-0.562500	0.061523	-0.337475	-0.665577	-0.637454	0.492188	0.855469	-0.093750	250	16_30_35_4701200
-0.038086	-0.568359	0.058594	-0.337475	-0.674951	-0.637454	0.468750	0.890625	-0.058594	251	16_30_35_4862490
-0.029297	-0.583008	0.055664	-0.337475	-0.703074	-0.637454	0.468750	0.890625	-0.058594	252	16_30_35_5023780
-0.020508	-0.591797	0.061523	-0.337475	-0.731197	-0.628079	0.574219	0.855469	0.000000	253	16_30_35_5185070
-0.017578	-0.571289	0.067383	-0.346850	-0.740571	-0.628079	0.468750	0.890625	-0.046875	254	16_30_35_5346360
0.023438	-0.565430	0.061523	-0.346850	-0.749946	-0.628079	0.468750	0.937500	-0.105469	255	16_30_35_5507650
0.023438	-0.562500	0.046875	-0.346850	-0.749946	-0.618705	0.480469	0.937500	-0.105469	256	16_30_35_5668940
0.023438	-0.568359	0.041016	-0.328101	-0.740571	-0.599956	0.515625	0.925781	-0.058594	257	16_30_35_5830230
0.035156	-0.583008	0.038086	-0.337475	-0.731197	-0.599956	0.972656	0.937500	0.199219	258	16_30_35_5991520
0.041016	-0.591797	0.041016	-0.337475	-0.712448	-0.599956	0.492188	0.914063	-0.093750	259	16_30_35_6152810
0.038086	-0.588867	0.046875	-0.337475	-0.703074	-0.599956	0.468750	0.890625	-0.082031	260	16_30_35_6314100
0.014648	-0.594727	0.046875	-0.337475	-0.703074	-0.599956	0.492188	0.808594	-0.023438	261	16_30_35_6475390
-0.005859	-0.609375	0.043945	-0.337475	-0.712448	-0.599956	0.667969	0.820313	0.210938	262	16_30_35_6636680
-0.020508	-0.612305	0.046875	-0.356224	-0.731197	-0.599956	0.492188	0.878906	-0.023438	263	16_30_35_6797970
-0.017578	-0.600586	0.058594	-0.356224	-0.749946	-0.618705	0.480469	0.972656	-0.082031	264	16_30_35_6959260
-0.014648	-0.583008	0.067383	-0.384347	-0.749946	-0.618705	0.492188	0.937500	-0.070313	265	16_30_35_7120550
-0.029297	-0.571289	0.067383	-0.393721	-0.749946	-0.628079	0.468750	0.925781	0.011719	266	16_30_35_7281840
-0.026367	-0.562500	0.064453	-0.384347	-0.740571	-0.618705	0.480469	0.949219	0.023438	267	16_30_35_7443130
-0.002930	-0.562500	0.073242	-0.384347	-0.731197	-0.618705	0.738281	0.902344	0.035156	268	16_30_35_7604420
0.005859	-0.559570	0.067383	-0.384347	-0.731197	-0.609331	0.527344	0.960938	-0.023438	269	16_30_35_7765710
0.017578	-0.562500	0.061523	-0.374973	-0.721823	-0.609331	0.480469	0.949219	-0.035156	270	16_30_35_7927000
0.020508	-0.571289	0.061523	-0.365598	-0.712448	-0.609331	0.585938	0.914063	-0.046875	271	16_30_35_8088290
0.014648	-0.574219	0.055664	-0.365598	-0.703074	-0.599956	0.480469	0.914063	-0.058594	272	16_30_35_8249580
0.017578	-0.574219	0.061523	-0.365598	-0.693700	-0.599956	0.527344	0.925781	-0.093750	273	16_30_35_8410870
0.017578	-0.571289	0.046875	-0.356224	-0.684325	-0.599956	0.527344	0.902344	-0.117188	274	16_30_35_8572160
0.005859	-0.574219	0.032227	-0.356224	-0.674951	-0.599956	0.480469	0.843750	-0.046875	275	16_30_35_8733450
0.000000	-0.571289	0.032227	-0.356224	-0.665577	-0.609331	0.480469	0.914063	0.000000	276	16_30_35_8894740
0.017578	-0.568359	0.038086	-0.346850	-0.656202	-0.609331	0.480469	0.960938	-0.023438	277	16_30_35_9056030
0.002930	-0.580078	0.043945	-0.356224	-0.656202	-0.599956	0.984375	0.937500	0.140625	278	16_30_35_9217320
-0.002930	-0.574219	0.043945	-0.356224	-0.646828	-0.609331	0.550781	0.890625	-0.046875	279	16_30_35_9378610
0.000000	-0.580078	0.049805	-0.356224	-0.637454	-0.609331	0.515625	0.902344	-0.058594	280	16_30_35_9539900
-0.005859	-0.583008	0.052734	-0.356224	-0.628079	-0.609331	0.503906	0.890625	-0.070313	281	16_30_35_9701190
-0.011719	-0.577148	0.035156	-0.356224	-0.618705	-0.599956	0.585938	0.902344	-0.046875	282	16_30_35_9862480
-0.023438	-0.583008	0.043945	-0.346850	-0.618705	-0.599956	0.492188	0.902344	-0.011719	283	16_30_36_0023770
-0.014648	-0.594727	0.038086	-0.365598	-0.637454	-0.599956	0.656250	0.820313	0.000000	284	16_30_36_0185060
-0.020508	-0.580078	0.049805	-0.365598	-0.646828	-0.599956	0.515625	0.855469	-0.046875	285	16_30_36_0346350
-0.017578	-0.583008	0.043945	-0.365598	-0.656202	-0.599956	0.503906	0.878906	0.000000	286	16_30_36_0507640
-0.011719	-0.580078	0.046875	-0.374973	-0.656202	-0.599956	0.503906	0.843750	-0.046875	287	16_30_36_0668930
-0.017578	-0.583008	0.041016	-0.374973	-0.665577	-0.599956	0.492188	0.890625	-0.058594	288	16_30_36_0830220
0.002930	-0.585938	0.046875	-0.374973	-0.665577	-0.599956	0.492188	0.949219	-0.023438	289	16_30_36_0991510
-0.011719	-0.574219	0.038086	-0.374973	-0.665577	-0.590582	0.890625	0.808594	0.316406	290	16_30_36_1152800
0.000000	-0.568359	0.043945	-0.374973	-0.656202	-0.599956	0.691406	0.914063	0.316406	291	16_30_36_1314090
-0.011719	-0.568359	0.043945	-0.374973	-0.656202	-0.590582	0.503906	0.960938	-0.035156	292	16_30_36_1475380
-0.008789	-0.574219	0.043945	-0.365598	-0.656202	-0.590582	0.597656	0.960938	0.175781	293	16_30_36_1636670
-0.008789	-0.577148	0.032227	-0.365598	-0.656202	-0.599956	0.503906	0.937500	-0.093750	294	16_30_36_1797960
-0.005859	-0.583008	0.043945	-0.374973	-0.656202	-0.599956	0.468750	0.914063	-0.105469	295	16_30_36_1959250
-0.011719	-0.585938	0.043945	-0.365598	-0.656202	-0.599956	0.480469	0.914063	-0.058594	296	16_30_36_2120540
-0.002930	-0.577148	0.049805	-0.374973	-0.656202	-0.599956	0.738281	0.914063	0.046875	297	16_30_36_2281830
0.011719	-0.562500	0.043945	-0.365598	-0.656202	-0.599956	0.503906	0.914063	-0.058594	298	16_30_36_2443120
0.000000	-0.565430	0.035156	-0.374973	-0.656202	-0.609331	0.515625	0.878906	-0.035156	299	16_30_36_2604410
0.014648	-0.574219	0.046875	-0.365598	-0.656202	-0.599956	0.527344	0.808594	-0.035156	300	16_30_36_2765700
0.008789	-0.562500	0.043945	-0.365598	-0.646828	-0.609331	0.503906	0.878906	-0.035156	301	16_30_36_2926990
0.014648	-0.574219	0.041016	-0.356224	-0.646828	-0.609331	0.515625	0.937500	-0.023438	302	16_30_36_3088280
0.002930	-0.583008	0.046875	-0.356224	-0.637454	-0.609331	0.527344	0.937500	-0.058594	303	16_30_36_3249570
0.000000	-0.597656	0.055664	-0.356224	-0.637454	-0.609331	0.644531	0.855469	0.140625	304	16_30_36_3410860
0.005859	-0.594727	0.038086	-0.365598	-0.637454	-0.609331	0.503906	0.914063	-0.035156	305	16_30_36_3572150
-0.017578	-0.594727	0.043945	-0.374973	-0.646828	-0.609331	0.703125	0.925781	-0.011719	306	16_30_36_3733440
0.002930	-0.588867	0.046875	-0.384347	-0.656202	-0.618705	0.738281	0.902344	0.000000	307	16_30_36_3894730
-0.008789	-0.580078	0.043945	-0.393721	-0.656202	-0.618705	0.527344	0.914063	-0.082031	308	16_30_36_4056020
-0.005859	-0.574219	0.035156	-0.374973	-0.665577	-0.609331	0.527344	0.914063	-0.070313	309	16_30_36_4217310
-0.014648	-0.583008	0.046875	-0.393721	-0.665577	-0.609331	0.937500	0.855469	0.105469	310	16_30_36_4378600
0.000000	-0.574219	0.049805	-0.393721	-0.665577	-0.609331	0.539063	0.855469	-0.093750	311	16_30_36_4539890
0.000000	-0.585938	0.046875	-0.393721	-0.665577	-0.599956	0.515625	0.890625	-0.128906	312	16_30_36_4701180
-0.017578	-0.580078	0.052734	-0.393721	-0.665577	-0.599956	0.539063	0.843750	-0.128906	313	16_30_36_4862470
-0.014648	-0.571289	0.041016	-0.393721	-0.665577	-0.599956	0.527344	0.820313	-0.093750	314	16_30_36_5023760
-0.008789	-0.568359	0.046875	-0.384347	-0.665577	-0.599956	0.480469	0.902344	-0.082031	315	16_30_36_5185050
-0.014648	-0.574219	0.055664	-0.384347	-0.665577	-0.599956	0.480469	0.914063	-0.105469	316	16_30_36_5346340
-0.029297	-0.577148	0.055664	-0.374973	-0.665577	-0.599956	0.527344	0.937500	-0.093750	317	16_30_36_5507630
-0.017578	-0.580078	0.055664	-0.384347	-0.656202	-0.599956	0.503906	0.984375	-0.082031	318	16_30_36_5668920
-0.023438	-0.577148	0.049805	-0.374973	-0.656202	-0.599956	0.503906	0.937500	-0.105469	319	16_30_36_5830210
-0.017578	-0.580078	0.043945	-0.374973	-0.656202	-0.599956	0.503906	0.925781	-0.105469	320	16_30_36_5991500
-0.014648	-0.568359	0.046875	-0.374973	-0.656202	-0.599956	0.550781	0.843750	-0.082031	321	16_30_36_6152790
-0.017578	-0.577148	0.046875	-0.365598	-0.656202	-0.599956	0.503906	0.820313	-0.070313	322	16_30_36_6314080
-0.014648	-0.574219	0.049805	-0.365598	-0.656202	-0.590582	0.539063	0.820313	0.128906	323	16_30_36_6475370
-0.011719	-0.580078	0.058594	-0.365598	-0.656202	-0.590582	0.515625	0.937500	-0.058594	324	16_30_36_6636660
-0.020508	-0.588867	0.046875	-0.365598	-0.656202	-0.590582	0.515625	0.902344	-0.082031	325	16_30_36_6797950
-0.014648	-0.597656	0.055664	-0.365598	-0.665577	-0.590582	0.503906	0.832031	-0.058594	326	16_30_36_6959240
-0.008789	-0.600586	0.043945	-0.374973	-0.665577	-0.581208	0.515625	0.832031	-0.035156	327	16_30_36_7120530
-0.008789	-0.585938	0.055664	-0.365598	-0.665577	-0.581208	0.527344	0.878906	-0.082031	328	16_30_36_7281820
0.002930	-0.580078	0.058594	-0.374973	-0.665577	-0.581208	0.480469	0.890625	-0.093750	329	16_30_36_7443110
0.005859	-0.562500	0.055664	-0.374973	-0.674951	-0.590582	0.480469	0.832031	-0.058594	330	16_30_36_7604400
0.008789	-0.568359	0.055664	-0.374973	-0.665577	-0.590582	0.503906	0.843750	-0.058594	331	16_30_36_7765690
0.032227	-0.568359	0.043945	-0.374973	-0.665577	-0.599956	0.527344	0.890625	-0.035156	332	16_30_36_7926980
0.026367	-0.556641	0.038086	-0.374973	-0.665577	-0.609331	0.503906	0.914063	-0.046875	333	16_30_36_8088270
0.023438	-0.568359	0.035156	-0.374973	-0.656202	-0.618705	0.503906	0.843750	-0.082031	334	16_30_36_8249560
0.008789	-0.568359	0.041016	-0.374973	-0.646828	-0.628079	0.468750	0.902344	-0.070313	335	16_30_36_8410850
0.020508	-0.571289	0.046875	-0.365598	-0.628079	-0.618705	0.539063	0.914063	-0.046875	336	16_30_36_8572140
0.005859	-0.565430	0.038086	-0.356224	-0.628079	-0.628079	0.492188	0.937500	-0.070313	337	16_30_36_8733430
-0.005859	-0.574219	0.046875	-0.356224	-0.628079	-0.628079	0.714844	0.937500	0.046875	338	16_30_36_8894720
-0.011719	-0.585938	0.067383	-0.356224	-0.628079	-0.618705	0.503906	0.914063	-0.035156	339	16_30_36_9056010
-0.011719	-0.580078	0.058594	-0.356224	-0.628079	-0.618705	0.539063	0.914063	-0.070313	340	16_30_36_9217300
-0.011719	-0.588867	0.052734	-0.356224	-0.628079	-0.618705	0.562500	0.878906	-0.070313	341	16_30_36_9378590
-0.017578	-0.588867	0.061523	-0.365598	-0.637454	-0.609331	0.503906	0.867188	-0.058594	342	16_30_36_9539880
-0.014648	-0.585938	0.064453	-0.365598	-0.637454	-0.609331	0.527344	0.843750	-0.035156	343	16_30_36_9701170
-0.029297	-0.585938	0.052734	-0.365598	-0.646828	-0.599956	0.503906	0.914063	-0.035156	344	16_30_36_9862460
-0.029297	-0.583008	0.055664	-0.374973	-0.656202	-0.590582	0.621094	0.914063	0.000000	345	16_30_37_0023750
-0.023438	-0.574219	0.052734	-0.374973	-0.665577	-0.590582	0.515625	0.890625	0.046875	346	16_30_37_0185040
-0.011719	-0.574219	0.049805	-0.374973	-0.656202	-0.599956	0.503906	0.914063	-0.046875	347	16_30_37_0346330
-0.017578	-0.574219	0.043945	-0.365598	-0.665577	-0.590582	0.515625	0.867188	-0.058594	348	16_30_37_0507620
-0.020508	-0.568359	0.043945	-0.365598	-0.656202	-0.590582	0.492188	0.820313	-0.046875	349	16_30_37_0668910
-0.017578	-0.574219	0.032227	-0.365598	-0.665577	-0.590582	0.937500	0.867188	0.140625	350	16_30_37_0830200
-0.008789	-0.574219	0.038086	-0.365598	-0.646828	-0.599956	0.515625	0.867188	-0.046875	351	16_30_37_0991490
-0.002930	-0.568359	0.043945	-0.356224	-0.646828	-0.599956	0.925781	0.843750	0.105469	352	16_30_37_1152780
-0.017578	-0.577148	0.043945	-0.365598	-0.637454	-0.599956	0.527344	0.855469	-0.046875	353	16_30_37_1314070
-0.029297	-0.574219	0.046875	-0.365598	-0.646828	-0.599956	0.480469	0.925781	-0.046875	354	16_30_37_1475360
-0.017578	-0.583008	0.052734	-0.365598	-0.646828	-0.599956	0.621094	0.832031	-0.035156	355	16_30_37_1636650
-0.017578	-0.580078	0.049805	-0.365598	-0.646828	-0.609331	0.527344	0.867188	-0.082031	356	16_30_37_1797940
-0.020508	-0.580078	0.052734	-0.365598	-0.656202	-0.599956	0.515625	0.925781	-0.035156	357	16_30_37_1959230
-0.020508	-0.580078	0.052734	-0.365598	-0.656202	-0.599956	0.492188	0.925781	-0.035156	358	16_30_37_2120520
-0.008789	-0.577148	0.058594	-0.365598	-0.656202	-0.599956	0.738281	0.902344	0.035156	359	16_30_37_2281810
-0.008789	-0.583008	0.049805	-0.365598	-0.665577	-0.599956	0.785156	0.890625	0.011719	360	16_30_37_2443100
-0.017578	-0.585938	0.052734	-0.365598	-0.665577	-0.599956	0.503906	0.925781	-0.093750	361	16_30_37_2604390
-0.014648	-0.583008	0.058594	-0.365598	-0.674951	-0.590582	0.492188	0.925781	-0.082031	362	16_30_37_2765680
-0.020508	-0.577148	0.043945	-0.374973	-0.665577	-0.590582	0.503906	0.914063	-0.082031	363	16_30_37_2926970
-0.008789	-0.577148	0.046875	-0.374973	-0.665577	-0.599956	0.503906	0.925781	-0.070313	364	16_30_37_3088260
-0.011719	-0.580078	0.046875	-0.374973	-0.674951	-0.599956	0.609375	0.925781	-0.023438	365	16_30_37_3249550
0.005859	-0.580078	0.049805	-0.374973	-0.665577	-0.590582	0.480469	0.867188	0.140625	366	16_30_37_3410840
-0.008789	-0.583008	0.043945	-0.365598	-0.665577	-0.599956	0.609375	0.914063	0.011719	367	16_30_37_3572130
-0.002930	-0.583008	0.041016	-0.374973	-0.665577	-0.599956	0.480469	0.890625	-0.070313	368	16_30_37_3733420
0.005859	-0.580078	0.043945	-0.365598	-0.665577	-0.599956	0.503906	0.808594	-0.046875	369	16_30_37_3894710
-0.005859	-0.574219	0.055664	-0.374973	-0.665577	-0.599956	0.539063	0.855469	-0.082031	370	16_30_37_4056000
-0.002930	-0.574219	0.049805	-0.365598	-0.656202	-0.599956	0.503906	0.878906	-0.058594	371	16_30_37_4217290
-0.002930	-0.585938	0.038086	-0.365598	-0.646828	-0.590582	0.480469	0.902344	-0.023438	372	16_30_37_4378580
0.000000	-0.580078	0.046875	-0.365598	-0.656202	-0.599956	0.492188	0.902344	-0.058594	373	16_30_37_4539870
0.002930	-0.574219	0.052734	-0.365598	-0.656202	-0.599956	0.515625	0.949219	-0.082031	374	16_30_37_4701160
0.002930	-0.583008	0.061523	-0.365598	-0.656202	-0.599956	0.480469	0.890625	-0.093750	375	16_30_37_4862450
-0.008789	-0.574219	0.061523	-0.374973	-0.656202	-0.599956	0.503906	0.855469	-0.070313	376	16_30_37_5023740
-0.005859	-0.577148	0.043945	-0.365598	-0.646828	-0.599956	0.527344	0.960938	-0.070313	377	16_30_37_5185030
-0.014648	-0.585938	0.049805	-0.374973	-0.656202	-0.599956	0.480469	0.914063	-0.070313	378	16_30_37_5346320
-0.005859	-0.577148	0.046875	-0.365598	-0.656202	-0.599956	0.480469	0.914063	-0.035156	379	16_30_37_5507610
-0.011719	-0.574219	0.041016	-0.365598	-0.656202	-0.599956	0.527344	0.890625	-0.023438	380	16_30_37_5668900
0.005859	-0.574219	0.052734	-0.365598	-0.656202	-0.599956	0.527344	0.820313	-0.046875	381	16_30_37_5830190
-0.005859	-0.580078	0.046875	-0.365598	-0.656202	-0.599956	0.515625	0.808594	-0.082031	382	16_30_37_5991480
0.002930	-0.577148	0.052734	-0.365598	-0.656202	-0.599956	0.562500	0.890625	-0.046875	383	16_30_37_6152770
-0.005859	-0.580078	0.043945	-0.365598	-0.646828	-0.599956	0.902344	0.960938	0.199219	384	16_30_37_6314060
-0.014648	-0.574219	0.046875	-0.365598	-0.646828	-0.599956	0.457031	0.972656	-0.058594	385	16_30_37_6475350
-0.008789	-0.580078	0.055664	-0.365598	-0.646828	-0.599956	0.503906	0.960938	-0.058594	386	16_30_37_6636640
-0.011719	-0.580078	0.043945	-0.365598	-0.646828	-0.609331	0.597656	0.914063	-0.035156	387	16_30_37_6797930
0.000000	-0.577148	0.038086	-0.365598	-0.646828	-0.599956	0.480469	0.914063	-0.058594	388	16_30_37_6959220
-0.011719	-0.556641	0.058594	-0.365598	-0.656202	-0.609331	0.503906	0.890625	-0.011719	389	16_30_37_7120510
-0.017578	-0.585938	0.052734	-0.365598	-0.656202	-0.609331	0.503906	0.960938	-0.070313	390	16_30_37_7281800
-0.008789	-0.585938	0.046875	-0.365598	-0.646828	-0.609331	0.480469	0.914063	-0.070313	391	16_30_37_7443090
-0.005859	-0.585938	0.049805	-0.365598	-0.656202	-0.609331	0.492188	0.949219	-0.058594	392	16_30_37_7604380
-0.011719	-0.580078	0.046875	-0.365598	-0.656202	-0.609331	0.503906	0.937500	-0.093750	393	16_30_37_7765670
-0.020508	-0.588867	0.041016	-0.365598	-0.656202	-0.609331	0.480469	0.914063	-0.093750	394	16_30_37_7926960
-0.008789	-0.580078	0.038086	-0.365598	-0.656202	-0.609331	0.773438	0.960938	0.222656	395	16_30_37_8088250
-0.017578	-0.583008	0.038086	-0.365598	-0.656202	-0.599956	0.503906	0.902344	-0.046875	396	16_30_37_8249540
-0.017578	-0.583008	0.049805	-0.365598	-0.665577	-0.599956	0.550781	0.867188	0.164063	397	16_30_37_8410830
-0.005859	-0.571289	0.049805	-0.365598	-0.656202	-0.599956	0.527344	0.878906	-0.105469	398	16_30_37_8572120
-0.008789	-0.574219	0.043945	-0.365598	-0.665577	-0.599956	0.539063	0.855469	-0.093750	399	16_30_37_8733410
0.000000	-0.568359	0.043945	-0.365598	-0.665577	-0.599956	0.750000	0.902344	0.070313	400	16_30_37_8894700
-0.008789	-0.583008	0.043945	-0.365598	-0.656202	-0.599956	0.515625	0.960938	0.000000	401	16_30_37_9055990
-0.017578	-0.583008	0.035156	-0.365598	-0.656202	-0.599956	0.480469	0.937500	-0.058594	402	16_30_37_9217280
-0.011719	-0.583008	0.046875	-0.365598	-0.656202	-0.599956	0.503906	0.902344	-0.058594	403	16_30_37_9378570
-0.005859	-0.583008	0.038086	-0.365598	-0.656202	-0.609331	0.503906	0.937500	-0.070313	404	16_30_37_9539860
-0.005859	-0.577148	0.043945	-0.374973	-0.656202	-0.599956	0.785156	0.960938	0.140625	405	16_30_37_9701150
-0.023438	-0.574219	0.046875	-0.365598	-0.656202	-0.599956	0.515625	0.914063	-0.046875	406	16_30_37_9862440
-0.017578	-0.594727	0.055664	-0.374973	-0.656202	-0.599956	0.468750	0.925781	-0.046875	407	16_30_38_0023730
-0.014648	-0.577148	0.035156	-0.374973	-0.665577	-0.590582	0.480469	0.949219	-0.070313	408	16_30_38_0185020
-0.011719	-0.577148	0.038086	-0.374973	-0.665577	-0.590582	0.503906	0.937500	-0.105469	409	16_30_38_0346310
-0.002930	-0.562500	0.058594	-0.365598	-0.656202	-0.590582	0.492188	0.867188	-0.128906	410	16_30_38_0507600
-0.002930	-0.580078	0.055664	-0.365598	-0.665577	-0.599956	0.878906	0.890625	0.011719	411	16_30_38_0668890
-0.008789	-0.583008	0.055664	-0.374973	-0.656202	-0.599956	0.503906	0.878906	-0.058594	412	16_30_38_0830180
-0.017578	-0.577148	0.035156	-0.374973	-0.656202	-0.599956	0.515625	0.867188	-0.046875	413	16_30_38_0991470
-0.017578	-0.580078	0.043945	-0.374973	-0.665577	-0.599956	0.480469	0.902344	-0.058594	414	16_30_38_1152760
-0.014648	-0.574219	0.052734	-0.365598	-0.665577	-0.590582	0.539063	0.914063	-0.011719	415	16_30_38_1314050
0.000000	-0.574219	0.046875	-0.365598	-0.665577	-0.599956	0.550781	0.925781	0.023438	416	16_30_38_1475340
0.005859	-0.574219	0.055664	-0.374973	-0.656202	-0.599956	0.480469	0.949219	-0.058594	417	16_30_38_1636630
-0.005859	-0.574219	0.043945	-0.374973	-0.656202	-0.609331	0.503906	0.890625	-0.082031	418	16_30_38_1797920
-0.011719	-0.568359	0.041016	-0.374973	-0.646828	-0.609331	0.667969	0.937500	0.093750	419	16_30_38_1959210
-0.017578	-0.583008	0.038086	-0.365598	-0.656202	-0.599956	0.480469	0.914063	-0.082031	420	16_30_38_2120500
-0.008789	-0.588867	0.043945	-0.365598	-0.665577	-0.599956	0.503906	0.914063	-0.046875	421	16_30_38_2281790
-0.005859	-0.580078	0.049805	-0.374973	-0.656202	-0.599956	0.796875	0.902344	0.082031	422	16_30_38_2443080
0.005859	-0.562500	0.061523	-0.374973	-0.656202	-0.599956	0.503906	0.820313	-0.023438	423	16_30_38_2604370
-0.005859	-0.565430	0.049805	-0.365598	-0.656202	-0.599956	0.726563	0.890625	0.000000	424	16_30_38_2765660
-0.005859	-0.571289	0.043945	-0.356224	-0.656202	-0.599956	0.480469	0.843750	-0.046875	425	16_30_38_2926950
-0.014648	-0.577148	0.043945	-0.365598	-0.656202	-0.599956	0.527344	0.890625	-0.058594	426	16_30_38_3088240
-0.014648	-0.583008	0.046875	-0.365598	-0.656202	-0.599956	0.503906	0.914063	-0.058594	427	16_30_38_3249530
-0.011719	-0.585938	0.041016	-0.365598	-0.656202	-0.609331	0.480469	0.902344	-0.035156	428	16_30_38_3410820
-0.011719	-0.583008	0.043945	-0.365598	-0.646828	-0.599956	0.527344	0.902344	0.117188	429	16_30_38_3572110
-0.008789	-0.574219	0.038086	-0.374973	-0.656202	-0.609331	0.515625	0.855469	-0.082031	430	16_30_38_3733400
0.000000	-0.574219	0.046875	-0.374973	-0.665577	-0.609331	0.480469	0.902344	-0.082031	431	16_30_38_3894690
-0.002930	-0.565430	0.046875	-0.374973	-0.665577	-0.609331	0.550781	0.890625	-0.011719	432	16_30_38_4055980
-0.005859	-0.574219	0.046875	-0.365598	-0.656202	-0.609331	0.515625	0.855469	0.000000	433	16_30_38_4217270
-0.002930	-0.580078	0.035156	-0.365598	-0.646828	-0.599956	0.492188	0.902344	-0.035156	434	16_30_38_4378560
0.000000	-0.583008	0.043945	-0.365598	-0.637454	-0.609331	0.550781	0.867188	0.000000	435	16_30_38_4539850
-0.020508	-0.574219	0.038086	-0.365598	-0.646828	-0.609331	0.855469	0.878906	0.222656	436	16_30_38_4701140
-0.014648	-0.591797	0.032227	-0.365598	-0.646828	-0.609331	0.480469	0.878906	-0.035156	437	16_30_38_4862430
-0.026367	-0.580078	0.043945	-0.374973	-0.656202	-0.609331	0.503906	0.867188	-0.082031	438	16_30_38_5023720
-0.011719	-0.574219	0.043945	-0.365598	-0.646828	-0.609331	0.503906	0.914063	-0.105469	439	16_30_38_5185010
-0.011719	-0.580078	0.052734	-0.365598	-0.656202	-0.609331	0.480469	0.902344	-0.093750	440	16_30_38_5346300
-0.005859	-0.571289	0.049805	-0.365598	-0.656202	-0.609331	0.679688	0.855469	-0.023438	441	16_30_38_5507590
-0.023438	-0.577148	0.046875	-0.374973	-0.646828	-0.599956	0.480469	0.867188	-0.046875	442	16_30_38_5668880
-0.020508	-0.583008	0.046875	-0.356224	-0.656202	-0.599956	0.503906	0.890625	-0.058594	443	16_30_38_5830170
-0.020508	-0.585938	0.035156	-0.365598	-0.656202	-0.609331	0.785156	0.890625	0.011719	444	16_30_38_5991460
-0.020508	-0.585938	0.038086	-0.374973	-0.656202	-0.599956	0.503906	0.937500	-0.046875	445	16_30_38_6152750
-0.020508	-0.585938	0.049805	-0.374973	-0.656202	-0.599956	0.503906	0.960938	-0.093750	446	16_30_38_6314040
-0.017578	-0.580078	0.052734	-0.374973	-0.656202	-0.599956	0.738281	0.937500	0.128906	447	16_30_38_6475330
-0.011719	-0.585938	0.046875	-0.374973	-0.656202	-0.609331	0.492188	0.878906	-0.140625	448	16_30_38_6636620
-0.023438	-0.583008	0.043945	-0.374973	-0.656202	-0.599956	0.503906	0.914063	0.152344	449	16_30_38_6797910
-0.005859	-0.583008	0.038086	-0.365598	-0.656202	-0.599956	0.515625	0.902344	-0.105469	450	16_30_38_6959200
-0.005859	-0.580078	0.043945	-0.365598	-0.656202	-0.599956	0.480469	0.832031	-0.093750	451	16_30_38_7120490
-0.011719	-0.568359	0.035156	-0.365598	-0.656202	-0.599956	0.726563	0.820313	-0.011719	452	16_30_38_7281780
-0.023438	-0.574219	0.049805	-0.365598	-0.656202	-0.599956	0.527344	0.937500	-0.070313	453	16_30_38_7443070
-0.020508	-0.583008	0.046875	-0.365598	-0.656202	-0.599956	0.503906	0.902344	-0.070313	454	16_30_38_7604360
-0.005859	-0.571289	0.043945	-0.374973	-0.656202	-0.599956	0.468750	0.914063	-0.070313	455	16_30_38_7765650
-0.017578	-0.580078	0.049805	-0.374973	-0.665577	-0.599956	0.480469	0.937500	-0.105469	456	16_30_38_7926940
-0.014648	-0.568359	0.052734	-0.374973	-0.656202	-0.599956	0.550781	0.949219	-0.093750	457	16_30_38_8088230
-0.011719	-0.580078	0.043945	-0.374973	-0.656202	-0.599956	0.480469	0.937500	-0.082031	458	16_30_38_8249520
-0.008789	-0.583008	0.043945	-0.374973	-0.656202	-0.599956	0.503906	0.960938	-0.105469	459	16_30_38_8410810
-0.014648	-0.577148	0.043945	-0.365598	-0.665577	-0.599956	0.515625	0.937500	-0.082031	460	16_30_38_8572100
-0.017578	-0.580078	0.043945	-0.384347	-0.665577	-0.599956	0.515625	0.914063	-0.082031	461	16_30_38_8733390
-0.005859	-0.580078	0.046875	-0.374973	-0.656202	-0.599956	0.527344	0.902344	-0.082031	462	16_30_38_8894680
-0.020508	-0.568359	0.046875	-0.374973	-0.656202	-0.590582	0.527344	0.925781	-0.058594	463	16_30_38_9055970
-0.014648	-0.565430	0.043945	-0.365598	-0.665577	-0.599956	0.503906	0.937500	-0.058594	464	16_30_38_9217260
-0.017578	-0.565430	0.046875	-0.365598	-0.665577	-0.599956	0.503906	0.960938	-0.070313	465	16_30_38_9378550
-0.014648	-0.580078	0.049805	-0.374973	-0.665577	-0.599956	0.527344	0.949219	-0.023438	466	16_30_38_9539840
-0.005859	-0.568359	0.043945	-0.365598	-0.656202	-0.599956	0.515625	0.890625	-0.046875	467	16_30_38_9701130
-0.017578	-0.571289	0.043945	-0.374973	-0.656202	-0.599956	0.503906	0.902344	-0.046875	468	16_30_38_9862420
-0.008789	-0.583008	0.052734	-0.374973	-0.656202	-0.599956	0.503906	0.914063	-0.082031	469	16_30_39_0023710
-0.011719	-0.583008	0.043945	-0.365598	-0.656202	-0.599956	0.585938	0.843750	0.199219	470	16_30_39_0185000
-0.005859	-0.580078	0.052734	-0.374973	-0.656202	-0.599956	0.492188	0.914063	-0.046875	471	16_30_39_0346290
-0.017578	-0.574219	0.049805	-0.365598	-0.656202	-0.599956	0.480469	0.937500	-0.046875	472	16_30_39_0507580
-0.011719	-0.580078	0.058594	-0.374973	-0.656202	-0.599956	0.480469	0.878906	-0.023438	473	16_30_39_0668870
-0.005859	-0.568359	0.055664	-0.374973	-0.656202	-0.599956	0.492188	0.960938	-0.046875	474	16_30_39_0830160
-0.014648	-0.568359	0.043945	-0.374973	-0.656202	-0.599956	0.527344	0.937500	-0.093750	475	16_30_39_0991450
-0.008789	-0.585938	0.049805	-0.374973	-0.693700	-0.599956	0.867188	0.960938	0.070313	476	16_30_39_1152740
-0.014648	-0.585938	0.041016	-0.374973	-0.665577	-0.599956	0.503906	0.914063	-0.023438	477	16_30_39_1314030
-0.008789	-0.585938	0.038086	-0.374973	-0.656202	-0.599956	0.785156	0.855469	0.292969	478	16_30_39_1475320
-0.011719	-0.577148	0.043945	-0.365598	-0.656202	-0.599956	0.503906	0.796875	-0.023438	479	16_30_39_1636610
-0.008789	-0.580078	0.043945	-0.374973	-0.656202	-0.599956	0.515625	0.914063	-0.023438	480	16_30_39_1797900
-0.011719	-0.568359	0.046875	-0.365598	-0.656202	-0.599956	0.503906	0.914063	-0.082031	481	16_30_39_1959190
-0.011719	-0.580078	0.061523	-0.374973	-0.656202	-0.599956	0.691406	0.937500	-0.023438	482	16_30_39_2120480
-0.017578	-0.574219	0.046875	-0.374973	-0.656202	-0.599956	0.539063	0.867188	-0.035156	483	16_30_39_2281770
-0.011719	-0.571289	0.046875	-0.365598	-0.656202	-0.599956	0.492188	0.925781	-0.035156	484	16_30_39_2443060
-0.011719	-0.568359	0.043945	-0.365598	-0.656202	-0.599956	0.492188	0.937500	-0.070313	485	16_30_39_2604350
-0.008789	-0.583008	0.046875	-0.365598	-0.656202	-0.599956	1.183594	0.878906	0.082031	486	16_30_39_2765640
-0.011719	-0.574219	0.043945	-0.365598	-0.656202	-0.599956	0.503906	0.925781	-0.105469	487	16_30_39_2926930
-0.014648	-0.585938	0.046875	-0.365598	-0.656202	-0.599956	0.527344	0.914063	-0.058594	488	16_30_39_3088220
0.000000	-0.583008	0.046875	-0.374973	-0.656202	-0.599956	0.527344	0.984375	-0.058594	489	16_30_39_3249510
-0.023438	-0.580078	0.038086	-0.374973	-0.656202	-0.599956	0.527344	0.914063	-0.046875	490	16_30_39_3410800
-0.005859	-0.585938	0.043945	-0.365598	-0.656202	-0.599956	0.480469	0.855469	-0.023438	491	16_30_39_3572090
-0.005859	-0.583008	0.055664	-0.374973	-0.665577	-0.609331	0.503906	0.890625	0.082031	492	16_30_39_3733380
-0.014648	-0.568359	0.055664	-0.365598	-0.665577	-0.609331	0.503906	0.937500	-0.058594	493	16_30_39_3894670
-0.014648	-0.571289	0.046875	-0.374973	-0.656202	-0.599956	0.480469	0.984375	-0.058594	494	16_30_39_4055960
-0.008789	-0.577148	0.055664	-0.374973	-0.656202	-0.599956	0.480469	0.960938	-0.011719	495	16_30_39_4217250
-0.020508	-0.574219	0.038086	-0.365598	-0.656202	-0.609331	1.019531	0.914063	0.164063	496	16_30_39_4378540
-0.008789	-0.580078	0.041016	-0.365598	-0.656202	-0.599956	0.503906	0.960938	-0.058594	497	16_30_39_4539830
-0.017578	-0.580078	0.055664	-0.365598	-0.665577	-0.599956	0.503906	0.937500	-0.093750	498	16_30_39_4701120
-0.008789	-0.588867	0.046875	-0.365598	-0.665577	-0.599956	0.480469	0.890625	-0.070313	499	16_30_39_4862410
-0.005859	-0.571289	0.055664	-0.365598	-0.656202	-0.599956	0.527344	0.832031	-0.058594	500	16_30_39_5023700
-0.014648	-0.583008	0.043945	-0.365598	-0.656202	-0.599956	0.503906	0.890625	-0.035156	501	16_30_39_5184990
-0.008789	-0.583008	0.038086	-0.365598	-0.665577	-0.599956	0.503906	0.890625	-0.046875	502	16_30_39_5346280
-0.008789	-0.580078	0.041016	-0.374973	-0.656202	-0.599956	0.527344	0.843750	-0.058594	503	16_30_39_5507570
-0.011719	-0.571289	0.049805	-0.374973	-0.665577	-0.599956	0.714844	0.890625	-0.023438	504	16_30_39_5668860
0.000000	-0.571289	0.049805	-0.374973	-0.656202	-0.599956	0.492188	0.914063	-0.093750	505	16_30_39_5830150
-0.017578	-0.571289	0.046875	-0.365598	-0.665577	-0.599956	0.480469	0.902344	-0.046875	506	16_30_39_5991440
-0.020508	-0.574219	0.046875	-0.374973	-0.656202	-0.599956	0.527344	0.972656	-0.023438	507	16_30_39_6152730
-0.014648	-0.571289	0.041016	-0.365598	-0.665577	-0.599956	0.515625	0.925781	-0.058594	508	16_30_39_6314020
-0.005859	-0.574219	0.043945	-0.365598	-0.665577	-0.599956	0.480469	0.902344	-0.105469	509	16_30_39_6475310
0.000000	-0.580078	0.049805	-0.365598	-0.656202	-0.599956	0.550781	0.867188	-0.058594	510	16_30_39_6636600
-0.017578	-0.583008	0.041016	-0.365598	-0.684325	-0.599956	0.515625	0.890625	-0.046875	511	16_30_39_6797890
-0.014648	-0.591797	0.043945	-0.365598	-0.656202	-0.599956	0.527344	0.843750	-0.046875	512	16_30_39_6959180
-0.008789	-0.580078	0.038086	-0.365598	-0.656202	-0.599956	0.503906	0.808594	-0.058594	513	16_30_39_7120470
-0.005859	-0.565430	0.043945	-0.374973	-0.656202	-0.599956	0.503906	0.796875	-0.093750	514	16_30_39_7281760
-0.005859	-0.583008	0.046875	-0.365598	-0.656202	-0.599956	0.492188	0.820313	-0.082031	515	16_30_39_7443050
-0.014648	-0.588867	0.043945	-0.365598	-0.656202	-0.599956	0.503906	0.902344	-0.082031	516	16_30_39_7604340
-0.014648	-0.574219	0.061523	-0.365598	-0.656202	-0.599956	0.527344	0.984375	-0.058594	517	16_30_39_7765630
-0.008789	-0.574219	0.041016	-0.365598	-0.665577	-0.599956	0.480469	0.972656	-0.046875	518	16_30_39_7926920
-0.017578	-0.580078	0.046875	-0.374973	-0.656202	-0.599956	0.480469	0.937500	-0.070313	519	16_30_39_8088210
-0.005859	-0.574219	0.046875	-0.365598	-0.656202	-0.599956	0.480469	0.902344	-0.082031	520	16_30_39_8249500
-0.017578	-0.577148	0.043945	-0.374973	-0.656202	-0.599956	0.585938	0.960938	-0.070313	521	16_30_39_8410790
-0.005859	-0.580078	0.049805	-0.365598	-0.656202	-0.599956	0.503906	0.890625	0.234375	522	16_30_39_8572080
-0.017578	-0.577148	0.046875	-0.356224	-0.656202	-0.599956	0.644531	0.878906	-0.035156	523	16_30_39_8733370
-0.011719	-0.574219	0.049805	-0.365598	-0.656202	-0.599956	0.480469	0.843750	-0.082031	524	16_30_39_8894660
-0.020508	-0.583008	0.041016	-0.365598	-0.656202	-0.599956	0.550781	0.914063	-0.070313	525	16_30_39_9055950
-0.002930	-0.577148	0.049805	-0.365598	-0.656202	-0.599956	0.527344	0.914063	-0.105469	526	16_30_39_9217240
-0.011719	-0.580078	0.049805	-0.365598	-0.665577	-0.599956	0.808594	0.925781	0.082031	527	16_30_39_9378530
-0.008789	-0.580078	0.046875	-0.365598	-0.656202	-0.599956	0.480469	0.937500	-0.011719	528	16_30_39_9539820
-0.026367	-0.583008	0.043945	-0.365598	-0.656202	-0.599956	1.019531	0.937500	0.152344	529	16_30_39_9701110
-0.020508	-0.580078	0.046875	-0.365598	-0.656202	-0.599956	0.503906	0.890625	-0.058594	530	16_30_39_9862400
-0.014648	-0.580078	0.043945	-0.365598	-0.656202	-0.599956	0.562500	0.937500	-0.046875	531	16_30_40_0023690
-0.005859	-0.580078	0.041016	-0.365598	-0.656202	-0.599956	0.480469	0.890625	0.234375	532	16_30_40_0184980
-0.002930	-0.583008	0.049805	-0.365598	-0.665577	-0.599956	0.480469	0.902344	-0.046875	533	16_30_40_0346270
-0.011719	-0.577148	0.043945	-0.365598	-0.665577	-0.599956	0.503906	0.972656	-0.011719	534	16_30_40_0507560
-0.008789	-0.568359	0.049805	-0.365598	-0.665577	-0.599956	0.457031	0.914063	-0.070313	535	16_30_40_0668850
-0.014648	-0.571289	0.049805	-0.365598	-0.665577	-0.609331	0.714844	0.890625	-0.011719	536	16_30_40_0830140
0.000000	-0.574219	0.041016	-0.365598	-0.656202	-0.609331	0.527344	0.937500	-0.058594	537	16_30_40_0991430
-0.020508	-0.583008	0.041016	-0.365598	-0.656202	-0.599956	0.480469	0.937500	-0.058594	538	16_30_40_1152720
-0.026367	-0.574219	0.043945	-0.365598	-0.656202	-0.599956	1.148438	0.890625	0.222656	539	16_30_40_1314010
-0.014648	-0.580078	0.043945	-0.365598	-0.656202	-0.609331	0.480469	0.867188	-0.070313	540	16_30_40_1475300
-0.011719	-0.571289	0.049805	-0.374973	-0.656202	-0.609331	0.808594	0.890625	0.222656	541	16_30_40_1636590
-0.017578	-0.574219	0.038086	-0.374973	-0.656202	-0.609331	0.492188	0.937500	-0.058594	542	16_30_40_1797880
-0.017578	-0.568359	0.055664	-0.365598	-0.656202	-0.609331	0.480469	0.937500	-0.058594	543	16_30_40_1959170
-0.017578	-0.577148	0.043945	-0.374973	-0.656202	-0.599956	0.457031	0.890625	-0.035156	544	16_30_40_2120460
-0.017578	-0.568359	0.046875	-0.374973	-0.656202	-0.599956	0.527344	0.867188	-0.058594	545	16_30_40_2281750
-0.011719	-0.580078	0.043945	-0.365598	-0.656202	-0.599956	0.480469	0.843750	-0.117188	546	16_30_40_2443040
-0.005859	-0.580078	0.038086	-0.374973	-0.656202	-0.599956	0.480469	0.878906	-0.128906	547	16_30_40_2604330
-0.017578	-0.580078	0.043945	-0.365598	-0.656202	-0.599956	0.515625	0.902344	-0.093750	548	16_30_40_2765620
-0.011719	-0.577148	0.035156	-0.365598	-0.637454	-0.599956	0.960938	0.902344	0.070313	549	16_30_40_2926910
-0.023438	-0.580078	0.035156	-0.365598	-0.646828	-0.599956	0.503906	0.878906	-0.070313	550	16_30_40_3088200
-0.011719	-0.574219	0.041016	-0.365598	-0.656202	-0.599956	0.515625	0.855469	-0.046875	551	16_30_40_3249490
-0.014648	-0.571289	0.046875	-0.374973	-0.656202	-0.599956	0.503906	0.890625	-0.070313	552	16_30_40_3410780
-0.008789	-0.571289	0.043945	-0.365598	-0.656202	-0.590582	0.503906	0.914063	-0.082031	553	16_30_40_3572070
-0.032227	-0.580078	0.035156	-0.365598	-0.646828	-0.599956	0.503906	0.878906	-0.093750	554	16_30_40_3733360
-0.014648	-0.585938	0.052734	-0.365598	-0.656202	-0.599956	0.492188	0.902344	-0.082031	555	16_30_40_3894650
-0.014648	-0.585938	0.046875	-0.365598	-0.656202	-0.599956	0.691406	0.867188	-0.035156	556	16_30_40_4055940
-0.032227	-0.580078	0.046875	-0.365598	-0.656202	-0.599956	0.515625	0.890625	-0.070313	557	16_30_40_4217230
-0.032227	-0.583008	0.052734	-0.365598	-0.656202	-0.599956	0.527344	0.902344	-0.058594	558	16_30_40_4378520
-0.020508	-0.583008	0.049805	-0.365598	-0.656202	-0.599956	0.550781	0.867188	-0.035156	559	16_30_40_4539810
-0.014648	-0.580078	0.041016	-0.365598	-0.665577	-0.599956	0.503906	0.878906	-0.035156	560	16_30_40_4701100
-0.020508	-0.577148	0.041016	-0.365598	-0.665577	-0.599956	0.480469	0.890625	-0.082031	561	16_30_40_4862390
-0.017578	-0.580078	0.035156	-0.374973	-0.674951	-0.599956	0.562500	0.867188	-0.093750	562	16_30_40_5023680
-0.005859	-0.583008	0.038086	-0.365598	-0.674951	-0.599956	0.539063	0.949219	0.316406	563	16_30_40_5184970
-0.011719	-0.574219	0.038086	-0.365598	-0.665577	-0.590582	0.597656	0.925781	0.199219	564	16_30_40_5346260
-0.005859	-0.574219	0.041016	-0.374973	-0.665577	-0.599956	0.503906	0.867188	0.011719	565	16_30_40_5507550
-0.011719	-0.577148	0.041016	-0.374973	-0.656202	-0.590582	0.667969	0.914063	0.035156	566	16_30_40_5668840
-0.017578	-0.574219	0.043945	-0.374973	-0.665577	-0.590582	0.503906	0.914063	-0.023438	567	16_30_40_5830130
-0.014648	-0.571289	0.041016	-0.374973	-0.665577	-0.590582	0.480469	0.902344	-0.035156	568	16_30_40_5991420
-0.011719	-0.577148	0.038086	-0.365598	-0.656202	-0.599956	0.480469	0.890625	-0.023438	569	16_30_40_6152710
-0.008789	-0.591797	0.041016	-0.365598	-0.656202	-0.590582	0.515625	0.914063	-0.058594	570	16_30_40_6314000
-0.005859	-0.580078	0.038086	-0.365598	-0.656202	-0.599956	0.480469	0.914063	-0.093750	571	16_30_40_6475290
-0.005859	-0.583008	0.043945	-0.374973	-0.656202	-0.599956	0.480469	0.937500	-0.082031	572	16_30_40_6636580
-0.011719	-0.574219	0.049805	-0.374973	-0.656202	-0.599956	0.480469	0.949219	-0.023438	573	16_30_40_6797870
-0.008789	-0.577148	0.049805	-0.374973	-0.656202	-0.599956	0.539063	0.855469	0.199219	574	16_30_40_6959160
-0.005859	-0.574219	0.041016	-0.365598	-0.656202	-0.599956	0.667969	0.820313	0.187500	575	16_30_40_7120450
-0.014648	-0.568359	0.046875	-0.365598	-0.646828	-0.599956	0.539063	0.902344	-0.011719	576	16_30_40_7281740
-0.002930	-0.574219	0.046875	-0.365598	-0.656202	-0.599956	0.457031	0.925781	-0.105469	577	16_30_40_7443030
-0.011719	-0.574219	0.046875	-0.356224	-0.656202	-0.599956	0.515625	0.914063	-0.117188	578	16_30_40_7604320
-0.017578	-0.577148	0.049805	-0.365598	-0.656202	-0.599956	0.761719	0.855469	0.011719	579	16_30_40_7765610
-0.011719	-0.574219	0.041016	-0.374973	-0.656202	-0.599956	0.503906	0.902344	-0.082031	580	16_30_40_7926900
-0.005859	-0.580078	0.038086	-0.365598	-0.656202	-0.599956	0.480469	0.890625	-0.082031	581	16_30_40_8088190
-0.017578	-0.580078	0.046875	-0.365598	-0.656202	-0.599956	0.527344	0.937500	-0.093750	582	16_30_40_8249480
-0.011719	-0.574219	0.043945	-0.365598	-0.656202	-0.599956	0.503906	0.937500	-0.070313	583	16_30_40_8410770
-0.008789	-0.585938	0.038086	-0.365598	-0.665577	-0.599956	0.503906	0.902344	-0.023438	584	16_30_40_8572060
-0.008789	-0.580078	0.052734	-0.374973	-0.656202	-0.599956	0.679688	0.902344	0.257813	585	16_30_40_8733350
-0.014648	-0.574219	0.043945	-0.374973	-0.656202	-0.599956	0.503906	0.902344	-0.070313	586	16_30_40_8894640
-0.002930	-0.580078	0.049805	-0.365598	-0.665577	-0.599956	0.480469	0.867188	-0.046875	587	16_30_40_9055930
-0.008789	-0.580078	0.038086	-0.365598	-0.656202	-0.599956	0.503906	0.914063	-0.023438	588	16_30_40_9217220
-0.011719	-0.577148	0.035156	-0.365598	-0.665577	-0.599956	0.855469	0.914063	0.058594	589	16_30_40_9378510
-0.011719	-0.591797	0.046875	-0.365598	-0.656202	-0.609331	0.480469	0.914063	-0.082031	590	16_30_40_9539800
-0.011719	-0.580078	0.046875	-0.365598	-0.656202	-0.609331	1.148438	0.937500	0.140625	591	16_30_40_9701090
-0.020508	-0.580078	0.038086	-0.374973	-0.646828	-0.609331	0.492188	0.890625	-0.046875	592	16_30_40_9862380
-0.029297	-0.580078	0.038086	-0.365598	-0.656202	-0.609331	0.761719	0.902344	0.199219	593	16_30_41_0023670
-0.017578	-0.580078	0.038086	-0.365598	-0.656202	-0.609331	0.503906	0.914063	-0.117188	594	16_30_41_0184960
-0.017578	-0.580078	0.041016	-0.374973	-0.656202	-0.599956	0.480469	0.902344	-0.093750	595	16_30_41_0346250
-0.008789	-0.574219	0.052734	-0.365598	-0.656202	-0.609331	0.480469	0.960938	-0.035156	596	16_30_41_0507540
-0.011719	-0.574219	0.041016	-0.365598	-0.656202	-0.599956	0.644531	0.902344	-0.023438	597	16_30_41_0668830
-0.005859	-0.585938	0.043945	-0.374973	-0.646828	-0.599956	0.503906	0.960938	-0.058594	598	16_30_41_0830120
0.000000	-0.583008	0.052734	-0.365598	-0.656202	-0.599956	0.503906	0.855469	0.000000	599	16_30_41_0991410
-0.011719	-0.580078	0.046875	-0.365598	-0.646828	-0.599956	0.796875	0.843750	0.105469	600	16_30_41_1152700
-0.020508	-0.591797	0.055664	-0.374973	-0.656202	-0.599956	0.503906	0.914063	-0.011719	601	16_30_41_1313990
-0.017578	-0.580078	0.049805	-0.374973	-0.656202	-0.599956	0.527344	0.937500	-0.011719	602	16_30_41_1475280
-0.026367	-0.580078	0.049805	-0.374973	-0.656202	-0.599956	0.480469	0.914063	-0.023438	603	16_30_41_1636570
-0.017578	-0.585938	0.043945	-0.365598	-0.656202	-0.599956	0.691406	0.925781	0.234375	604	16_30_41_1797860
-0.005859	-0.580078	0.038086	-0.374973	-0.656202	-0.599956	0.480469	0.914063	-0.011719	605	16_30_41_1959150
-0.011719	-0.585938	0.043945	-0.365598	-0.656202	-0.599956	0.503906	0.878906	-0.058594	606	16_30_41_2120440
-0.014648	-0.580078	0.043945	-0.365598	-0.656202	-0.599956	0.515625	0.925781	-0.058594	607	16_30_41_2281730
0.000000	-0.577148	0.046875	-0.374973	-0.656202	-0.599956	0.480469	0.960938	-0.035156	608	16_30_41_2443020
-0.017578	-0.580078	0.046875	-0.365598	-0.656202	-0.599956	0.503906	0.820313	-0.046875	609	16_30_41_2604310
-0.017578	-0.568359	0.043945	-0.365598	-0.656202	-0.599956	0.480469	0.820313	-0.023438	610	16_30_41_2765600
-0.020508	-0.568359	0.041016	-0.365598	-0.656202	-0.609331	0.878906	0.914063	0.070313	611	16_30_41_2926890
-0.014648	-0.574219	0.032227	-0.365598	-0.656202	-0.599956	0.480469	0.937500	-0.046875	612	16_30_41_3088180
-0.017578	-0.580078	0.046875	-0.365598	-0.665577	-0.599956	0.503906	0.914063	-0.035156	613	16_30_41_3249470
-0.011719	-0.574219	0.052734	-0.365598	-0.656202	-0.599956	0.457031	0.937500	-0.046875	614	16_30_41_3410760
-0.011719	-0.571289	0.049805	-0.374973	-0.656202	-0.599956	0.503906	0.937500	-0.070313	615	16_30_41_3572050
-0.017578	-0.591797	0.043945	-0.374973	-0.656202	-0.599956	0.527344	0.867188	0.199219	616	16_30_41_3733340
-0.014648	-0.568359	0.046875	-0.374973	-0.656202	-0.599956	0.480469	0.855469	-0.058594	617	16_30_41_3894630
-0.008789	-0.585938	0.046875	-0.365598	-0.646828	-0.599956	0.480469	0.937500	-0.046875	618	16_30_41_4055920
-0.020508	-0.574219	0.038086	-0.365598	-0.656202	-0.599956	0.503906	0.914063	0.000000	619	16_30_41_4217210
-0.020508	-0.583008	0.046875	-0.365598	-0.656202	-0.599956	0.480469	0.808594	-0.035156	620	16_30_41_4378500
-0.005859	-0.577148	0.038086	-0.365598	-0.656202	-0.599956	0.515625	0.867188	-0.093750	621	16_30_41_4539790
-0.014648	-0.574219	0.041016	-0.374973	-0.656202	-0.599956	0.515625	0.960938	-0.070313	622	16_30_41_4701080
-0.008789	-0.580078	0.043945	-0.365598	-0.656202	-0.599956	1.042969	0.914063	0.234375	623	16_30_41_4862370
-0.017578	-0.585938	0.041016	-0.365598	-0.656202	-0.599956	0.503906	0.890625	-0.105469	624	16_30_41_5023660
-0.020508	-0.574219	0.046875	-0.374973	-0.656202	-0.599956	0.503906	0.890625	-0.070313	625	16_30_41_5184950
-0.011719	-0.580078	0.046875	-0.365598	-0.656202	-0.599956	0.515625	0.890625	-0.058594	626	16_30_41_5346240
-0.011719	-0.574219	0.038086	-0.356224	-0.656202	-0.599956	0.492188	0.902344	-0.058594	627	16_30_41_5507530
0.000000	-0.574219	0.049805	-0.365598	-0.665577	-0.599956	0.515625	0.890625	-0.011719	628	16_30_41_5668820
-0.014648	-0.568359	0.046875	-0.365598	-0.656202	-0.599956	0.503906	0.902344	0.011719	629	16_30_41_5830110
-0.020508	-0.574219	0.038086	-0.365598	-0.656202	-0.599956	0.492188	0.902344	-0.011719	630	16_30_41_5991400
-0.014648	-0.583008	0.043945	-0.365598	-0.656202	-0.599956	0.527344	0.937500	-0.046875	631	16_30_41_6152690
0.000000	-0.580078	0.043945	-0.365598	-0.656202	-0.599956	0.480469	0.855469	-0.070313	632	16_30_41_6313980
-0.011719	-0.574219	0.046875	-0.365598	-0.656202	-0.599956	0.480469	0.843750	-0.082031	633	16_30_41_6475270
-0.011719	-0.568359	0.049805	-0.374973	-0.656202	-0.599956	0.480469	0.878906	-0.046875	634	16_30_41_6636560
-0.014648	-0.574219	0.041016	-0.374973	-0.646828	-0.599956	0.515625	0.914063	-0.023438	635	16_30_41_6797850
-0.017578	-0.571289	0.038086	-0.365598	-0.656202	-0.599956	0.527344	0.902344	-0.035156	636	16_30_41_6959140
-0.017578	-0.580078	0.043945	-0.365598	-0.656202	-0.599956	0.562500	0.878906	0.222656	637	16_30_41_7120430
-0.008789	-0.571289	0.046875	-0.365598	-0.656202	-0.599956	0.515625	0.914063	0.046875	638	16_30_41_7281720
-0.002930	-0.583008	0.041016	-0.365598	-0.665577	-0.599956	0.503906	0.949219	-0.046875	639	16_30_41_7443010
-0.011719	-0.580078	0.043945	-0.365598	-0.656202	-0.599956	0.480469	0.914063	-0.058594	640	16_30_41_7604300
0.002930	-0.580078	0.038086	-0.365598	-0.656202	-0.599956	0.492188	0.867188	-0.035156	641	16_30_41_7765590
-0.002930	-0.580078	0.038086	-0.365598	-0.646828	-0.599956	0.480469	0.949219	-0.011719	642	16_30_41_7926880
-0.008789	-0.583008	0.043945	-0.365598	-0.656202	-0.599956	0.503906	0.925781	-0.058594	643	16_30_41_8088170
-0.008789	-0.571289	0.046875	-0.365598	-0.656202	-0.599956	0.480469	0.890625	-0.082031	644	16_30_41_8249460
-0.008789	-0.588867	0.041016	-0.365598	-0.656202	-0.599956	0.820313	0.843750	0.222656	645	16_30_41_8410750
-0.011719	-0.574219	0.049805	-0.374973	-0.656202	-0.599956	0.480469	0.960938	-0.011719	646	16_30_41_8572040
-0.020508	-0.577148	0.041016	-0.365598	-0.656202	-0.599956	0.632813	0.960938	-0.011719	647	16_30_41_8733330
-0.017578	-0.568359	0.041016	-0.374973	-0.656202	-0.599956	0.480469	0.925781	-0.070313	648	16_30_41_8894620
-0.020508	-0.571289	0.046875	-0.365598	-0.665577	-0.599956	0.503906	0.890625	-0.058594	649	16_30_41_9055910
-0.014648	-0.580078	0.049805	-0.365598	-0.656202	-0.599956	0.492188	0.902344	-0.035156	650	16_30_41_9217200
-0.017578	-0.577148	0.041016	-0.365598	-0.656202	-0.599956	0.503906	0.960938	-0.070313	651	16_30_41_9378490
-0.017578	-0.583008	0.035156	-0.365598	-0.656202	-0.599956	0.480469	0.914063	-0.082031	652	16_30_41_9539780
-0.011719	-0.568359	0.038086	-0.365598	-0.656202	-0.599956	1.101563	0.914063	0.105469	653	16_30_41_9701070
-0.017578	-0.568359	0.038086	-0.365598	-0.656202	-0.599956	0.527344	0.914063	-0.105469	654	16_30_41_9862360
-0.011719	-0.571289	0.043945	-0.365598	-0.656202	-0.599956	0.468750	0.878906	-0.093750	655	16_30_42_0023650
-0.008789	-0.580078	0.043945	-0.365598	-0.656202	-0.599956	0.632813	0.890625	0.199219	656	16_30_42_0184940
-0.008789	-0.585938	0.041016	-0.365598	-0.665577	-0.599956	0.515625	0.937500	-0.058594	657	16_30_42_0346230
-0.017578	-0.580078	0.046875	-0.365598	-0.656202	-0.599956	0.492188	0.890625	-0.046875	658	16_30_42_0507520
-0.011719	-0.568359	0.043945	-0.374973	-0.656202	-0.599956	0.480469	0.855469	-0.058594	659	16_30_42_0668810
-0.008789	-0.577148	0.046875	-0.365598	-0.656202	-0.599956	0.691406	0.960938	-0.046875	660	16_30_42_0830100
-0.020508	-0.574219	0.058594	-0.374973	-0.656202	-0.599956	0.515625	0.914063	-0.093750	661	16_30_42_0991390
-0.011719	-0.580078	0.038086	-0.365598	-0.656202	-0.599956	0.503906	0.843750	-0.046875	662	16_30_42_1152680
-0.011719	-0.583008	0.046875	-0.365598	-0.656202	-0.599956	0.503906	0.902344	-0.058594	663	16_30_42_1313970
-0.014648	-0.568359	0.043945	-0.374973	-0.656202	-0.609331	0.480469	0.914063	-0.058594	664	16_30_42_1475260
-0.017578	-0.568359	0.055664	-0.365598	-0.656202	-0.599956	0.574219	0.855469	-0.058594	665	16_30_42_1636550
-0.011719	-0.574219	0.041016	-0.374973	-0.656202	-0.599956	0.503906	0.878906	-0.105469	666	16_30_42_1797840
-0.020508	-0.574219	0.043945	-0.365598	-0.665577	-0.599956	0.480469	0.878906	-0.105469	667	16_30_42_1959130
-0.020508	-0.577148	0.046875	-0.365598	-0.656202	-0.599956	0.480469	0.867188	-0.093750	668	16_30_42_2120420
-0.017578	-0.574219	0.049805	-0.374973	-0.656202	-0.609331	0.480469	0.890625	-0.082031	669	16_30_42_2281710
-0.020508	-0.585938	0.043945	-0.365598	-0.656202	-0.599956	0.691406	0.914063	-0.011719	670	16_30_42_2443000
-0.014648	-0.568359	0.052734	-0.365598	-0.656202	-0.599956	0.785156	0.914063	0.011719	671	16_30_42_2604290
-0.008789	-0.577148	0.043945	-0.374973	-0.656202	-0.599956	0.644531	0.925781	-0.046875	672	16_30_42_2765580
-0.020508	-0.571289	0.049805	-0.365598	-0.656202	-0.599956	0.480469	0.902344	-0.058594	673	16_30_42_2926870
-0.008789	-0.568359	0.038086	-0.356224	-0.656202	-0.599956	0.503906	0.867188	-0.011719	674	16_30_42_3088160
-0.005859	-0.571289	0.038086	-0.365598	-0.665577	-0.599956	0.457031	0.796875	-0.035156	675	16_30_42_3249450
-0.011719	-0.580078	0.041016	-0.365598	-0.665577	-0.599956	0.468750	0.820313	-0.046875	676	16_30_42_3410740
-0.008789	-0.580078	0.043945	-0.365598	-0.656202	-0.599956	0.503906	0.902344	-0.046875	677	16_30_42_3572030
-0.005859	-0.574219	0.032227	-0.374973	-0.656202	-0.599956	0.492188	0.925781	-0.035156	678	16_30_42_3733320
-0.017578	-0.577148	0.043945	-0.365598	-0.656202	-0.599956	0.457031	0.890625	-0.046875	679	16_30_42_3894610
-0.014648	-0.580078	0.043945	-0.374973	-0.656202	-0.609331	0.503906	0.914063	-0.070313	680	16_30_42_4055900
-0.008789	-0.577148	0.046875	-0.374973	-0.656202	-0.599956	0.503906	0.890625	-0.082031	681	16_30_42_4217190
-0.002930	-0.577148	0.041016	-0.365598	-0.665577	-0.609331	0.527344	0.914063	-0.093750	682	16_30_42_4378480
-0.017578	-0.568359	0.043945	-0.374973	-0.656202	-0.609331	0.679688	0.843750	-0.035156	683	16_30_42_4539770
-0.029297	-0.568359	0.043945	-0.365598	-0.656202	-0.599956	0.527344	0.867188	-0.105469	684	16_30_42_4701060
-0.005859	-0.577148	0.046875	-0.365598	-0.646828	-0.590582	0.503906	0.937500	-0.093750	685	16_30_42_4862350
-0.008789	-0.574219	0.049805	-0.365598	-0.646828	-0.599956	0.503906	0.878906	-0.105469	686	16_30_42_5023640
-0.017578	-0.580078	0.049805	-0.365598	-0.656202	-0.599956	0.503906	0.843750	-0.105469	687	16_30_42_5184930
-0.011719	-0.577148	0.043945	-0.365598	-0.656202	-0.599956	0.503906	0.820313	-0.093750	688	16_30_42_5346220
-0.014648	-0.562500	0.052734	-0.374973	-0.656202	-0.599956	0.503906	0.761719	0.117188	689	16_30_42_5507510
-0.014648	-0.571289	0.043945	-0.365598	-0.656202	-0.599956	0.527344	0.808594	-0.140625	690	16_30_42_5668800
-0.017578	-0.580078	0.043945	-0.365598	-0.656202	-0.599956	0.503906	0.843750	-0.140625	691	16_30_42_5830090
-0.014648	-0.585938	0.038086	-0.365598	-0.656202	-0.599956	0.515625	0.867188	-0.117188	692	16_30_42_5991380
-0.008789	-0.580078	0.043945	-0.365598	-0.665577	-0.599956	0.480469	0.855469	-0.128906	693	16_30_42_6152670
-0.011719	-0.580078	0.038086	-0.365598	-0.656202	-0.599956	0.503906	0.855469	-0.093750	694	16_30_42_6313960
-0.005859	-0.583008	0.041016	-0.365598	-0.656202	-0.599956	0.503906	0.878906	-0.105469	695	16_30_42_6475250
-0.011719	-0.577148	0.043945	-0.365598	-0.656202	-0.599956	1.007813	0.937500	0.199219	696	16_30_42_6636540
-0.011719	-0.574219	0.029297	-0.374973	-0.656202	-0.599956	0.480469	0.949219	-0.082031	697	16_30_42_6797830
-0.014648	-0.583008	0.041016	-0.365598	-0.656202	-0.599956	0.585938	0.890625	-0.046875	698	16_30_42_6959120
-0.011719	-0.580078	0.043945	-0.365598	-0.656202	-0.599956	0.515625	0.902344	-0.046875	699	16_30_42_7120410
-0.014648	-0.571289	0.041016	-0.374973	-0.656202	-0.599956	0.527344	0.890625	-0.082031	700	16_30_42_7281700
-0.005859	-0.574219	0.038086	-0.374973	-0.656202	-0.599956	0.632813	0.867188	-0.058594	701	16_30_42_7442990
-0.014648	-0.583008	0.043945	-0.365598	-0.665577	-0.609331	0.480469	0.867188	-0.093750	702	16_30_42_7604280
-0.005859	-0.574219	0.035156	-0.365598	-0.656202	-0.609331	0.480469	0.890625	-0.023438	703	16_30_42_7765570
-0.020508	-0.574219	0.043945	-0.393721	-0.656202	-0.609331	0.832031	0.937500	0.093750	704	16_30_42_7926860
-0.014648	-0.574219	0.043945	-0.365598	-0.656202	-0.599956	0.539063	0.949219	0.000000	705	16_30_42_8088150
-0.026367	-0.585938	0.043945	-0.365598	-0.656202	-0.599956	0.480469	0.960938	0.000000	706	16_30_42_8249440
-0.017578	-0.583008	0.046875	-0.365598	-0.656202	-0.599956	0.527344	0.937500	-0.035156	707	16_30_42_8410730
-0.005859	-0.577148	0.046875	-0.374973	-0.656202	-0.599956	0.480469	0.878906	-0.023438	708	16_30_42_8572020
-0.005859	-0.580078	0.049805	-0.365598	-0.656202	-0.599956	0.503906	0.949219	-0.082031	709	16_30_42_8733310
-0.011719	-0.580078	0.041016	-0.374973	-0.656202	-0.599956	0.503906	0.949219	-0.128906	710	16_30_42_8894600
-0.005859	-0.577148	0.043945	-0.374973	-0.665577	-0.599956	0.492188	0.937500	-0.082031	711	16_30_42_9055890
-0.008789	-0.577148	0.043945	-0.374973	-0.665577	-0.599956	0.550781	0.902344	-0.082031	712	16_30_42_9217180
-0.011719	-0.571289	0.035156	-0.374973	-0.656202	-0.599956	0.527344	0.914063	-0.070313	713	16_30_42_9378470
-0.008789	-0.577148	0.043945	-0.365598	-0.656202	-0.609331	0.539063	0.960938	-0.070313	714	16_30_42_9539760
0.002930	-0.583008	0.043945	-0.365598	-0.656202	-0.599956	0.843750	0.949219	0.011719	715	16_30_42_9701050
-0.020508	-0.574219	0.035156	-0.374973	-0.656202	-0.599956	0.480469	0.890625	-0.070313	716	16_30_42_9862340
-0.008789	-0.585938	0.046875	-0.365598	-0.656202	-0.599956	0.503906	0.914063	-0.058594	717	16_30_43_0023630
-0.008789	-0.577148	0.041016	-0.365598	-0.656202	-0.599956	0.503906	0.937500	-0.058594	718	16_30_43_0184920
-0.011719	-0.574219	0.038086	-0.365598	-0.656202	-0.599956	0.480469	0.902344	-0.011719	719	16_30_43_0346210
-0.008789	-0.577148	0.041016	-0.374973	-0.665577	-0.599956	0.621094	0.914063	0.257813	720	16_30_43_0507500
-0.011719	-0.577148	0.046875	-0.365598	-0.656202	-0.599956	0.503906	0.914063	-0.082031	721	16_30_43_0668790
-0.020508	-0.583008	0.041016	-0.356224	-0.656202	-0.599956	0.480469	0.914063	-0.046875	722	16_30_43_0830080
-0.017578	-0.571289	0.038086	-0.365598	-0.656202	-0.599956	0.527344	0.878906	-0.035156	723	16_30_43_0991370
-0.023438	-0.568359	0.038086	-0.374973	-0.656202	-0.599956	0.527344	0.878906	-0.011719	724	16_30_43_1152660
-0.008789	-0.577148	0.041016	-0.365598	-0.665577	-0.599956	0.503906	0.890625	-0.011719	725	16_30_43_1313950
-0.011719	-0.574219	0.035156	-0.374973	-0.656202	-0.599956	0.527344	0.937500	-0.082031	726	16_30_43_1475240
-0.005859	-0.583008	0.049805	-0.365598	-0.656202	-0.599956	0.527344	0.949219	-0.046875	727	16_30_43_1636530
-0.008789	-0.577148	0.035156	-0.365598	-0.656202	-0.599956	0.480469	0.867188	-0.035156	728	16_30_43_1797820
-0.005859	-0.580078	0.043945	-0.365598	-0.656202	-0.599956	0.492188	0.890625	-0.082031	729	16_30_43_1959110
-0.017578	-0.580078	0.038086	-0.374973	-0.656202	-0.599956	0.480469	0.937500	0.269531	730	16_30_43_2120400
-0.008789	-0.568359	0.038086	-0.365598	-0.656202	-0.599956	0.503906	0.925781	-0.023438	731	16_30_43_2281690
-0.023438	-0.574219	0.049805	-0.365598	-0.656202	-0.599956	0.527344	0.937500	0.046875	732	16_30_43_2442980
-0.008789	-0.580078	0.049805	-0.365598	-0.656202	-0.609331	0.761719	0.925781	0.011719	733	16_30_43_2604270
-0.008789	-0.577148	0.046875	-0.365598	-0.665577	-0.599956	0.679688	0.890625	0.011719	734	16_30_43_2765560
-0.008789	-0.580078	0.049805	-0.365598	-0.665577	-0.599956	0.539063	0.878906	-0.093750	735	16_30_43_2926850
-0.005859	-0.571289	0.043945	-0.365598	-0.656202	-0.599956	0.492188	0.890625	-0.058594	736	16_30_43_3088140
-0.005859	-0.574219	0.046875	-0.365598	-0.656202	-0.599956	0.480469	0.867188	-0.035156	737	16_30_43_3249430
-0.002930	-0.580078	0.046875	-0.365598	-0.656202	-0.599956	0.480469	0.843750	-0.058594	738	16_30_43_3410720
-0.005859	-0.568359	0.041016	-0.365598	-0.656202	-0.599956	0.480469	0.937500	-0.093750	739	16_30_43_3572010
-0.017578	-0.574219	0.052734	-0.365598	-0.656202	-0.599956	0.503906	0.925781	-0.070313	740	16_30_43_3733300
-0.017578	-0.577148	0.043945	-0.374973	-0.665577	-0.599956	0.492188	0.937500	-0.035156	741	16_30_43_3894590
-0.008789	-0.580078	0.046875	-0.365598	-0.665577	-0.609331	0.515625	0.937500	-0.023438	742	16_30_43_4055880
-0.005859	-0.571289	0.043945	-0.365598	-0.656202	-0.609331	0.527344	0.925781	-0.011719	743	16_30_43_4217170
-0.008789	-0.580078	0.032227	-0.356224	-0.656202	-0.609331	0.515625	0.867188	-0.023438	744	16_30_43_4378460
-0.005859	-0.574219	0.043945	-0.365598	-0.656202	-0.599956	0.750000	0.925781	0.046875	745	16_30_43_4539750
-0.005859	-0.574219	0.043945	-0.365598	-0.646828	-0.609331	0.480469	0.878906	-0.070313	746	16_30_43_4701040
-0.014648	-0.568359	0.046875	-0.365598	-0.656202	-0.609331	0.480469	0.867188	-0.117188	747	16_30_43_4862330
-0.008789	-0.574219	0.043945	-0.365598	-0.656202	-0.599956	0.480469	0.867188	-0.093750	748	16_30_43_5023620
-0.014648	-0.574219	0.041016	-0.365598	-0.656202	-0.599956	0.480469	0.925781	-0.070313	749	16_30_43_5184910
-0.008789	-0.588867	0.038086	-0.365598	-0.656202	-0.599956	0.714844	0.855469	0.269531	750	16_30_43_5346200
-0.011719	-0.574219	0.043945	-0.365598	-0.656202	-0.599956	0.480469	0.855469	-0.058594	751	16_30_43_5507490
-0.011719	-0.583008	0.035156	-0.365598	-0.656202	-0.599956	0.503906	0.843750	0.164063	752	16_30_43_5668780
-0.011719	-0.583008	0.046875	-0.365598	-0.656202	-0.599956	0.480469	0.902344	-0.023438	753	16_30_43_5830070
-0.011719	-0.574219	0.041016	-0.374973	-0.656202	-0.599956	0.527344	0.925781	-0.023438	754	16_30_43_5991360
-0.014648	-0.571289	0.032227	-0.365598	-0.665577	-0.599956	0.820313	0.867188	0.070313	755	16_30_43_6152650
-0.002930	-0.574219	0.041016	-0.365598	-0.656202	-0.599956	0.492188	0.914063	-0.046875	756	16_30_43_6313940
-0.017578	-0.585938	0.046875	-0.365598	-0.656202	-0.609331	0.503906	0.902344	-0.058594	757	16_30_43_6475230
-0.011719	-0.583008	0.035156	-0.374973	-0.656202	-0.599956	0.562500	0.902344	-0.046875	758	16_30_43_6636520
-0.008789	-0.580078	0.041016	-0.365598	-0.656202	-0.599956	0.562500	0.914063	-0.035156	759	16_30_43_6797810
-0.020508	-0.585938	0.038086	-0.328101	-0.656202	-0.609331	0.843750	0.902344	0.281250	760	16_30_43_6959100
-0.017578	-0.580078	0.043945	-0.365598	-0.665577	-0.599956	0.527344	0.855469	-0.046875	761	16_30_43_7120390
-0.017578	-0.574219	0.041016	-0.374973	-0.656202	-0.599956	0.515625	0.855469	0.011719	762	16_30_43_7281680
-0.008789	-0.583008	0.041016	-0.374973	-0.656202	-0.609331	0.503906	0.890625	0.000000	763	16_30_43_7442970
-0.020508	-0.571289	0.041016	-0.365598	-0.665577	-0.609331	0.691406	0.925781	0.011719	764	16_30_43_7604260
-0.005859	-0.585938	0.043945	-0.365598	-0.656202	-0.599956	0.503906	0.937500	-0.093750	765	16_30_43_7765550
-0.008789	-0.577148	0.035156	-0.365598	-0.665577	-0.599956	0.796875	0.925781	0.035156	766	16_30_43_7926840
-0.011719	-0.577148	0.032227	-0.365598	-0.656202	-0.609331	0.527344	0.867188	-0.046875	767	16_30_43_8088130
-0.011719	-0.574219	0.043945	-0.365598	-0.656202	-0.599956	0.492188	0.855469	-0.117188	768	16_30_43_8249420
-0.020508	-0.583008	0.043945	-0.365598	-0.656202	-0.599956	0.550781	0.855469	-0.035156	769	16_30_43_8410710
-0.026367	-0.568359	0.043945	-0.365598	-0.656202	-0.599956	0.480469	0.820313	0.011719	770	16_30_43_8572000
-0.014648	-0.574219	0.038086	-0.374973	-0.665577	-0.599956	0.562500	0.914063	0.269531	771	16_30_43_8733290
-0.008789	-0.580078	0.046875	-0.365598	-0.665577	-0.599956	0.574219	0.890625	0.222656	772	16_30_43_8894580
-0.005859	-0.571289	0.046875	-0.374973	-0.665577	-0.599956	0.480469	0.914063	0.128906	773	16_30_43_9055870
-0.014648	-0.588867	0.043945	-0.374973	-0.656202	-0.599956	0.503906	0.890625	-0.082031	774	16_30_43_9217160
-0.008789	-0.574219	0.046875	-0.365598	-0.656202	-0.599956	0.714844	0.902344	-0.023438	775	16_30_43_9378450
-0.008789	-0.583008	0.049805	-0.374973	-0.656202	-0.609331	0.527344	0.890625	-0.046875	776	16_30_43_9539740
-0.011719	-0.580078	0.041016	-0.365598	-0.656202	-0.599956	0.843750	0.855469	0.035156	777	16_30_43_9701030
-0.017578	-0.580078	0.049805	-0.365598	-0.656202	-0.599956	0.503906	0.867188	-0.093750	778	16_30_43_9862320
-0.023438	-0.580078	0.049805	-0.365598	-0.656202	-0.599956	0.492188	0.867188	-0.117188	779	16_30_44_0023610
-0.014648	-0.580078	0.041016	-0.365598	-0.656202	-0.609331	0.503906	0.914063	-0.093750	780	16_30_44_0184900
-0.017578	-0.585938	0.043945	-0.374973	-0.656202	-0.590582	0.539063	0.914063	-0.023438	781	16_30_44_0346190
-0.017578	-0.571289	0.055664	-0.365598	-0.665577	-0.599956	0.585938	0.914063	-0.035156	782	16_30_44_0507480
-0.020508	-0.574219	0.049805	-0.365598	-0.656202	-0.599956	0.503906	0.902344	-0.035156	783	16_30_44_0668770
-0.011719	-0.580078	0.043945	-0.365598	-0.656202	-0.599956	0.527344	0.960938	0.117188	784	16_30_44_0830060
-0.011719	-0.574219	0.038086	-0.365598	-0.646828	-0.599956	0.480469	0.867188	-0.070313	785	16_30_44_0991350
-0.005859	-0.577148	0.049805	-0.365598	-0.656202	-0.599956	0.703125	0.855469	-0.046875	786	16_30_44_1152640
-0.014648	-0.574219	0.046875	-0.365598	-0.656202	-0.599956	0.843750	0.890625	0.011719	787	16_30_44_1313930
-0.014648	-0.580078	0.038086	-0.365598	-0.656202	-0.599956	0.937500	0.914063	0.046875	788	16_30_44_1475220
-0.011719	-0.568359	0.038086	-0.374973	-0.656202	-0.599956	0.503906	0.902344	-0.117188	789	16_30_44_1636510
-0.017578	-0.571289	0.041016	-0.365598	-0.656202	-0.599956	0.503906	0.914063	-0.093750	790	16_30_44_1797800
-0.008789	-0.577148	0.046875	-0.365598	-0.656202	-0.599956	0.492188	0.925781	-0.105469	791	16_30_44_1959090
-0.017578	-0.583008	0.043945	-0.365598	-0.656202	-0.599956	0.527344	0.960938	-0.082031	792	16_30_44_2120380
-0.011719	-0.585938	0.046875	-0.374973	-0.656202	-0.609331	0.480469	0.890625	-0.023438	793	16_30_44_2281670
-0.011719	-0.574219	0.038086	-0.365598	-0.656202	-0.599956	0.503906	0.914063	0.187500	794	16_30_44_2442960
-0.014648	-0.585938	0.046875	-0.365598	-0.656202	-0.609331	0.480469	0.843750	-0.046875	795	16_30_44_2604250
-0.023438	-0.580078	0.043945	-0.374973	-0.656202	-0.599956	0.562500	0.878906	-0.070313	796	16_30_44_2765540
-0.005859	-0.574219	0.043945	-0.365598	-0.656202	-0.609331	0.492188	0.890625	-0.093750	797	16_30_44_2926830
-0.011719	-0.577148	0.049805	-0.374973	-0.656202	-0.599956	0.527344	0.914063	-0.128906	798	16_30_44_3088120
-0.017578	-0.580078	0.046875	-0.365598	-0.656202	-0.609331	0.925781	0.949219	0.046875	799	16_30_44_3249410
-0.005859	-0.580078	0.049805	-0.365598	-0.656202	-0.599956	0.527344	0.914063	-0.035156	800	16_30_44_3410700
-0.005859	-0.580078	0.043945	-0.365598	-0.656202	-0.599956	0.550781	0.937500	-0.011719	801	16_30_44_3571990
-0.011719	-0.580078	0.043945	-0.365598	-0.656202	-0.599956	0.738281	0.914063	0.257813	802	16_30_44_3733280
-0.011719	-0.580078	0.035156	-0.365598	-0.656202	-0.599956	0.562500	0.960938	0.269531	803	16_30_44_3894570
-0.020508	-0.585938	0.043945	-0.374973	-0.656202	-0.599956	0.515625	0.925781	-0.046875	804	16_30_44_4055860
-0.023438	-0.574219	0.046875	-0.365598	-0.656202	-0.599956	0.480469	0.890625	-0.046875	805	16_30_44_4217150
-0.023438	-0.571289	0.041016	-0.374973	-0.656202	-0.599956	0.480469	0.925781	-0.046875	806	16_30_44_4378440
-0.011719	-0.574219	0.046875	-0.374973	-0.656202	-0.599956	0.539063	0.867188	-0.082031	807	16_30_44_4539730
-0.008789	-0.574219	0.052734	-0.374973	-0.656202	-0.599956	0.503906	0.890625	-0.082031	808	16_30_44_4701020
-0.008789	-0.574219	0.038086	-0.365598	-0.656202	-0.599956	0.515625	0.960938	-0.046875	809	16_30_44_4862310
-0.020508	-0.577148	0.043945	-0.365598	-0.656202	-0.599956	0.480469	0.890625	-0.046875	810	16_30_44_5023600
-0.023438	-0.580078	0.035156	-0.365598	-0.656202	-0.599956	0.562500	0.843750	-0.093750	811	16_30_44_5184890
-0.002930	-0.574219	0.032227	-0.374973	-0.656202	-0.599956	0.503906	0.914063	-0.058594	812	16_30_44_5346180
-0.008789	-0.571289	0.043945	-0.374973	-0.656202	-0.599956	0.480469	0.937500	-0.023438	813	16_30_44_5507470
-0.011719	-0.574219	0.043945	-0.374973	-0.656202	-0.609331	0.457031	0.949219	-0.070313	814	16_30_44_5668760
-0.011719	-0.565430	0.043945	-0.365598	-0.646828	-0.599956	0.503906	0.937500	-0.093750	815	16_30_44_5830050
-0.023438	-0.571289	0.035156	-0.365598	-0.656202	-0.609331	0.480469	0.902344	-0.082031	816	16_30_44_5991340
-0.020508	-0.580078	0.046875	-0.374973	-0.656202	-0.609331	0.503906	0.960938	-0.070313	817	16_30_44_6152630
-0.017578	-0.580078	0.038086	-0.374973	-0.656202	-0.609331	0.503906	0.914063	-0.070313	818	16_30_44_6313920
-0.017578	-0.580078	0.049805	-0.374973	-0.656202	-0.609331	0.480469	0.925781	-0.070313	819	16_30_44_6475210
-0.011719	-0.585938	0.043945	-0.365598	-0.656202	-0.599956	0.480469	0.925781	-0.058594	820	16_30_44_6636500
-0.017578	-0.583008	0.046875	-0.365598	-0.656202	-0.599956	0.503906	0.914063	-0.046875	821	16_30_44_6797790
-0.014648	-0.585938	0.038086	-0.365598	-0.656202	-0.599956	0.890625	0.972656	0.140625	822	16_30_44_6959080
-0.014648	-0.574219	0.043945	-0.365598	-0.656202	-0.599956	0.562500	0.914063	-0.093750	823	16_30_44_7120370
-0.020508	-0.580078	0.046875	-0.365598	-0.656202	-0.599956	0.480469	0.855469	-0.058594	824	16_30_44_7281660
-0.023438	-0.577148	0.032227	-0.365598	-0.656202	-0.599956	0.480469	0.843750	-0.046875	825	16_30_44_7442950
-0.011719	-0.574219	0.049805	-0.365598	-0.665577	-0.599956	0.503906	0.867188	-0.058594	826	16_30_44_7604240
-0.020508	-0.580078	0.055664	-0.365598	-0.665577	-0.599956	0.527344	0.902344	-0.011719	827	16_30_44_7765530
-0.017578	-0.574219	0.041016	-0.365598	-0.665577	-0.599956	0.703125	0.914063	-0.011719	828	16_30_44_7926820
-0.011719	-0.591797	0.041016	-0.365598	-0.665577	-0.599956	0.468750	0.890625	-0.093750	829	16_30_44_8088110
-0.005859	-0.574219	0.038086	-0.365598	-0.656202	-0.599956	0.480469	0.890625	-0.070313	830	16_30_44_8249400
-0.011719	-0.583008	0.038086	-0.365598	-0.656202	-0.590582	0.527344	0.855469	-0.011719	831	16_30_44_8410690
-0.005859	-0.577148	0.041016	-0.365598	-0.656202	-0.599956	0.503906	0.843750	-0.023438	832	16_30_44_8571980
-0.008789	-0.571289	0.035156	-0.365598	-0.656202	-0.599956	0.503906	0.937500	-0.082031	833	16_30_44_8733270
-0.005859	-0.571289	0.046875	-0.365598	-0.656202	-0.599956	0.492188	0.937500	-0.117188	834	16_30_44_8894560
-0.017578	-0.574219	0.055664	-0.365598	-0.656202	-0.599956	0.515625	0.867188	-0.070313	835	16_30_44_9055850
-0.017578	-0.580078	0.035156	-0.374973	-0.656202	-0.599956	0.644531	0.878906	0.058594	836	16_30_44_9217140
-0.014648	-0.580078	0.043945	-0.365598	-0.665577	-0.599956	0.691406	0.925781	0.035156	837	16_30_44_9378430
-0.017578	-0.574219	0.049805	-0.374973	-0.656202	-0.599956	0.667969	0.914063	-0.046875	838	16_30_44_9539720
-0.008789	-0.574219	0.032227	-0.365598	-0.656202	-0.599956	0.820313	0.937500	0.000000	839	16_30_44_9701010
-0.014648	-0.580078	0.043945	-0.374973	-0.665577	-0.599956	0.503906	0.890625	-0.011719	840	16_30_44_9862300
-0.011719	-0.571289	0.041016	-0.365598	-0.656202	-0.599956	0.503906	0.878906	0.000000	841	16_30_45_0023590
-0.017578	-0.585938	0.041016	-0.374973	-0.665577	-0.599956	0.515625	0.855469	-0.035156	842	16_30_45_0184880
-0.005859	-0.574219	0.038086	-0.374973	-0.665577	-0.599956	0.562500	0.867188	-0.023438	843	16_30_45_0346170
-0.017578	-0.591797	0.043945	-0.365598	-0.656202	-0.599956	0.703125	0.890625	0.328125	844	16_30_45_0507460
-0.008789	-0.585938	0.052734	-0.374973	-0.656202	-0.599956	0.503906	0.855469	-0.035156	845	16_30_45_0668750
-0.008789	-0.588867	0.046875	-0.365598	-0.656202	-0.599956	0.480469	0.867188	-0.035156	846	16_30_45_0830040
-0.002930	-0.585938	0.032227	-0.365598	-0.665577	-0.599956	0.632813	0.902344	0.035156	847	16_30_45_0991330
-0.011719	-0.583008	0.052734	-0.365598	-0.656202	-0.599956	0.480469	0.925781	-0.035156	848	16_30_45_1152620
-0.008789	-0.571289	0.038086	-0.374973	-0.656202	-0.599956	0.492188	0.949219	-0.058594	849	16_30_45_1313910
-0.005859	-0.580078	0.038086	-0.374973	-0.656202	-0.599956	0.527344	0.890625	-0.093750	850	16_30_45_1475200
-0.011719	-0.574219	0.038086	-0.365598	-0.656202	-0.599956	0.832031	0.855469	0.058594	851	16_30_45_1636490
-0.017578	-0.580078	0.038086	-0.365598	-0.656202	-0.599956	0.527344	0.878906	-0.058594	852	16_30_45_1797780
-0.008789	-0.580078	0.043945	-0.365598	-0.656202	-0.599956	0.515625	0.914063	-0.082031	853	16_30_45_1959070
-0.014648	-0.580078	0.043945	-0.365598	-0.656202	-0.599956	0.527344	0.960938	-0.046875	854	16_30_45_2120360
-0.014648	-0.583008	0.043945	-0.365598	-0.656202	-0.599956	0.492188	0.890625	-0.058594	855	16_30_45_2281650
-0.017578	-0.580078	0.049805	-0.365598	-0.656202	-0.599956	0.503906	0.890625	-0.105469	856	16_30_45_2442940
-0.023438	-0.580078	0.043945	-0.365598	-0.665577	-0.599956	0.480469	0.937500	-0.082031	857	16_30_45_2604230
-0.011719	-0.580078	0.035156	-0.365598	-0.656202	-0.599956	0.515625	0.925781	-0.046875	858	16_30_45_2765520
-0.005859	-0.568359	0.043945	-0.365598	-0.665577	-0.599956	0.691406	0.914063	0.011719	859	16_30_45_2926810
-0.017578	-0.571289	0.043945	-0.365598	-0.656202	-0.599956	0.480469	0.867188	-0.035156	860	16_30_45_3088100
-0.005859	-0.574219	0.038086	-0.365598	-0.656202	-0.599956	0.855469	0.949219	0.082031	861	16_30_45_3249390
-0.029297	-0.580078	0.046875	-0.365598	-0.656202	-0.599956	0.503906	0.914063	-0.023438	862	16_30_45_3410680
-0.023438	-0.577148	0.038086	-0.374973	-0.656202	-0.609331	0.562500	0.867188	-0.035156	863	16_30_45_3571970
-0.014648	-0.574219	0.038086	-0.374973	-0.665577	-0.609331	0.820313	0.925781	0.246094	864	16_30_45_3733260
-0.011719	-0.568359	0.038086	-0.365598	-0.665577	-0.599956	0.527344	0.937500	-0.035156	865	16_30_45_3894550
-0.011719	-0.580078	0.049805	-0.365598	-0.656202	-0.599956	0.585938	0.867188	-0.023438	866	16_30_45_4055840
-0.008789	-0.574219	0.038086	-0.365598	-0.656202	-0.599956	0.632813	0.890625	-0.070313	867	16_30_45_4217130
-0.011719	-0.568359	0.038086	-0.365598	-0.656202	-0.599956	0.644531	0.878906	-0.035156	868	16_30_45_4378420
-0.008789	-0.585938	0.046875	-0.365598	-0.656202	-0.609331	0.515625	0.867188	-0.046875	869	16_30_45_4539710
-0.026367	-0.580078	0.043945	-0.365598	-0.656202	-0.599956	0.480469	0.832031	-0.023438	870	16_30_45_4701000
-0.017578	-0.568359	0.043945	-0.374973	-0.656202	-0.599956	0.902344	0.855469	0.117188	871	16_30_45_4862290
-0.011719	-0.585938	0.038086	-0.365598	-0.656202	-0.599956	0.457031	0.902344	-0.093750	872	16_30_45_5023580
-0.011719	-0.568359	0.043945	-0.365598	-0.665577	-0.599956	0.480469	0.890625	-0.082031	873	16_30_45_5184870
-0.020508	-0.580078	0.035156	-0.374973	-0.656202	-0.599956	0.480469	0.855469	-0.023438	874	16_30_45_5346160
-0.023438	-0.580078	0.032227	-0.365598	-0.656202	-0.599956	0.714844	0.937500	0.222656	875	16_30_45_5507450
-0.005859	-0.580078	0.038086	-0.365598	-0.656202	-0.599956	0.457031	0.925781	0.000000	876	16_30_45_5668740
-0.017578	-0.585938	0.043945	-0.374973	-0.656202	-0.599956	0.503906	0.867188	-0.058594	877	16_30_45_5830030
-0.008789	-0.583008	0.052734	-0.365598	-0.656202	-0.599956	0.503906	0.972656	-0.023438	878	16_30_45_5991320
-0.005859	-0.577148	0.043945	-0.374973	-0.665577	-0.599956	0.480469	0.937500	0.011719	879	16_30_45_6152610
-0.011719	-0.574219	0.035156	-0.374973	-0.665577	-0.599956	0.515625	0.878906	-0.023438	880	16_30_45_6313900
-0.008789	-0.580078	0.035156	-0.374973	-0.656202	-0.599956	0.761719	0.867188	0.035156	881	16_30_45_6475190
-0.017578	-0.583008	0.038086	-0.365598	-0.665577	-0.599956	0.539063	0.890625	-0.046875	882	16_30_45_6636480
-0.014648	-0.580078	0.035156	-0.365598	-0.656202	-0.599956	0.515625	0.925781	-0.058594	883	16_30_45_6797770
-0.017578	-0.580078	0.043945	-0.365598	-0.656202	-0.599956	0.480469	0.914063	-0.046875	884	16_30_45_6959060
-0.011719	-0.580078	0.038086	-0.365598	-0.656202	-0.599956	0.785156	0.890625	0.199219	885	16_30_45_7120350
-0.011719	-0.574219	0.035156	-0.374973	-0.656202	-0.599956	0.480469	0.867188	-0.093750	886	16_30_45_7281640
-0.005859	-0.583008	0.041016	-0.365598	-0.665577	-0.599956	0.503906	0.960938	-0.023438	887	16_30_45_7442930
-0.017578	-0.591797	0.041016	-0.365598	-0.665577	-0.599956	0.480469	0.949219	0.210938	888	16_30_45_7604220
-0.011719	-0.588867	0.038086	-0.365598	-0.656202	-0.599956	0.503906	0.949219	-0.035156	889	16_30_45_7765510
-0.011719	-0.574219	0.035156	-0.374973	-0.656202	-0.599956	0.492188	0.890625	-0.070313	890	16_30_45_7926800
-0.008789	-0.574219	0.041016	-0.365598	-0.656202	-0.609331	0.480469	0.914063	-0.058594	891	16_30_45_8088090
-0.011719	-0.571289	0.038086	-0.365598	-0.665577	-0.609331	0.503906	0.937500	-0.035156	892	16_30_45_8249380
-0.017578	-0.585938	0.038086	-0.374973	-0.656202	-0.599956	0.925781	0.960938	0.082031	893	16_30_45_8410670
-0.005859	-0.574219	0.032227	-0.365598	-0.656202	-0.599956	0.503906	0.937500	-0.035156	894	16_30_45_8571960
-0.011719	-0.580078	0.041016	-0.365598	-0.656202	-0.599956	0.515625	0.867188	0.000000	895	16_30_45_8733250
-0.014648	-0.571289	0.038086	-0.374973	-0.656202	-0.599956	0.503906	0.855469	0.000000	896	16_30_45_8894540
-0.011719	-0.577148	0.041016	-0.365598	-0.656202	-0.599956	0.609375	0.902344	0.351563	897	16_30_45_9055830
-0.017578	-0.571289	0.038086	-0.365598	-0.656202	-0.599956	0.492188	0.925781	0.164063	898	16_30_45_9217120
-0.023438	-0.574219	0.038086	-0.365598	-0.656202	-0.599956	0.503906	0.855469	-0.082031	899	16_30_45_9378410
-0.020508	-0.580078	0.038086	-0.374973	-0.656202	-0.599956	0.468750	0.878906	-0.105469	900	16_30_45_9539700
-0.005859	-0.577148	0.043945	-0.374973	-0.656202	-0.599956	0.480469	0.925781	-0.046875	901	16_30_45_9700990
-0.005859	-0.571289	0.038086	-0.365598	-0.656202	-0.599956	0.503906	0.914063	-0.046875	902	16_30_45_9862280
-0.011719	-0.574219	0.038086	-0.365598	-0.656202	-0.599956	0.503906	0.925781	-0.058594	903	16_30_46_0023570
-0.002930	-0.580078	0.032227	-0.365598	-0.656202	-0.590582	0.503906	0.902344	-0.035156	904	16_30_46_0184860
-0.011719	-0.580078	0.038086	-0.374973	-0.665577	-0.599956	0.480469	0.914063	0.011719	905	16_30_46_0346150
-0.023438	-0.577148	0.043945	-0.384347	-0.656202	-0.599956	0.574219	0.902344	0.000000	906	16_30_46_0507440
-0.008789	-0.574219	0.041016	-0.374973	-0.656202	-0.599956	0.550781	0.878906	-0.093750	907	16_30_46_0668730
-0.017578	-0.571289	0.035156	-0.365598	-0.656202	-0.599956	0.503906	0.867188	-0.082031	908	16_30_46_0830020
-0.017578	-0.583008	0.038086	-0.365598	-0.656202	-0.609331	0.527344	0.867188	0.093750	909	16_30_46_0991310
-0.008789	-0.588867	0.043945	-0.365598	-0.665577	-0.609331	0.703125	0.902344	0.023438	910	16_30_46_1152600
-0.011719	-0.574219	0.052734	-0.365598	-0.665577	-0.599956	0.503906	0.878906	-0.035156	911	16_30_46_1313890
-0.005859	-0.580078	0.049805	-0.374973	-0.656202	-0.599956	0.480469	0.867188	-0.070313	912	16_30_46_1475180
-0.011719	-0.580078	0.035156	-0.365598	-0.656202	-0.599956	0.457031	0.843750	-0.058594	913	16_30_46_1636470
-0.014648	-0.585938	0.038086	-0.365598	-0.656202	-0.599956	0.550781	0.867188	-0.011719	914	16_30_46_1797760
-0.014648	-0.580078	0.043945	-0.374973	-0.656202	-0.599956	0.515625	0.890625	-0.058594	915	16_30_46_1959050
-0.017578	-0.580078	0.043945	-0.365598	-0.656202	-0.599956	0.503906	0.902344	-0.105469	916	16_30_46_2120340
-0.017578	-0.583008	0.041016	-0.365598	-0.656202	-0.599956	0.492188	0.855469	-0.093750	917	16_30_46_2281630
-0.026367	-0.580078	0.046875	-0.365598	-0.656202	-0.599956	0.503906	0.890625	-0.093750	918	16_30_46_2442920
-0.020508	-0.583008	0.043945	-0.374973	-0.656202	-0.599956	0.480469	0.925781	0.140625	919	16_30_46_2604210
-0.014648	-0.580078	0.043945	-0.365598	-0.665577	-0.599956	0.527344	0.867188	-0.011719	920	16_30_46_2765500
-0.008789	-0.574219	0.046875	-0.365598	-0.665577	-0.599956	0.691406	0.890625	-0.023438	921	16_30_46_2926790
-0.017578	-0.583008	0.046875	-0.374973	-0.656202	-0.599956	0.527344	0.960938	-0.058594	922	16_30_46_3088080
-0.014648	-0.591797	0.046875	-0.365598	-0.665577	-0.599956	0.527344	0.914063	-0.082031	923	16_30_46_3249370
-0.017578	-0.571289	0.035156	-0.365598	-0.656202	-0.599956	0.550781	0.855469	-0.058594	924	16_30_46_3410660
-0.014648	-0.571289	0.035156	-0.374973	-0.656202	-0.599956	0.527344	0.855469	-0.046875	925	16_30_46_3571950
-0.005859	-0.568359	0.035156	-0.365598	-0.656202	-0.599956	0.527344	0.867188	-0.035156	926	16_30_46_3733240
-0.011719	-0.571289	0.041016	-0.365598	-0.656202	-0.599956	0.761719	0.914063	0.222656	927	16_30_46_3894530
-0.005859	-0.574219	0.041016	-0.374973	-0.656202	-0.599956	0.480469	0.902344	-0.058594	928	16_30_46_4055820
-0.011719	-0.571289	0.049805	-0.365598	-0.665577	-0.599956	0.503906	0.914063	-0.023438	929	16_30_46_4217110
-0.011719	-0.571289	0.038086	-0.365598	-0.656202	-0.599956	0.644531	0.925781	0.105469	930	16_30_46_4378400
-0.014648	-0.583008	0.046875	-0.374973	-0.656202	-0.599956	0.503906	0.867188	-0.046875	931	16_30_46_4539690
-0.002930	-0.583008	0.043945	-0.365598	-0.656202	-0.599956	0.527344	0.832031	-0.035156	932	16_30_46_4700980
-0.017578	-0.580078	0.041016	-0.365598	-0.656202	-0.599956	0.738281	0.914063	0.011719	933	16_30_46_4862270
-0.014648	-0.580078	0.041016	-0.365598	-0.656202	-0.599956	0.503906	0.984375	-0.070313	934	16_30_46_5023560
-0.020508	-0.583008	0.043945	-0.365598	-0.656202	-0.599956	0.949219	0.960938	0.082031	935	16_30_46_5184850
-0.008789	-0.574219	0.038086	-0.365598	-0.656202	-0.609331	0.480469	0.855469	-0.082031	936	16_30_46_5346140
-0.011719	-0.571289	0.032227	-0.365598	-0.656202	-0.599956	0.832031	0.902344	0.316406	937	16_30_46_5507430
-0.020508	-0.580078	0.043945	-0.374973	-0.656202	-0.599956	0.480469	0.890625	-0.035156	938	16_30_46_5668720
-0.008789	-0.583008	0.043945	-0.365598	-0.656202	-0.599956	0.492188	0.925781	-0.070313	939	16_30_46_5830010
-0.011719	-0.568359	0.032227	-0.365598	-0.656202	-0.609331	0.480469	0.937500	-0.093750	940	16_30_46_5991300
-0.017578	-0.585938	0.035156	-0.365598	-0.656202	-0.599956	0.644531	0.902344	0.035156	941	16_30_46_6152590
-0.017578	-0.583008	0.041016	-0.365598	-0.656202	-0.599956	0.503906	0.914063	-0.058594	942	16_30_46_6313880
-0.005859	-0.585938	0.043945	-0.365598	-0.656202	-0.599956	0.738281	0.914063	-0.023438	943	16_30_46_6475170
-0.017578	-0.577148	0.026367	-0.365598	-0.656202	-0.599956	0.503906	0.902344	-0.093750	944	16_30_46_6636460
-0.011719	-0.580078	0.035156	-0.365598	-0.656202	-0.599956	0.480469	0.914063	-0.070313	945	16_30_46_6797750
-0.005859	-0.565430	0.043945	-0.365598	-0.656202	-0.599956	1.042969	0.949219	0.082031	946	16_30_46_6959040
-0.011719	-0.574219	0.035156	-0.365598	-0.656202	-0.609331	0.539063	0.914063	-0.046875	947	16_30_46_7120330
-0.008789	-0.591797	0.046875	-0.365598	-0.665577	-0.599956	0.503906	0.867188	-0.035156	948	16_30_46_7281620
0.002930	-0.585938	0.049805	-0.365598	-0.656202	-0.599956	0.515625	0.867188	0.304688	949	16_30_46_7442910
-0.005859	-0.588867	0.035156	-0.374973	-0.665577	-0.599956	0.515625	0.914063	-0.058594	950	16_30_46_7604200
-0.005859	-0.580078	0.041016	-0.365598	-0.665577	-0.609331	0.503906	0.890625	-0.035156	951	16_30_46_7765490
-0.005859	-0.574219	0.041016	-0.365598	-0.665577	-0.599956	0.503906	0.878906	-0.082031	952	16_30_46_7926780
-0.008789	-0.565430	0.043945	-0.365598	-0.656202	-0.599956	0.480469	0.890625	-0.128906	953	16_30_46_8088070
-0.011719	-0.568359	0.035156	-0.365598	-0.656202	-0.599956	0.503906	0.855469	-0.082031	954	16_30_46_8249360
-0.017578	-0.577148	0.043945	-0.365598	-0.656202	-0.599956	0.515625	0.914063	-0.070313	955	16_30_46_8410650
-0.011719	-0.574219	0.049805	-0.365598	-0.656202	-0.599956	0.503906	0.937500	-0.046875	956	16_30_46_8571940
-0.011719	-0.571289	0.043945	-0.365598	-0.656202	-0.599956	0.539063	0.890625	-0.058594	957	16_30_46_8733230
-0.020508	-0.588867	0.043945	-0.365598	-0.656202	-0.599956	0.550781	0.855469	-0.035156	958	16_30_46_8894520
-0.020508	-0.583008	0.038086	-0.374973	-0.656202	-0.599956	0.503906	0.925781	0.000000	959	16_30_46_9055810
-0.011719	-0.580078	0.043945	-0.374973	-0.656202	-0.609331	0.515625	0.960938	-0.058594	960	16_30_46_9217100
-0.011719	-0.580078	0.046875	-0.374973	-0.665577	-0.609331	0.515625	0.914063	-0.023438	961	16_30_46_9378390
-0.011719	-0.574219	0.043945	-0.365598	-0.665577	-0.599956	0.656250	0.914063	0.070313	962	16_30_46_9539680
-0.002930	-0.577148	0.046875	-0.365598	-0.656202	-0.599956	0.492188	0.960938	-0.011719	963	16_30_46_9700970
-0.017578	-0.583008	0.038086	-0.365598	-0.656202	-0.599956	0.503906	0.937500	-0.082031	964	16_30_46_9862260
0.000000	-0.577148	0.041016	-0.374973	-0.656202	-0.599956	0.503906	0.902344	-0.105469	965	16_30_47_0023550
-0.017578	-0.571289	0.038086	-0.365598	-0.656202	-0.599956	0.492188	0.937500	-0.070313	966	16_30_47_0184840
-0.017578	-0.571289	0.038086	-0.365598	-0.656202	-0.609331	1.054688	0.960938	0.093750	967	16_30_47_0346130
-0.011719	-0.580078	0.046875	-0.374973	-0.656202	-0.599956	0.480469	0.949219	-0.093750	968	16_30_47_0507420
-0.017578	-0.580078	0.052734	-0.365598	-0.656202	-0.599956	0.480469	0.902344	-0.082031	969	16_30_47_0668710
-0.020508	-0.574219	0.032227	-0.365598	-0.656202	-0.599956	0.527344	0.914063	-0.093750	970	16_30_47_0830000
-0.014648	-0.577148	0.041016	-0.365598	-0.656202	-0.599956	0.679688	0.914063	0.187500	971	16_30_47_0991290
-0.014648	-0.568359	0.043945	-0.374973	-0.656202	-0.599956	0.503906	0.937500	-0.058594	972	16_30_47_1152580
-0.020508	-0.583008	0.043945	-0.365598	-0.665577	-0.599956	0.527344	0.890625	-0.046875	973	16_30_47_1313870
-0.014648	-0.580078	0.035156	-0.374973	-0.656202	-0.599956	0.480469	0.867188	-0.046875	974	16_30_47_1475160
-0.017578	-0.580078	0.038086	-0.365598	-0.656202	-0.599956	0.503906	0.914063	-0.058594	975	16_30_47_1636450
-0.011719	-0.577148	0.043945	-0.365598	-0.656202	-0.609331	0.902344	0.960938	0.070313	976	16_30_47_1797740
-0.008789	-0.580078	0.043945	-0.365598	-0.656202	-0.590582	0.480469	0.914063	-0.082031	977	16_30_47_1959030
-0.017578	-0.565430	0.043945	-0.365598	-0.656202	-0.599956	0.503906	0.902344	-0.058594	978	16_30_47_2120320
-0.020508	-0.574219	0.032227	-0.365598	-0.665577	-0.599956	0.503906	0.902344	-0.046875	979	16_30_47_2281610
-0.023438	-0.583008	0.046875	-0.374973	-0.656202	-0.599956	0.503906	0.902344	-0.070313	980	16_30_47_2442900
-0.008789	-0.580078	0.046875	-0.374973	-0.656202	-0.599956	0.621094	0.867188	-0.011719	981	16_30_47_2604190
-0.002930	-0.585938	0.049805	-0.365598	-0.656202	-0.599956	0.503906	0.878906	0.105469	982	16_30_47_2765480
-0.020508	-0.574219	0.035156	-0.365598	-0.656202	-0.599956	0.644531	0.925781	-0.011719	983	16_30_47_2926770
-0.011719	-0.583008	0.038086	-0.374973	-0.656202	-0.599956	0.480469	0.902344	-0.093750	984	16_30_47_3088060
-0.005859	-0.577148	0.035156	-0.374973	-0.656202	-0.599956	0.480469	0.902344	-0.058594	985	16_30_47_3249350
-0.011719	-0.588867	0.043945	-0.365598	-0.656202	-0.599956	0.527344	0.902344	-0.046875	986	16_30_47_3410640
-0.011719	-0.568359	0.043945	-0.365598	-0.665577	-0.599956	0.527344	0.878906	-0.093750	987	16_30_47_3571930
-0.008789	-0.568359	0.043945	-0.365598	-0.656202	-0.599956	0.503906	0.925781	-0.082031	988	16_30_47_3733220
-0.011719	-0.577148	0.035156	-0.365598	-0.656202	-0.599956	0.855469	0.960938	0.082031	989	16_30_47_3894510
-0.020508	-0.568359	0.038086	-0.365598	-0.665577	-0.599956	0.503906	0.949219	-0.070313	990	16_30_47_4055800
-0.014648	-0.568359	0.038086	-0.365598	-0.656202	-0.599956	0.480469	0.960938	-0.070313	991	16_30_47_4217090
-0.017578	-0.580078	0.046875	-0.374973	-0.656202	-0.599956	0.480469	0.867188	-0.058594	992	16_30_47_4378380
-0.008789	-0.574219	0.046875	-0.365598	-0.656202	-0.599956	0.621094	0.808594	0.011719	993	16_30_47_4539670
-0.011719	-0.577148	0.046875	-0.365598	-0.656202	-0.599956	0.503906	0.890625	-0.082031	994	16_30_47_4700960
-0.011719	-0.583008	0.041016	-0.365598	-0.656202	-0.609331	0.457031	0.937500	-0.058594	995	16_30_47_4862250
-0.014648	-0.583008	0.043945	-0.374973	-0.656202	-0.599956	0.527344	0.878906	-0.023438	996	16_30_47_5023540
-0.023438	-0.583008	0.038086	-0.365598	-0.656202	-0.599956	0.480469	0.867188	-0.046875	997	16_30_47_5184830
-0.014648	-0.568359	0.043945	-0.365598	-0.665577	-0.599956	0.972656	0.867188	0.164063	998	16_30_47_5346120
-0.011719	-0.580078	0.043945	-0.365598	-0.656202	-0.599956	0.503906	0.914063	0.011719	999	16_30_47_5507410
-0.011719	-0.577148	0.038086	-0.365598	-0.665577	-0.599956	0.597656	0.925781	-0.035156	1000	16_30_47_5668700
-0.020508	-0.580078	0.043945	-0.365598	-0.656202	-0.599956	0.574219	0.925781	0.339844	1001	16_30_47_5829990
-0.017578	-0.583008	0.043945	-0.365598	-0.656202	-0.599956	0.480469	0.890625	-0.046875	1002	16_30_47_5991280
-0.017578	-0.568359	0.041016	-0.374973	-0.656202	-0.599956	0.515625	0.890625	-0.058594	1003	16_30_47_6152570
-0.011719	-0.583008	0.029297	-0.374973	-0.656202	-0.599956	0.480469	0.878906	-0.093750	1004	16_30_47_6313860
-0.014648	-0.577148	0.052734	-0.374973	-0.665577	-0.599956	0.480469	0.867188	-0.058594	1005	16_30_47_6475150
-0.020508	-0.571289	0.046875	-0.365598	-0.656202	-0.599956	0.679688	0.878906	0.035156	1006	16_30_47_6636440
-0.020508	-0.585938	0.038086	-0.365598	-0.656202	-0.599956	0.515625	0.937500	-0.023438	1007	16_30_47_6797730
-0.014648	-0.583008	0.041016	-0.365598	-0.665577	-0.599956	0.480469	0.937500	-0.070313	1008	16_30_47_6959020
-0.017578	-0.574219	0.046875	-0.374973	-0.665577	-0.599956	0.503906	0.855469	-0.070313	1009	16_30_47_7120310
-0.005859	-0.580078	0.046875	-0.374973	-0.656202	-0.599956	0.480469	0.878906	-0.093750	1010	16_30_47_7281600
-0.017578	-0.580078	0.043945	-0.365598	-0.656202	-0.599956	0.550781	0.890625	0.234375	1011	16_30_47_7442890
-0.020508	-0.571289	0.043945	-0.365598	-0.656202	-0.599956	0.597656	0.855469	0.246094	1012	16_30_47_7604180
-0.017578	-0.568359	0.035156	-0.374973	-0.665577	-0.599956	0.515625	0.843750	-0.105469	1013	16_30_47_7765470
-0.014648	-0.571289	0.038086	-0.374973	-0.665577	-0.599956	0.503906	0.855469	-0.082031	1014	16_30_47_7926760
-0.005859	-0.583008	0.038086	-0.365598	-0.665577	-0.599956	0.492188	0.878906	-0.058594	1015	16_30_47_8088050
-0.011719	-0.580078	0.041016	-0.374973	-0.656202	-0.599956	0.503906	0.890625	-0.058594	1016	16_30_47_8249340
-0.008789	-0.568359	0.041016	-0.374973	-0.656202	-0.599956	0.503906	0.925781	-0.070313	1017	16_30_47_8410630
-0.014648	-0.583008	0.052734	-0.365598	-0.656202	-0.599956	0.996094	0.902344	0.128906	1018	16_30_47_8571920
-0.017578	-0.583008	0.046875	-0.365598	-0.656202	-0.599956	0.515625	0.960938	-0.035156	1019	16_30_47_8733210
-0.005859	-0.574219	0.046875	-0.374973	-0.656202	-0.599956	0.527344	0.902344	-0.070313	1020	16_30_47_8894500
-0.029297	-0.574219	0.043945	-0.365598	-0.665577	-0.609331	0.503906	0.925781	-0.011719	1021	16_30_47_9055790
-0.017578	-0.580078	0.046875	-0.374973	-0.656202	-0.599956	0.480469	0.960938	-0.023438	1022	16_30_47_9217080
-0.017578	-0.571289	0.032227	-0.365598	-0.656202	-0.599956	0.468750	0.914063	-0.035156	1023	16_30_47_9378370
-0.014648	-0.571289	0.043945	-0.374973	-0.656202	-0.599956	0.621094	0.867188	-0.011719	1024	16_30_47_9539660
-0.011719	-0.577148	0.038086	-0.365598	-0.665577	-0.599956	0.480469	0.925781	-0.058594	1025	16_30_47_9700950
-0.020508	-0.571289	0.035156	-0.365598	-0.656202	-0.609331	0.503906	0.878906	-0.093750	1026	16_30_47_9862240
-0.014648	-0.580078	0.043945	-0.365598	-0.656202	-0.609331	0.750000	0.843750	-0.011719	1027	16_30_48_0023530
-0.014648	-0.580078	0.046875	-0.365598	-0.656202	-0.599956	0.503906	0.867188	-0.082031	1028	16_30_48_0184820
-0.017578	-0.574219	0.041016	-0.365598	-0.665577	-0.599956	0.503906	0.937500	-0.093750	1029	16_30_48_0346110
-0.023438	-0.571289	0.038086	-0.365598	-0.665577	-0.599956	0.515625	0.855469	-0.105469	1030	16_30_48_0507400
-0.017578	-0.588867	0.046875	-0.365598	-0.665577	-0.599956	0.890625	0.867188	0.199219	1031	16_30_48_0668690
-0.011719	-0.577148	0.038086	-0.374973	-0.665577	-0.599956	0.503906	0.949219	-0.093750	1032	16_30_48_0829980
-0.011719	-0.577148	0.038086	-0.365598	-0.656202	-0.599956	0.550781	0.960938	0.140625	1033	16_30_48_0991270
-0.011719	-0.571289	0.035156	-0.365598	-0.656202	-0.599956	0.539063	0.902344	-0.058594	1034	16_30_48_1152560
-0.005859	-0.583008	0.038086	-0.365598	-0.656202	-0.599956	0.539063	0.890625	-0.070313	1035	16_30_48_1313850
-0.005859	-0.580078	0.049805	-0.365598	-0.656202	-0.599956	0.480469	0.867188	-0.058594	1036	16_30_48_1475140
-0.014648	-0.574219	0.032227	-0.365598	-0.656202	-0.609331	0.480469	0.832031	-0.082031	1037	16_30_48_1636430
-0.005859	-0.562500	0.038086	-0.365598	-0.656202	-0.599956	0.480469	0.878906	-0.070313	1038	16_30_48_1797720
-0.014648	-0.583008	0.046875	-0.374973	-0.656202	-0.599956	0.515625	0.902344	-0.023438	1039	16_30_48_1959010
-0.020508	-0.580078	0.041016	-0.365598	-0.656202	-0.599956	0.503906	0.902344	-0.023438	1040	16_30_48_2120300
-0.020508	-0.571289	0.049805	-0.365598	-0.656202	-0.599956	0.480469	0.937500	-0.035156	1041	16_30_48_2281590
-0.014648	-0.574219	0.043945	-0.374973	-0.656202	-0.599956	0.515625	0.984375	-0.058594	1042	16_30_48_2442880
-0.017578	-0.574219	0.046875	-0.374973	-0.646828	-0.599956	0.527344	0.937500	0.257813	1043	16_30_48_2604170
-0.014648	-0.580078	0.041016	-0.365598	-0.665577	-0.599956	0.503906	0.878906	-0.105469	1044	16_30_48_2765460
-0.017578	-0.571289	0.043945	-0.356224	-0.656202	-0.599956	0.773438	0.890625	0.035156	1045	16_30_48_2926750
-0.017578	-0.574219	0.038086	-0.365598	-0.665577	-0.599956	0.515625	0.902344	-0.058594	1046	16_30_48_3088040
-0.002930	-0.577148	0.043945	-0.365598	-0.665577	-0.599956	0.527344	0.937500	-0.082031	1047	16_30_48_3249330
-0.011719	-0.580078	0.055664	-0.365598	-0.665577	-0.599956	0.480469	0.878906	-0.070313	1048	16_30_48_3410620
-0.011719	-0.571289	0.043945	-0.365598	-0.665577	-0.599956	0.902344	0.914063	0.058594	1049	16_30_48_3571910
-0.011719	-0.574219	0.043945	-0.374973	-0.656202	-0.609331	0.480469	0.878906	-0.070313	1050	16_30_48_3733200
-0.023438	-0.571289	0.052734	-0.365598	-0.665577	-0.599956	0.515625	0.832031	-0.011719	1051	16_30_48_3894490
-0.008789	-0.574219	0.046875	-0.365598	-0.656202	-0.599956	0.539063	0.855469	-0.011719	1052	16_30_48_4055780
-0.014648	-0.583008	0.032227	-0.365598	-0.665577	-0.599956	0.480469	0.867188	-0.070313	1053	16_30_48_4217070
-0.014648	-0.580078	0.041016	-0.365598	-0.656202	-0.599956	0.480469	0.855469	-0.046875	1054	16_30_48_4378360
-0.014648	-0.588867	0.041016	-0.374973	-0.665577	-0.609331	0.492188	0.890625	0.023438	1055	16_30_48_4539650
-0.011719	-0.583008	0.046875	-0.365598	-0.656202	-0.599956	0.503906	0.902344	-0.023438	1056	16_30_48_4700940
-0.017578	-0.577148	0.046875	-0.365598	-0.656202	-0.599956	0.492188	0.914063	-0.058594	1057	16_30_48_4862230
-0.011719	-0.577148	0.035156	-0.365598	-0.665577	-0.609331	0.785156	0.867188	0.011719	1058	16_30_48_5023520
-0.014648	-0.574219	0.043945	-0.374973	-0.674951	-0.599956	0.503906	0.867188	-0.070313	1059	16_30_48_5184810
-0.008789	-0.585938	0.035156	-0.365598	-0.665577	-0.599956	0.480469	0.890625	-0.011719	1060	16_30_48_5346100
-0.017578	-0.577148	0.043945	-0.365598	-0.656202	-0.599956	1.042969	0.902344	0.152344	1061	16_30_48_5507390
-0.017578	-0.574219	0.055664	-0.374973	-0.656202	-0.609331	0.550781	0.867188	-0.046875	1062	16_30_48_5668680
-0.029297	-0.577148	0.032227	-0.365598	-0.656202	-0.599956	0.515625	0.785156	-0.058594	1063	16_30_48_5829970
-0.020508	-0.568359	0.035156	-0.374973	-0.665577	-0.599956	0.503906	0.867188	-0.093750	1064	16_30_48_5991260
-0.011719	-0.568359	0.046875	-0.374973	-0.665577	-0.599956	0.468750	0.890625	-0.093750	1065	16_30_48_6152550
-0.014648	-0.571289	0.043945	-0.365598	-0.665577	-0.599956	0.480469	0.914063	-0.058594	1066	16_30_48_6313840
-0.008789	-0.580078	0.049805	-0.365598	-0.656202	-0.599956	0.480469	0.914063	-0.058594	1067	16_30_48_6475130
-0.011719	-0.583008	0.043945	-0.365598	-0.656202	-0.599956	0.480469	0.832031	-0.058594	1068	16_30_48_6636420
-0.008789	-0.580078	0.038086	-0.365598	-0.665577	-0.599956	0.480469	0.820313	-0.093750	1069	16_30_48_6797710
-0.011719	-0.571289	0.038086	-0.365598	-0.656202	-0.599956	0.539063	0.890625	-0.093750	1070	16_30_48_6959000
-0.014648	-0.580078	0.038086	-0.365598	-0.656202	-0.599956	0.480469	0.890625	-0.070313	1071	16_30_48_7120290
-0.032227	-0.585938	0.043945	-0.374973	-0.665577	-0.599956	0.492188	0.902344	-0.058594	1072	16_30_48_7281580
-0.008789	-0.585938	0.038086	-0.374973	-0.665577	-0.599956	0.492188	0.914063	-0.082031	1073	16_30_48_7442870
-0.017578	-0.574219	0.043945	-0.365598	-0.665577	-0.599956	0.515625	0.902344	-0.093750	1074	16_30_48_7604160
-0.020508	-0.568359	0.043945	-0.365598	-0.665577	-0.599956	0.597656	0.960938	-0.035156	1075	16_30_48_7765450
-0.017578	-0.574219	0.041016	-0.365598	-0.665577	-0.609331	0.503906	0.937500	-0.082031	1076	16_30_48_7926740
-0.011719	-0.571289	0.055664	-0.374973	-0.656202	-0.599956	0.527344	0.914063	-0.058594	1077	16_30_48_8088030
-0.017578	-0.580078	0.035156	-0.365598	-0.656202	-0.599956	0.480469	0.867188	-0.035156	1078	16_30_48_8249320
-0.017578	-0.583008	0.046875	-0.365598	-0.665577	-0.599956	0.492188	0.820313	-0.046875	1079	16_30_48_8410610
-0.026367	-0.585938	0.041016	-0.365598	-0.656202	-0.599956	0.515625	0.855469	-0.058594	1080	16_30_48_8571900
-0.017578	-0.574219	0.041016	-0.374973	-0.656202	-0.599956	0.527344	0.890625	-0.058594	1081	16_30_48_8733190
-0.008789	-0.574219	0.043945	-0.365598	-0.665577	-0.599956	0.503906	0.925781	-0.093750	1082	16_30_48_8894480
-0.011719	-0.574219	0.043945	-0.365598	-0.665577	-0.599956	0.503906	0.902344	-0.082031	1083	16_30_48_9055770
-0.020508	-0.577148	0.038086	-0.365598	-0.656202	-0.599956	0.644531	0.890625	0.234375	1084	16_30_48_9217060
-0.011719	-0.571289	0.043945	-0.374973	-0.656202	-0.599956	0.503906	0.902344	-0.082031	1085	16_30_48_9378350
-0.017578	-0.568359	0.046875	-0.374973	-0.656202	-0.599956	0.480469	0.937500	-0.046875	1086	16_30_48_9539640
-0.014648	-0.580078	0.041016	-0.374973	-0.656202	-0.599956	0.550781	0.914063	-0.058594	1087	16_30_48_9700930
-0.005859	-0.580078	0.041016	-0.365598	-0.665577	-0.599956	0.527344	0.902344	-0.058594	1088	16_30_48_9862220
-0.008789	-0.580078	0.043945	-0.374973	-0.665577	-0.609331	0.503906	0.890625	-0.046875	1089	16_30_49_0023510
-0.011719	-0.580078	0.046875	-0.374973	-0.665577	-0.609331	0.480469	0.890625	-0.058594	1090	16_30_49_0184800
-0.005859	-0.577148	0.035156	-0.365598	-0.665577	-0.609331	0.914063	0.890625	0.070313	1091	16_30_49_0346090
-0.011719	-0.580078	0.043945	-0.365598	-0.665577	-0.599956	0.527344	0.855469	-0.082031	1092	16_30_49_0507380
-0.014648	-0.585938	0.038086	-0.365598	-0.665577	-0.599956	0.480469	0.890625	-0.082031	1093	16_30_49_0668670
-0.017578	-0.580078	0.043945	-0.374973	-0.665577	-0.599956	0.480469	0.902344	-0.070313	1094	16_30_49_0829960
-0.014648	-0.580078	0.041016	-0.374973	-0.665577	-0.599956	0.503906	0.867188	-0.046875	1095	16_30_49_0991250
-0.014648	-0.580078	0.046875	-0.365598	-0.656202	-0.599956	0.480469	0.890625	-0.082031	1096	16_30_49_1152540
-0.020508	-0.574219	0.046875	-0.365598	-0.656202	-0.599956	0.492188	0.914063	-0.117188	1097	16_30_49_1313830
-0.008789	-0.568359	0.043945	-0.365598	-0.665577	-0.599956	0.667969	0.902344	-0.070313	1098	16_30_49_1475120
-0.011719	-0.577148	0.038086	-0.374973	-0.656202	-0.590582	0.503906	0.902344	-0.058594	1099	16_30_49_1636410
-0.017578	-0.577148	0.043945	-0.365598	-0.665577	-0.599956	0.503906	0.878906	-0.058594	1100	16_30_49_1797700
-0.011719	-0.585938	0.035156	-0.365598	-0.656202	-0.599956	0.480469	0.937500	-0.082031	1101	16_30_49_1958990
-0.017578	-0.571289	0.041016	-0.374973	-0.656202	-0.599956	0.527344	0.902344	-0.058594	1102	16_30_49_2120280
-0.017578	-0.583008	0.038086	-0.365598	-0.656202	-0.599956	0.480469	0.914063	-0.046875	1103	16_30_49_2281570
-0.017578	-0.565430	0.049805	-0.365598	-0.665577	-0.599956	0.503906	0.890625	-0.070313	1104	16_30_49_2442860
-0.017578	-0.574219	0.043945	-0.365598	-0.665577	-0.599956	0.503906	0.890625	-0.046875	1105	16_30_49_2604150
0.000000	-0.580078	0.046875	-0.374973	-0.656202	-0.599956	0.480469	0.937500	0.257813	1106	16_30_49_2765440
-0.005859	-0.568359	0.043945	-0.365598	-0.656202	-0.599956	0.480469	0.960938	-0.082031	1107	16_30_49_2926730
-0.014648	-0.580078	0.041016	-0.365598	-0.665577	-0.599956	0.656250	0.914063	-0.011719	1108	16_30_49_3088020
-0.008789	-0.577148	0.038086	-0.374973	-0.665577	-0.599956	0.492188	0.902344	-0.046875	1109	16_30_49_3249310
-0.017578	-0.577148	0.038086	-0.365598	-0.665577	-0.599956	0.492188	0.902344	-0.011719	1110	16_30_49_3410600
-0.014648	-0.585938	0.041016	-0.374973	-0.665577	-0.599956	0.527344	0.890625	-0.023438	1111	16_30_49_3571890
-0.008789	-0.577148	0.046875	-0.374973	-0.656202	-0.599956	0.703125	0.867188	0.011719	1112	16_30_49_3733180
