sensor_ID	000666015715
Accel_X	Accel_Y	Accel_Z	Roll	Pitch	Yaw	Mag_X	Mag_Y	Mag_Z	Count	SysTime
0.005859	-0.732422	0.055664	-0.262481	0.187486	-0.168738	0.597656	1.089844	0.527344	0	16_30_31_3588700
0.029297	-0.744141	0.076172	-0.262481	0.187486	-0.159363	0.632813	0.878906	0.468750	1	16_30_31_3749990
0.020508	-0.741211	0.067383	-0.253107	0.196861	-0.168738	0.597656	0.855469	0.468750	2	16_30_31_3911280
0.032227	-0.738281	0.070313	-0.262481	0.196861	-0.178112	0.621094	0.867188	0.468750	3	16_30_31_4072570
0.029297	-0.732422	0.082031	-0.262481	0.206235	-0.187486	0.585938	0.867188	0.457031	4	16_30_31_4233860
0.023438	-0.726563	0.087891	-0.262481	0.215609	-0.196861	0.574219	0.890625	0.433594	5	16_30_31_4395150
0.008789	-0.708984	0.073242	-0.262481	0.215609	-0.196861	0.609375	0.914063	0.421875	6	16_30_31_4556440
0.032227	-0.723633	0.090820	-0.253107	0.206235	-0.196861	0.656250	0.902344	0.445313	7	16_30_31_4717730
0.017578	-0.729492	0.067383	-0.253107	0.196861	-0.196861	0.621094	0.902344	0.457031	8	16_30_31_4879020
0.002930	-0.741211	0.090820	-0.253107	0.206235	-0.187486	0.609375	0.867188	0.480469	9	16_30_31_5040310
0.011719	-0.744141	0.087891	-0.253107	0.206235	-0.178112	0.621094	0.914063	0.468750	10	16_30_31_5201600
0.017578	-0.738281	0.076172	-0.253107	0.206235	-0.178112	0.609375	0.925781	0.468750	11	16_30_31_5362890
0.000000	-0.729492	0.079102	-0.262481	0.224984	-0.187486	0.609375	0.890625	0.492188	12	16_30_31_5524180
-0.002930	-0.706055	0.090820	-0.262481	0.224984	-0.196861	0.597656	0.890625	0.468750	13	16_30_31_5685470
-0.008789	-0.703125	0.079102	-0.262481	0.196861	-0.196861	0.609375	0.832031	0.421875	14	16_30_31_5846760
0.008789	-0.676758	0.108398	-0.262481	0.168738	-0.196861	0.621094	0.843750	0.433594	15	16_30_31_6008050
0.026367	-0.667969	0.137695	-0.243732	0.178112	-0.206235	0.632813	0.890625	0.433594	16	16_30_31_6169340
0.073242	-0.688477	0.120117	-0.215609	0.206235	-0.215609	0.597656	0.914063	0.421875	17	16_30_31_6330630
0.046875	-0.708984	0.082031	-0.215609	0.234358	-0.215609	0.609375	0.855469	0.433594	18	16_30_31_6491920
-0.011719	-0.720703	0.087891	-0.215609	0.234358	-0.206235	0.585938	0.878906	0.445313	19	16_30_31_6653210
-0.023438	-0.726563	0.084961	-0.215609	0.206235	-0.196861	0.585938	0.914063	0.457031	20	16_30_31_6814500
-0.005859	-0.732422	0.061523	-0.215609	0.178112	-0.187486	0.609375	0.843750	0.468750	21	16_30_31_6975790
-0.032227	-0.738281	0.079102	-0.224984	0.168738	-0.187486	0.574219	0.890625	0.433594	22	16_30_31_7137080
-0.020508	-0.732422	0.082031	-0.215609	0.149989	-0.187486	0.609375	0.914063	0.410156	23	16_30_31_7298370
-0.011719	-0.711914	0.099609	-0.215609	0.131240	-0.196861	0.574219	0.949219	0.421875	24	16_30_31_7459660
0.020508	-0.723633	0.120117	-0.206235	0.112492	-0.206235	0.621094	0.937500	0.433594	25	16_30_31_7620950
0.038086	-0.708984	0.120117	-0.206235	0.131240	-0.206235	0.562500	0.925781	0.433594	26	16_30_31_7782240
0.020508	-0.706055	0.105469	-0.215609	0.149989	-0.206235	0.609375	0.914063	0.433594	27	16_30_31_7943530
-0.017578	-0.697266	0.120117	-0.215609	0.149989	-0.206235	0.597656	0.867188	0.421875	28	16_30_31_8104820
0.005859	-0.703125	0.120117	-0.196861	0.149989	-0.206235	0.609375	0.843750	0.421875	29	16_30_31_8266110
0.026367	-0.717773	0.096680	-0.187486	0.159363	-0.215609	0.621094	0.902344	0.421875	30	16_30_31_8427400
0.000000	-0.708984	0.096680	-0.187486	0.159363	-0.215609	0.609375	0.878906	0.445313	31	16_30_31_8588690
-0.008789	-0.708984	0.096680	-0.178112	0.149989	-0.215609	0.609375	0.867188	0.433594	32	16_30_31_8749980
-0.038086	-0.708984	0.090820	-0.178112	0.131240	-0.215609	0.621094	0.902344	0.433594	33	16_30_31_8911270
-0.011719	-0.708984	0.093750	-0.159363	0.103118	-0.215609	0.585938	0.890625	0.457031	34	16_30_31_9072560
-0.005859	-0.685547	0.096680	-0.149989	0.093743	-0.224984	0.609375	0.878906	0.468750	35	16_30_31_9233850
0.002930	-0.676758	0.102539	-0.140615	0.093743	-0.243732	0.609375	0.902344	0.492188	36	16_30_31_9395140
-0.005859	-0.688477	0.087891	-0.131240	0.093743	-0.253107	0.609375	0.960938	0.468750	37	16_30_31_9556430
-0.008789	-0.688477	0.090820	-0.140615	0.093743	-0.271855	0.621094	0.890625	0.457031	38	16_30_31_9717720
-0.041016	-0.697266	0.082031	-0.131240	0.074995	-0.281230	0.621094	0.890625	0.457031	39	16_30_31_9879010
0.087891	-0.688477	0.082031	-0.121866	0.084369	-0.309353	0.597656	0.843750	0.433594	40	16_30_32_0040300
0.073242	-0.726563	0.093750	-0.093743	0.074995	-0.299978	0.609375	0.890625	0.433594	41	16_30_32_0201590
0.087891	-0.711914	0.067383	-0.074995	0.093743	-0.309353	0.597656	0.960938	0.468750	42	16_30_32_0362880
0.023438	-0.735352	0.038086	-0.084369	0.112492	-0.328101	0.609375	0.914063	0.468750	43	16_30_32_0524170
-0.038086	-0.732422	0.043945	-0.093743	0.093743	-0.318727	0.609375	0.890625	0.468750	44	16_30_32_0685460
-0.073242	-0.750000	0.020508	-0.093743	0.065620	-0.309353	0.632813	0.855469	0.457031	45	16_30_32_0846750
-0.055664	-0.761719	0.023438	-0.103118	0.028123	-0.290604	0.621094	0.855469	0.457031	46	16_30_32_1008040
-0.043945	-0.755859	0.014648	-0.131240	0.000000	-0.271855	0.632813	0.890625	0.457031	47	16_30_32_1169330
0.002930	-0.750000	0.008789	-0.149989	0.000000	-0.253107	0.667969	0.984375	0.480469	48	16_30_32_1330620
0.014648	-0.744141	0.017578	-0.168738	0.018749	-0.253107	0.656250	0.902344	0.492188	49	16_30_32_1491910
0.014648	-0.723633	0.008789	-0.149989	0.056246	-0.253107	0.621094	0.996094	0.515625	50	16_30_32_1653200
-0.011719	-0.735352	0.002930	-0.131240	0.093743	-0.243732	0.644531	0.867188	0.457031	51	16_30_32_1814490
-0.046875	-0.726563	0.002930	-0.131240	0.093743	-0.234358	0.644531	0.890625	0.457031	52	16_30_32_1975780
-0.067383	-0.720703	-0.014648	-0.131240	0.093743	-0.215609	0.644531	0.937500	0.468750	53	16_30_32_2137070
-0.070313	-0.685547	-0.005859	-0.140615	0.074995	-0.206235	0.644531	0.914063	0.480469	54	16_30_32_2298360
-0.064453	-0.676758	0.014648	-0.140615	0.056246	-0.187486	0.644531	0.808594	0.457031	55	16_30_32_2459650
-0.043945	-0.697266	0.002930	-0.131240	0.028123	-0.187486	0.644531	0.843750	0.457031	56	16_30_32_2620940
-0.014648	-0.720703	0.002930	-0.121866	0.018749	-0.187486	0.656250	0.890625	0.480469	57	16_30_32_2782230
-0.005859	-0.723633	-0.002930	-0.131240	0.018749	-0.196861	0.656250	0.843750	0.433594	58	16_30_32_2943520
-0.017578	-0.723633	-0.014648	-0.140615	0.028123	-0.215609	0.667969	0.867188	0.433594	59	16_30_32_3104810
-0.046875	-0.708984	-0.032227	-0.149989	0.046872	-0.215609	0.621094	1.007813	0.527344	60	16_30_32_3266100
-0.093750	-0.732422	-0.032227	-0.159363	0.037497	-0.196861	0.656250	0.890625	0.492188	61	16_30_32_3427390
-0.105469	-0.732422	-0.032227	-0.178112	0.000000	-0.178112	0.632813	0.867188	0.480469	62	16_30_32_3588680
-0.061523	-0.776367	-0.046875	-0.196861	-0.037497	-0.168738	0.656250	0.785156	0.480469	63	16_30_32_3749970
-0.041016	-0.767578	-0.029297	-0.215609	-0.046872	-0.168738	0.644531	0.796875	0.492188	64	16_30_32_3911260
-0.005859	-0.761719	-0.008789	-0.215609	-0.037497	-0.168738	0.632813	0.808594	0.480469	65	16_30_32_4072550
0.008789	-0.747070	-0.005859	-0.215609	-0.009374	-0.178112	0.644531	0.914063	0.492188	66	16_30_32_4233840
0.005859	-0.750000	0.002930	-0.206235	0.028123	-0.187486	0.621094	0.855469	0.492188	67	16_30_32_4395130
0.008789	-0.764648	-0.002930	-0.206235	0.074995	-0.196861	0.644531	0.820313	0.445313	68	16_30_32_4556420
0.002930	-0.776367	-0.008789	-0.206235	0.093743	-0.206235	0.773438	1.335938	0.515625	69	16_30_32_4717710
-0.032227	-0.773438	-0.017578	-0.215609	0.112492	-0.206235	0.621094	0.867188	0.468750	70	16_30_32_4879000
-0.035156	-0.779297	-0.014648	-0.224984	0.121866	-0.196861	0.621094	0.914063	0.445313	71	16_30_32_5040290
-0.014648	-0.761719	-0.014648	-0.234358	0.131240	-0.196861	0.621094	0.867188	0.457031	72	16_30_32_5201580
-0.017578	-0.767578	-0.002930	-0.234358	0.149989	-0.196861	0.621094	0.867188	0.457031	73	16_30_32_5362870
-0.020508	-0.767578	-0.008789	-0.243732	0.159363	-0.196861	0.644531	0.867188	0.457031	74	16_30_32_5524160
-0.029297	-0.744141	0.002930	-0.243732	0.168738	-0.196861	0.644531	0.914063	0.457031	75	16_30_32_5685450
-0.023438	-0.738281	-0.005859	-0.243732	0.168738	-0.187486	0.621094	0.832031	0.468750	76	16_30_32_5846740
-0.020508	-0.726563	0.000000	-0.243732	0.178112	-0.187486	0.656250	0.855469	0.445313	77	16_30_32_6008030
-0.026367	-0.717773	-0.002930	-0.243732	0.168738	-0.187486	0.621094	0.925781	0.433594	78	16_30_32_6169320
-0.032227	-0.720703	-0.011719	-0.243732	0.178112	-0.187486	0.656250	0.843750	0.468750	79	16_30_32_6330610
-0.041016	-0.723633	-0.005859	-0.234358	0.168738	-0.187486	0.644531	0.843750	0.445313	80	16_30_32_6491900
-0.023438	-0.726563	-0.008789	-0.243732	0.168738	-0.187486	0.621094	0.867188	0.480469	81	16_30_32_6653190
-0.046875	-0.717773	-0.005859	-0.224984	0.168738	-0.178112	0.609375	0.867188	0.492188	82	16_30_32_6814480
-0.017578	-0.717773	-0.002930	-0.234358	0.159363	-0.178112	0.609375	0.820313	0.457031	83	16_30_32_6975770
-0.020508	-0.732422	-0.005859	-0.224984	0.149989	-0.178112	0.644531	0.902344	0.468750	84	16_30_32_7137060
-0.017578	-0.738281	-0.008789	-0.224984	0.149989	-0.187486	0.597656	0.914063	0.468750	85	16_30_32_7298350
-0.017578	-0.747070	-0.005859	-0.224984	0.149989	-0.187486	0.621094	0.914063	0.457031	86	16_30_32_7459640
-0.020508	-0.747070	-0.005859	-0.224984	0.149989	-0.187486	0.644531	0.867188	0.457031	87	16_30_32_7620930
-0.011719	-0.744141	-0.011719	-0.224984	0.140615	-0.196861	0.656250	0.855469	0.468750	88	16_30_32_7782220
-0.023438	-0.738281	-0.008789	-0.224984	0.149989	-0.196861	0.621094	0.843750	0.492188	89	16_30_32_7943510
-0.029297	-0.744141	-0.014648	-0.224984	0.149989	-0.196861	0.609375	0.820313	0.480469	90	16_30_32_8104800
-0.008789	-0.732422	-0.011719	-0.224984	0.149989	-0.206235	0.656250	0.984375	0.503906	91	16_30_32_8266090
-0.008789	-0.723633	-0.011719	-0.234358	0.149989	-0.206235	0.632813	0.785156	0.457031	92	16_30_32_8427380
-0.002930	-0.726563	-0.008789	-0.224984	0.159363	-0.215609	0.574219	0.855469	0.433594	93	16_30_32_8588670
-0.011719	-0.732422	-0.002930	-0.234358	0.149989	-0.215609	0.644531	0.843750	0.457031	94	16_30_32_8749960
-0.023438	-0.732422	-0.011719	-0.224984	0.159363	-0.206235	0.632813	0.808594	0.445313	95	16_30_32_8911250
-0.017578	-0.726563	-0.005859	-0.215609	0.149989	-0.215609	0.644531	0.820313	0.445313	96	16_30_32_9072540
-0.014648	-0.723633	-0.005859	-0.224984	0.149989	-0.215609	0.632813	0.738281	0.468750	97	16_30_32_9233830
-0.017578	-0.720703	-0.008789	-0.224984	0.149989	-0.206235	0.609375	0.878906	0.480469	98	16_30_32_9395120
-0.011719	-0.726563	-0.014648	-0.224984	0.149989	-0.215609	0.609375	0.914063	0.480469	99	16_30_32_9556410
-0.029297	-0.720703	-0.020508	-0.224984	0.149989	-0.206235	0.621094	0.796875	0.492188	100	16_30_32_9717700
-0.035156	-0.729492	-0.002930	-0.224984	0.149989	-0.196861	0.621094	0.867188	0.503906	101	16_30_32_9878990
-0.029297	-0.744141	-0.014648	-0.224984	0.149989	-0.196861	0.609375	0.855469	0.492188	102	16_30_33_0040280
-0.029297	-0.732422	-0.014648	-0.224984	0.149989	-0.196861	0.597656	0.878906	0.480469	103	16_30_33_0201570
-0.023438	-0.741211	-0.026367	-0.234358	0.149989	-0.187486	0.609375	0.914063	0.468750	104	16_30_33_0362860
-0.032227	-0.735352	-0.017578	-0.243732	0.149989	-0.187486	0.609375	0.890625	0.457031	105	16_30_33_0524150
-0.020508	-0.720703	-0.008789	-0.234358	0.159363	-0.187486	0.644531	0.890625	0.457031	106	16_30_33_0685440
-0.029297	-0.720703	-0.008789	-0.234358	0.149989	-0.187486	0.632813	0.890625	0.445313	107	16_30_33_0846730
-0.029297	-0.729492	-0.005859	-0.234358	0.149989	-0.187486	0.632813	0.878906	0.457031	108	16_30_33_1008020
-0.017578	-0.723633	0.002930	-0.224984	0.149989	-0.196861	0.644531	0.890625	0.480469	109	16_30_33_1169310
-0.020508	-0.720703	0.008789	-0.234358	0.140615	-0.196861	0.644531	0.914063	0.457031	110	16_30_33_1330600
-0.017578	-0.708984	0.002930	-0.224984	0.140615	-0.196861	0.644531	0.914063	0.433594	111	16_30_33_1491890
-0.008789	-0.717773	0.005859	-0.224984	0.131240	-0.196861	0.609375	0.960938	0.433594	112	16_30_33_1653180
-0.014648	-0.729492	0.011719	-0.215609	0.131240	-0.206235	0.609375	0.960938	0.433594	113	16_30_33_1814470
0.000000	-0.720703	0.008789	-0.215609	0.131240	-0.215609	0.644531	0.937500	0.445313	114	16_30_33_1975760
-0.020508	-0.720703	0.011719	-0.215609	0.140615	-0.215609	0.609375	0.867188	0.492188	115	16_30_33_2137050
-0.017578	-0.720703	0.011719	-0.206235	0.131240	-0.215609	0.644531	0.878906	0.457031	116	16_30_33_2298340
-0.002930	-0.711914	0.011719	-0.206235	0.131240	-0.215609	0.632813	0.914063	0.457031	117	16_30_33_2459630
0.011719	-0.735352	0.008789	-0.196861	0.121866	-0.224984	0.597656	0.902344	0.445313	118	16_30_33_2620920
0.002930	-0.732422	0.000000	-0.187486	0.131240	-0.234358	0.644531	0.960938	0.457031	119	16_30_33_2782210
0.000000	-0.744141	-0.002930	-0.187486	0.140615	-0.234358	0.843750	1.347656	0.503906	120	16_30_33_2943500
0.002930	-0.750000	-0.002930	-0.196861	0.149989	-0.243732	0.609375	0.843750	0.480469	121	16_30_33_3104790
-0.011719	-0.732422	-0.017578	-0.206235	0.159363	-0.243732	0.621094	0.890625	0.492188	122	16_30_33_3266080
-0.017578	-0.738281	-0.008789	-0.206235	0.168738	-0.243732	0.644531	0.832031	0.468750	123	16_30_33_3427370
-0.011719	-0.732422	-0.020508	-0.206235	0.168738	-0.243732	0.632813	0.867188	0.468750	124	16_30_33_3588660
-0.026367	-0.732422	-0.017578	-0.215609	0.178112	-0.243732	0.632813	0.843750	0.480469	125	16_30_33_3749950
-0.032227	-0.729492	-0.017578	-0.215609	0.178112	-0.253107	0.621094	0.855469	0.433594	126	16_30_33_3911240
-0.020508	-0.729492	-0.017578	-0.224984	0.196861	-0.253107	0.609375	0.890625	0.445313	127	16_30_33_4072530
-0.029297	-0.732422	-0.035156	-0.215609	0.196861	-0.243732	0.632813	0.902344	0.457031	128	16_30_33_4233820
-0.058594	-0.708984	-0.026367	-0.215609	0.187486	-0.243732	0.597656	0.925781	0.480469	129	16_30_33_4395110
-0.049805	-0.714844	-0.032227	-0.224984	0.187486	-0.234358	0.878906	1.207031	0.515625	130	16_30_33_4556400
-0.049805	-0.723633	-0.035156	-0.224984	0.178112	-0.234358	0.656250	0.878906	0.457031	131	16_30_33_4717690
-0.067383	-0.723633	-0.026367	-0.215609	0.168738	-0.224984	0.621094	0.914063	0.468750	132	16_30_33_4878980
-0.058594	-0.732422	-0.038086	-0.215609	0.159363	-0.215609	0.703125	1.078125	0.515625	133	16_30_33_5040270
-0.052734	-0.726563	-0.026367	-0.224984	0.149989	-0.215609	0.632813	0.890625	0.492188	134	16_30_33_5201560
-0.052734	-0.723633	-0.023438	-0.224984	0.149989	-0.215609	0.656250	0.914063	0.468750	135	16_30_33_5362850
-0.043945	-0.714844	-0.026367	-0.215609	0.140615	-0.196861	0.644531	0.914063	0.468750	136	16_30_33_5524140
-0.038086	-0.714844	-0.014648	-0.224984	0.140615	-0.196861	0.632813	0.925781	0.468750	137	16_30_33_5685430
-0.038086	-0.726563	-0.011719	-0.215609	0.140615	-0.196861	0.621094	0.867188	0.503906	138	16_30_33_5846720
-0.029297	-0.720703	-0.002930	-0.224984	0.140615	-0.196861	0.832031	1.066406	0.539063	139	16_30_33_6008010
-0.035156	-0.720703	-0.002930	-0.224984	0.149989	-0.196861	0.632813	0.832031	0.503906	140	16_30_33_6169300
-0.041016	-0.735352	-0.005859	-0.224984	0.149989	-0.196861	0.644531	0.867188	0.503906	141	16_30_33_6330590
-0.041016	-0.732422	-0.002930	-0.224984	0.149989	-0.196861	0.656250	0.960938	0.445313	142	16_30_33_6491880
-0.038086	-0.735352	-0.005859	-0.234358	0.159363	-0.206235	0.644531	0.914063	0.457031	143	16_30_33_6653170
-0.035156	-0.732422	-0.008789	-0.224984	0.159363	-0.206235	0.644531	0.937500	0.503906	144	16_30_33_6814460
-0.035156	-0.726563	-0.005859	-0.224984	0.159363	-0.206235	0.632813	0.937500	0.492188	145	16_30_33_6975750
-0.026367	-0.723633	-0.014648	-0.234358	0.159363	-0.206235	0.644531	0.867188	0.457031	146	16_30_33_7137040
-0.041016	-0.717773	-0.011719	-0.224984	0.159363	-0.206235	0.644531	0.867188	0.468750	147	16_30_33_7298330
-0.043945	-0.717773	0.000000	-0.224984	0.149989	-0.196861	0.632813	0.843750	0.480469	148	16_30_33_7459620
-0.043945	-0.720703	-0.005859	-0.224984	0.149989	-0.206235	0.644531	0.843750	0.457031	149	16_30_33_7620910
-0.046875	-0.720703	-0.017578	-0.224984	0.149989	-0.206235	0.644531	0.843750	0.457031	150	16_30_33_7782200
-0.041016	-0.726563	-0.011719	-0.224984	0.140615	-0.206235	0.644531	0.890625	0.457031	151	16_30_33_7943490
-0.049805	-0.723633	-0.017578	-0.224984	0.140615	-0.196861	0.644531	0.855469	0.480469	152	16_30_33_8104780
-0.043945	-0.735352	-0.008789	-0.215609	0.140615	-0.196861	0.691406	0.902344	0.492188	153	16_30_33_8266070
-0.049805	-0.735352	-0.020508	-0.215609	0.131240	-0.196861	0.667969	0.890625	0.468750	154	16_30_33_8427360
-0.041016	-0.729492	-0.005859	-0.224984	0.140615	-0.206235	0.644531	0.925781	0.457031	155	16_30_33_8588650
-0.043945	-0.720703	-0.020508	-0.215609	0.131240	-0.196861	0.621094	0.878906	0.433594	156	16_30_33_8749940
-0.035156	-0.720703	-0.017578	-0.224984	0.131240	-0.196861	0.644531	0.890625	0.445313	157	16_30_33_8911230
-0.035156	-0.729492	-0.014648	-0.224984	0.131240	-0.206235	0.644531	0.867188	0.457031	158	16_30_33_9072520
-0.020508	-0.732422	-0.011719	-0.215609	0.140615	-0.196861	0.855469	1.230469	0.492188	159	16_30_33_9233810
-0.023438	-0.738281	-0.005859	-0.215609	0.149989	-0.196861	0.597656	0.914063	0.468750	160	16_30_33_9395100
-0.029297	-0.732422	-0.011719	-0.215609	0.149989	-0.206235	0.644531	0.843750	0.457031	161	16_30_33_9556390
-0.032227	-0.732422	-0.020508	-0.224984	0.149989	-0.196861	0.644531	0.843750	0.433594	162	16_30_33_9717680
-0.038086	-0.732422	-0.020508	-0.224984	0.149989	-0.196861	0.644531	0.843750	0.468750	163	16_30_33_9878970
-0.041016	-0.726563	-0.014648	-0.224984	0.149989	-0.196861	0.621094	0.820313	0.468750	164	16_30_34_0040260
-0.043945	-0.717773	-0.017578	-0.224984	0.149989	-0.196861	0.644531	0.855469	0.445313	165	16_30_34_0201550
-0.032227	-0.714844	-0.011719	-0.224984	0.140615	-0.196861	0.656250	0.878906	0.457031	166	16_30_34_0362840
-0.026367	-0.714844	-0.014648	-0.224984	0.131240	-0.196861	0.644531	0.890625	0.480469	167	16_30_34_0524130
-0.029297	-0.720703	-0.014648	-0.215609	0.131240	-0.196861	0.621094	0.937500	0.503906	168	16_30_34_0685420
-0.029297	-0.726563	-0.011719	-0.215609	0.131240	-0.206235	0.667969	0.914063	0.492188	169	16_30_34_0846710
-0.029297	-0.726563	-0.005859	-0.215609	0.131240	-0.206235	0.656250	0.949219	0.457031	170	16_30_34_1008000
-0.029297	-0.741211	-0.011719	-0.206235	0.131240	-0.215609	0.925781	1.207031	0.492188	171	16_30_34_1169290
-0.017578	-0.735352	-0.008789	-0.206235	0.131240	-0.206235	0.621094	0.890625	0.457031	172	16_30_34_1330580
-0.023438	-0.738281	0.005859	-0.215609	0.131240	-0.215609	0.644531	0.867188	0.468750	173	16_30_34_1491870
-0.017578	-0.732422	-0.011719	-0.215609	0.140615	-0.206235	0.621094	0.855469	0.468750	174	16_30_34_1653160
-0.020508	-0.723633	-0.014648	-0.215609	0.140615	-0.215609	0.644531	0.855469	0.503906	175	16_30_34_1814450
-0.029297	-0.723633	-0.014648	-0.215609	0.149989	-0.215609	0.621094	0.843750	0.480469	176	16_30_34_1975740
-0.035156	-0.735352	-0.011719	-0.215609	0.149989	-0.215609	0.621094	0.914063	0.468750	177	16_30_34_2137030
-0.041016	-0.735352	-0.017578	-0.215609	0.159363	-0.215609	0.632813	0.867188	0.433594	178	16_30_34_2298320
-0.041016	-0.732422	-0.014648	-0.224984	0.159363	-0.215609	0.703125	1.042969	0.457031	179	16_30_34_2459610
-0.041016	-0.720703	-0.014648	-0.224984	0.159363	-0.215609	0.832031	1.289063	0.515625	180	16_30_34_2620900
-0.049805	-0.711914	-0.032227	-0.224984	0.159363	-0.215609	0.644531	0.937500	0.480469	181	16_30_34_2782190
-0.049805	-0.717773	-0.023438	-0.234358	0.159363	-0.215609	0.632813	0.890625	0.445313	182	16_30_34_2943480
-0.052734	-0.744141	-0.029297	-0.224984	0.159363	-0.215609	0.621094	0.890625	0.468750	183	16_30_34_3104770
-0.049805	-0.729492	-0.032227	-0.224984	0.149989	-0.206235	0.703125	1.265625	0.574219	184	16_30_34_3266060
-0.041016	-0.735352	-0.029297	-0.234358	0.149989	-0.196861	0.644531	0.867188	0.457031	185	16_30_34_3427350
-0.046875	-0.717773	-0.014648	-0.234358	0.140615	-0.196861	0.632813	0.855469	0.433594	186	16_30_34_3588640
-0.014648	-0.720703	-0.011719	-0.206235	0.131240	-0.206235	0.644531	0.855469	0.457031	187	16_30_34_3749930
-0.005859	-0.714844	-0.005859	-0.187486	0.159363	-0.215609	0.632813	0.914063	0.468750	188	16_30_34_3911220
-0.043945	-0.726563	-0.005859	-0.187486	0.178112	-0.215609	0.621094	0.855469	0.468750	189	16_30_34_4072510
-0.070313	-0.738281	-0.014648	-0.187486	0.187486	-0.215609	0.621094	0.914063	0.457031	190	16_30_34_4233800
-0.055664	-0.738281	-0.008789	-0.206235	0.168738	-0.224984	0.644531	0.914063	0.480469	191	16_30_34_4395090
-0.035156	-0.720703	-0.020508	-0.187486	0.149989	-0.234358	0.609375	0.855469	0.480469	192	16_30_34_4556380
-0.064453	-0.708984	-0.020508	-0.178112	0.149989	-0.271855	0.632813	0.925781	0.457031	193	16_30_34_4717670
-0.111328	-0.708984	-0.032227	-0.168738	0.131240	-0.290604	0.632813	0.914063	0.468750	194	16_30_34_4878960
-0.143555	-0.720703	-0.043945	-0.187486	0.093743	-0.309353	0.644531	0.855469	0.468750	195	16_30_34_5040250
-0.146484	-0.744141	-0.043945	-0.196861	0.037497	-0.309353	0.656250	0.867188	0.445313	196	16_30_34_5201540
-0.108398	-0.755859	-0.049805	-0.206235	-0.018749	-0.309353	0.644531	0.925781	0.457031	197	16_30_34_5362830
-0.102539	-0.755859	-0.043945	-0.206235	-0.037497	-0.299978	0.656250	0.890625	0.468750	198	16_30_34_5524120
-0.087891	-0.747070	-0.049805	-0.206235	-0.056246	-0.309353	0.632813	0.867188	0.492188	199	16_30_34_5685410
-0.082031	-0.741211	-0.038086	-0.206235	-0.065620	-0.318727	0.644531	0.890625	0.480469	200	16_30_34_5846700
-0.082031	-0.744141	-0.032227	-0.206235	-0.065620	-0.328101	0.937500	1.195313	0.503906	201	16_30_34_6007990
-0.084961	-0.755859	-0.029297	-0.206235	-0.065620	-0.337475	0.667969	0.914063	0.480469	202	16_30_34_6169280
-0.067383	-0.735352	-0.014648	-0.224984	-0.046872	-0.346850	0.679688	0.890625	0.457031	203	16_30_34_6330570
-0.090820	-0.732422	-0.020508	-0.234358	-0.037497	-0.356224	0.796875	1.253906	0.527344	204	16_30_34_6491860
-0.076172	-0.732422	-0.029297	-0.243732	-0.018749	-0.356224	0.667969	0.867188	0.445313	205	16_30_34_6653150
-0.079102	-0.708984	-0.020508	-0.234358	-0.018749	-0.356224	0.691406	0.878906	0.457031	206	16_30_34_6814440
-0.105469	-0.708984	-0.020508	-0.234358	0.000000	-0.365598	0.691406	0.855469	0.457031	207	16_30_34_6975730
-0.099609	-0.714844	-0.011719	-0.224984	0.028123	-0.356224	0.691406	0.796875	0.457031	208	16_30_34_7137020
-0.117188	-0.714844	-0.005859	-0.224984	0.028123	-0.356224	0.703125	0.808594	0.468750	209	16_30_34_7298310
-0.099609	-0.708984	-0.023438	-0.234358	0.037497	-0.346850	0.703125	0.914063	0.468750	210	16_30_34_7459600
-0.111328	-0.691406	-0.026367	-0.234358	0.056246	-0.346850	0.714844	0.925781	0.457031	211	16_30_34_7620890
-0.096680	-0.682617	-0.026367	-0.224984	0.084369	-0.328101	0.714844	0.878906	0.457031	212	16_30_34_7782180
-0.105469	-0.685547	-0.026367	-0.206235	0.103118	-0.309353	0.726563	0.843750	0.492188	213	16_30_34_7943470
-0.125977	-0.691406	-0.026367	-0.196861	0.112492	-0.309353	0.703125	0.902344	0.480469	214	16_30_34_8104760
-0.146484	-0.682617	-0.035156	-0.187486	0.112492	-0.290604	0.714844	0.843750	0.468750	215	16_30_34_8266050
-0.155273	-0.679688	-0.017578	-0.196861	0.103118	-0.271855	0.714844	0.902344	0.445313	216	16_30_34_8427340
-0.155273	-0.688477	-0.023438	-0.187486	0.093743	-0.253107	0.703125	0.867188	0.457031	217	16_30_34_8588630
-0.134766	-0.694336	-0.020508	-0.187486	0.093743	-0.234358	0.726563	0.867188	0.480469	218	16_30_34_8749920
-0.134766	-0.700195	-0.020508	-0.187486	0.093743	-0.224984	0.726563	0.867188	0.480469	219	16_30_34_8911210
-0.125977	-0.691406	-0.026367	-0.178112	0.112492	-0.206235	0.714844	0.843750	0.468750	220	16_30_34_9072500
-0.131836	-0.688477	-0.017578	-0.178112	0.131240	-0.187486	0.890625	0.996094	0.468750	221	16_30_34_9233790
-0.123047	-0.688477	-0.014648	-0.178112	0.131240	-0.178112	0.726563	0.808594	0.433594	222	16_30_34_9395080
-0.125977	-0.708984	-0.011719	-0.168738	0.159363	-0.178112	0.726563	0.902344	0.457031	223	16_30_34_9556370
-0.128906	-0.720703	-0.014648	-0.178112	0.168738	-0.168738	0.914063	1.371094	0.503906	224	16_30_34_9717660
-0.137695	-0.720703	-0.011719	-0.187486	0.187486	-0.159363	0.714844	0.902344	0.503906	225	16_30_34_9878950
-0.137695	-0.726563	-0.011719	-0.206235	0.196861	-0.159363	0.703125	0.914063	0.480469	226	16_30_35_0040240
-0.131836	-0.729492	-0.011719	-0.196861	0.206235	-0.159363	0.691406	0.867188	0.457031	227	16_30_35_0201530
-0.131836	-0.729492	-0.020508	-0.215609	0.224984	-0.159363	0.703125	0.902344	0.480469	228	16_30_35_0362820
-0.128906	-0.714844	-0.020508	-0.224984	0.234358	-0.149989	0.703125	0.867188	0.503906	229	16_30_35_0524110
-0.134766	-0.708984	-0.023438	-0.234358	0.253107	-0.149989	0.679688	0.914063	0.480469	230	16_30_35_0685400
-0.114258	-0.714844	-0.017578	-0.243732	0.262481	-0.140615	0.855469	0.984375	0.503906	231	16_30_35_0846690
-0.123047	-0.706055	-0.014648	-0.253107	0.271855	-0.121866	0.714844	0.832031	0.457031	232	16_30_35_1007980
-0.128906	-0.714844	-0.029297	-0.253107	0.281230	-0.121866	0.667969	0.796875	0.457031	233	16_30_35_1169270
-0.111328	-0.714844	-0.038086	-0.253107	0.281230	-0.103118	0.878906	1.136719	0.539063	234	16_30_35_1330560
-0.084961	-0.708984	-0.026367	-0.243732	0.290604	-0.093743	0.691406	0.949219	0.503906	235	16_30_35_1491850
-0.087891	-0.723633	-0.011719	-0.243732	0.309353	-0.103118	0.726563	0.960938	0.480469	236	16_30_35_1653140
-0.123047	-0.720703	-0.023438	-0.253107	0.328101	-0.103118	0.691406	0.855469	0.457031	237	16_30_35_1814430
-0.140625	-0.732422	-0.026367	-0.253107	0.337475	-0.103118	0.703125	0.902344	0.480469	238	16_30_35_1975720
-0.137695	-0.735352	-0.032227	-0.262481	0.318727	-0.084369	0.691406	0.937500	0.480469	239	16_30_35_2137010
-0.128906	-0.738281	-0.038086	-0.262481	0.318727	-0.084369	0.808594	1.054688	0.468750	240	16_30_35_2298300
-0.093750	-0.735352	-0.038086	-0.271855	0.309353	-0.084369	0.750000	0.914063	0.457031	241	16_30_35_2459590
-0.093750	-0.732422	-0.041016	-0.281230	0.318727	-0.084369	0.679688	0.773438	0.445313	242	16_30_35_2620880
-0.087891	-0.732422	-0.026367	-0.281230	0.318727	-0.084369	0.656250	0.867188	0.468750	243	16_30_35_2782170
-0.073242	-0.711914	-0.026367	-0.262481	0.318727	-0.084369	0.679688	0.855469	0.480469	244	16_30_35_2943460
-0.082031	-0.714844	-0.038086	-0.262481	0.318727	-0.103118	0.656250	0.796875	0.492188	245	16_30_35_3104750
-0.082031	-0.720703	-0.026367	-0.253107	0.318727	-0.121866	0.656250	0.937500	0.480469	246	16_30_35_3266040
-0.070313	-0.729492	-0.026367	-0.243732	0.299978	-0.131240	0.656250	0.890625	0.457031	247	16_30_35_3427330
-0.093750	-0.732422	-0.023438	-0.243732	0.299978	-0.140615	0.667969	0.855469	0.457031	248	16_30_35_3588620
-0.093750	-0.735352	-0.041016	-0.243732	0.281230	-0.140615	0.667969	0.808594	0.468750	249	16_30_35_3749910
-0.096680	-0.729492	-0.043945	-0.243732	0.262481	-0.140615	0.714844	0.820313	0.457031	250	16_30_35_3911200
-0.073242	-0.711914	-0.029297	-0.253107	0.253107	-0.140615	0.644531	0.832031	0.457031	251	16_30_35_4072490
-0.076172	-0.714844	-0.026367	-0.243732	0.253107	-0.131240	0.644531	0.878906	0.468750	252	16_30_35_4233780
-0.061523	-0.708984	-0.029297	-0.234358	0.253107	-0.131240	0.656250	0.843750	0.468750	253	16_30_35_4395070
-0.073242	-0.726563	-0.020508	-0.243732	0.243732	-0.140615	0.656250	0.843750	0.480469	254	16_30_35_4556360
-0.070313	-0.711914	-0.008789	-0.234358	0.243732	-0.131240	0.656250	0.855469	0.468750	255	16_30_35_4717650
-0.076172	-0.723633	-0.020508	-0.224984	0.224984	-0.131240	0.644531	0.843750	0.457031	256	16_30_35_4878940
-0.067383	-0.738281	-0.023438	-0.224984	0.215609	-0.140615	0.656250	0.902344	0.480469	257	16_30_35_5040230
-0.061523	-0.747070	-0.029297	-0.224984	0.224984	-0.149989	0.714844	1.054688	0.468750	258	16_30_35_5201520
-0.067383	-0.735352	-0.014648	-0.243732	0.206235	-0.159363	0.632813	0.937500	0.445313	259	16_30_35_5362810
-0.058594	-0.732422	-0.017578	-0.224984	0.206235	-0.168738	0.621094	0.925781	0.480469	260	16_30_35_5524100
-0.049805	-0.732422	-0.014648	-0.215609	0.206235	-0.178112	0.609375	0.925781	0.468750	261	16_30_35_5685390
-0.055664	-0.741211	-0.032227	-0.215609	0.196861	-0.187486	0.632813	0.960938	0.433594	262	16_30_35_5846680
-0.055664	-0.732422	-0.032227	-0.215609	0.187486	-0.196861	0.808594	1.171875	0.492188	263	16_30_35_6007970
-0.046875	-0.720703	-0.026367	-0.215609	0.168738	-0.187486	0.644531	0.867188	0.503906	264	16_30_35_6169260
-0.029297	-0.720703	-0.023438	-0.215609	0.168738	-0.187486	0.820313	1.312500	0.550781	265	16_30_35_6330550
-0.026367	-0.714844	-0.014648	-0.215609	0.159363	-0.187486	0.808594	1.406250	0.562500	266	16_30_35_6491840
-0.017578	-0.723633	-0.008789	-0.215609	0.168738	-0.196861	0.621094	0.843750	0.492188	267	16_30_35_6653130
-0.020508	-0.714844	-0.014648	-0.206235	0.178112	-0.206235	0.656250	1.066406	0.503906	268	16_30_35_6814420
-0.008789	-0.720703	-0.020508	-0.215609	0.187486	-0.196861	0.644531	0.890625	0.492188	269	16_30_35_6975710
-0.029297	-0.726563	-0.017578	-0.224984	0.206235	-0.196861	0.632813	0.867188	0.480469	270	16_30_35_7137000
-0.023438	-0.723633	-0.020508	-0.243732	0.215609	-0.196861	0.691406	0.925781	0.480469	271	16_30_35_7298290
-0.026367	-0.711914	-0.035156	-0.243732	0.215609	-0.178112	0.644531	0.808594	0.492188	272	16_30_35_7459580
-0.043945	-0.726563	-0.041016	-0.234358	0.206235	-0.178112	0.609375	0.832031	0.457031	273	16_30_35_7620870
-0.055664	-0.752930	-0.041016	-0.243732	0.196861	-0.168738	0.621094	0.890625	0.468750	274	16_30_35_7782160
-0.052734	-0.738281	-0.041016	-0.243732	0.168738	-0.168738	0.644531	0.960938	0.468750	275	16_30_35_7943450
-0.043945	-0.741211	-0.029297	-0.243732	0.159363	-0.159363	0.632813	0.878906	0.468750	276	16_30_35_8104740
-0.023438	-0.723633	-0.011719	-0.253107	0.149989	-0.168738	0.585938	0.890625	0.457031	277	16_30_35_8266030
-0.011719	-0.720703	-0.011719	-0.253107	0.149989	-0.178112	0.632813	0.867188	0.457031	278	16_30_35_8427320
-0.014648	-0.717773	0.005859	-0.243732	0.159363	-0.196861	0.644531	0.843750	0.492188	279	16_30_35_8588610
-0.014648	-0.720703	-0.011719	-0.224984	0.159363	-0.215609	0.632813	0.914063	0.492188	280	16_30_35_8749900
-0.032227	-0.720703	-0.011719	-0.224984	0.159363	-0.215609	0.632813	0.878906	0.503906	281	16_30_35_8911190
-0.046875	-0.720703	-0.011719	-0.215609	0.149989	-0.215609	0.597656	0.878906	0.468750	282	16_30_35_9072480
-0.046875	-0.723633	-0.014648	-0.215609	0.140615	-0.215609	0.644531	0.820313	0.445313	283	16_30_35_9233770
-0.046875	-0.732422	-0.023438	-0.215609	0.131240	-0.215609	0.621094	0.890625	0.457031	284	16_30_35_9395060
-0.035156	-0.720703	-0.026367	-0.224984	0.121866	-0.206235	0.656250	0.867188	0.480469	285	16_30_35_9556350
-0.035156	-0.720703	-0.014648	-0.215609	0.131240	-0.206235	0.632813	0.820313	0.468750	286	16_30_35_9717640
-0.032227	-0.714844	-0.020508	-0.215609	0.131240	-0.196861	0.621094	0.843750	0.503906	287	16_30_35_9878930
-0.029297	-0.720703	-0.014648	-0.215609	0.131240	-0.196861	0.621094	0.832031	0.480469	288	16_30_36_0040220
-0.029297	-0.723633	-0.014648	-0.215609	0.131240	-0.187486	0.621094	0.914063	0.492188	289	16_30_36_0201510
-0.041016	-0.720703	-0.023438	-0.215609	0.140615	-0.187486	0.609375	0.867188	0.433594	290	16_30_36_0362800
-0.035156	-0.723633	-0.026367	-0.215609	0.131240	-0.187486	0.609375	0.902344	0.421875	291	16_30_36_0524090
-0.029297	-0.732422	-0.017578	-0.215609	0.131240	-0.178112	0.632813	0.855469	0.457031	292	16_30_36_0685380
-0.023438	-0.735352	-0.020508	-0.224984	0.131240	-0.178112	0.656250	0.820313	0.503906	293	16_30_36_0846670
-0.020508	-0.726563	-0.011719	-0.224984	0.140615	-0.187486	0.632813	0.937500	0.492188	294	16_30_36_1007960
-0.023438	-0.732422	-0.002930	-0.215609	0.140615	-0.187486	0.644531	0.937500	0.457031	295	16_30_36_1169250
-0.041016	-0.726563	-0.011719	-0.215609	0.149989	-0.196861	0.644531	0.902344	0.480469	296	16_30_36_1330540
-0.026367	-0.732422	-0.002930	-0.215609	0.140615	-0.187486	0.574219	0.867188	0.515625	297	16_30_36_1491830
-0.020508	-0.732422	-0.014648	-0.215609	0.149989	-0.196861	0.609375	0.843750	0.492188	298	16_30_36_1653120
-0.017578	-0.732422	-0.008789	-0.224984	0.140615	-0.196861	0.621094	0.890625	0.492188	299	16_30_36_1814410
-0.014648	-0.726563	-0.014648	-0.224984	0.149989	-0.196861	0.609375	0.878906	0.492188	300	16_30_36_1975700
-0.014648	-0.729492	-0.014648	-0.224984	0.149989	-0.196861	0.621094	0.867188	0.468750	301	16_30_36_2136990
-0.020508	-0.729492	-0.017578	-0.224984	0.149989	-0.206235	0.644531	0.867188	0.480469	302	16_30_36_2298280
-0.014648	-0.729492	-0.020508	-0.224984	0.149989	-0.206235	0.632813	0.890625	0.480469	303	16_30_36_2459570
-0.005859	-0.735352	-0.023438	-0.234358	0.159363	-0.206235	0.621094	0.890625	0.457031	304	16_30_36_2620860
-0.017578	-0.723633	-0.020508	-0.224984	0.159363	-0.215609	0.632813	0.867188	0.445313	305	16_30_36_2782150
-0.020508	-0.714844	-0.023438	-0.224984	0.159363	-0.215609	0.609375	0.890625	0.457031	306	16_30_36_2943440
-0.017578	-0.735352	-0.008789	-0.224984	0.168738	-0.215609	0.621094	0.937500	0.492188	307	16_30_36_3104730
-0.020508	-0.726563	-0.032227	-0.224984	0.159363	-0.215609	0.644531	0.949219	0.503906	308	16_30_36_3266020
-0.029297	-0.738281	-0.026367	-0.224984	0.168738	-0.206235	0.621094	0.902344	0.468750	309	16_30_36_3427310
-0.041016	-0.729492	-0.026367	-0.234358	0.168738	-0.206235	0.632813	0.867188	0.527344	310	16_30_36_3588600
-0.035156	-0.720703	-0.026367	-0.234358	0.159363	-0.196861	0.609375	0.843750	0.492188	311	16_30_36_3749890
-0.035156	-0.726563	-0.029297	-0.234358	0.159363	-0.196861	0.609375	0.832031	0.468750	312	16_30_36_3911180
-0.035156	-0.732422	-0.017578	-0.243732	0.159363	-0.187486	0.609375	0.914063	0.480469	313	16_30_36_4072470
-0.029297	-0.720703	-0.020508	-0.243732	0.149989	-0.187486	0.644531	0.937500	0.480469	314	16_30_36_4233760
-0.035156	-0.711914	-0.017578	-0.243732	0.149989	-0.187486	0.644531	0.972656	0.480469	315	16_30_36_4395050
-0.023438	-0.735352	0.000000	-0.234358	0.149989	-0.187486	0.609375	0.914063	0.480469	316	16_30_36_4556340
-0.017578	-0.723633	-0.008789	-0.234358	0.140615	-0.178112	0.609375	0.937500	0.468750	317	16_30_36_4717630
-0.029297	-0.723633	-0.002930	-0.234358	0.140615	-0.187486	0.609375	0.937500	0.468750	318	16_30_36_4878920
-0.020508	-0.738281	-0.005859	-0.224984	0.140615	-0.187486	0.679688	1.253906	0.480469	319	16_30_36_5040210
-0.014648	-0.726563	-0.011719	-0.224984	0.140615	-0.196861	0.632813	0.902344	0.421875	320	16_30_36_5201500
-0.017578	-0.723633	0.002930	-0.224984	0.131240	-0.196861	0.609375	0.890625	0.457031	321	16_30_36_5362790
-0.011719	-0.720703	0.002930	-0.224984	0.140615	-0.196861	0.621094	0.914063	0.457031	322	16_30_36_5524080
-0.017578	-0.711914	-0.005859	-0.224984	0.140615	-0.187486	0.632813	0.902344	0.445313	323	16_30_36_5685370
-0.020508	-0.732422	0.002930	-0.224984	0.149989	-0.196861	0.632813	0.937500	0.457031	324	16_30_36_5846660
-0.017578	-0.726563	-0.005859	-0.224984	0.149989	-0.196861	0.609375	0.902344	0.480469	325	16_30_36_6007950
-0.011719	-0.720703	0.002930	-0.215609	0.149989	-0.196861	0.644531	0.867188	0.492188	326	16_30_36_6169240
-0.017578	-0.732422	-0.002930	-0.224984	0.149989	-0.206235	0.632813	0.867188	0.468750	327	16_30_36_6330530
-0.020508	-0.729492	-0.011719	-0.215609	0.159363	-0.196861	0.621094	0.890625	0.480469	328	16_30_36_6491820
-0.026367	-0.720703	-0.014648	-0.224984	0.159363	-0.206235	0.632813	0.867188	0.480469	329	16_30_36_6653110
-0.029297	-0.708984	-0.002930	-0.215609	0.149989	-0.196861	0.609375	0.902344	0.503906	330	16_30_36_6814400
-0.026367	-0.720703	-0.011719	-0.215609	0.149989	-0.196861	0.609375	0.890625	0.492188	331	16_30_36_6975690
-0.023438	-0.717773	-0.011719	-0.215609	0.149989	-0.196861	0.679688	0.949219	0.480469	332	16_30_36_7136980
-0.017578	-0.735352	-0.014648	-0.215609	0.140615	-0.196861	0.597656	0.843750	0.480469	333	16_30_36_7298270
-0.020508	-0.738281	-0.008789	-0.215609	0.131240	-0.196861	0.609375	0.855469	0.503906	334	16_30_36_7459560
-0.011719	-0.752930	-0.026367	-0.215609	0.131240	-0.196861	0.609375	0.832031	0.492188	335	16_30_36_7620850
0.002930	-0.758789	-0.026367	-0.215609	0.131240	-0.196861	0.632813	0.855469	0.468750	336	16_30_36_7782140
-0.002930	-0.752930	-0.035156	-0.224984	0.140615	-0.206235	0.644531	0.890625	0.468750	337	16_30_36_7943430
0.000000	-0.752930	-0.026367	-0.224984	0.149989	-0.206235	0.644531	0.984375	0.457031	338	16_30_36_8104720
-0.005859	-0.738281	-0.020508	-0.234358	0.149989	-0.206235	0.738281	1.511719	0.539063	339	16_30_36_8266010
-0.005859	-0.738281	-0.014648	-0.243732	0.159363	-0.206235	0.609375	1.183594	0.562500	340	16_30_36_8427300
0.005859	-0.723633	-0.002930	-0.243732	0.168738	-0.215609	0.632813	0.902344	0.480469	341	16_30_36_8588590
0.002930	-0.723633	-0.005859	-0.243732	0.168738	-0.215609	0.632813	0.937500	0.457031	342	16_30_36_8749880
-0.014648	-0.720703	-0.005859	-0.243732	0.178112	-0.215609	0.632813	0.902344	0.433594	343	16_30_36_8911170
-0.005859	-0.711914	-0.008789	-0.234358	0.168738	-0.215609	0.597656	0.902344	0.433594	344	16_30_36_9072460
-0.017578	-0.720703	0.000000	-0.234358	0.168738	-0.215609	0.632813	0.796875	0.457031	345	16_30_36_9233750
-0.029297	-0.720703	-0.008789	-0.224984	0.168738	-0.206235	0.621094	0.820313	0.457031	346	16_30_36_9395040
-0.017578	-0.723633	-0.005859	-0.224984	0.159363	-0.206235	0.820313	1.125000	0.503906	347	16_30_36_9556330
-0.029297	-0.720703	-0.011719	-0.224984	0.149989	-0.196861	0.632813	0.867188	0.480469	348	16_30_36_9717620
-0.011719	-0.720703	-0.002930	-0.224984	0.149989	-0.196861	0.597656	0.890625	0.503906	349	16_30_36_9878910
-0.011719	-0.717773	-0.002930	-0.215609	0.149989	-0.196861	0.621094	0.832031	0.480469	350	16_30_37_0040200
-0.005859	-0.717773	0.008789	-0.215609	0.149989	-0.196861	0.656250	0.855469	0.457031	351	16_30_37_0201490
-0.020508	-0.732422	0.005859	-0.215609	0.149989	-0.206235	0.609375	0.855469	0.457031	352	16_30_37_0362780
-0.020508	-0.738281	0.005859	-0.215609	0.149989	-0.196861	0.632813	0.832031	0.445313	353	16_30_37_0524070
-0.029297	-0.735352	0.000000	-0.215609	0.149989	-0.206235	0.632813	0.949219	0.480469	354	16_30_37_0685360
-0.023438	-0.735352	0.002930	-0.215609	0.149989	-0.206235	0.632813	0.878906	0.468750	355	16_30_37_0846650
-0.023438	-0.723633	0.002930	-0.215609	0.159363	-0.206235	0.750000	0.996094	0.527344	356	16_30_37_1007940
-0.020508	-0.726563	0.000000	-0.224984	0.159363	-0.215609	0.644531	0.925781	0.503906	357	16_30_37_1169230
-0.026367	-0.726563	-0.008789	-0.224984	0.159363	-0.206235	0.609375	0.937500	0.433594	358	16_30_37_1330520
-0.029297	-0.729492	-0.002930	-0.224984	0.159363	-0.206235	0.621094	0.878906	0.457031	359	16_30_37_1491810
-0.020508	-0.729492	-0.005859	-0.215609	0.159363	-0.206235	0.726563	1.359375	0.527344	360	16_30_37_1653100
-0.029297	-0.720703	-0.014648	-0.224984	0.159363	-0.206235	0.585938	0.867188	0.457031	361	16_30_37_1814390
-0.038086	-0.720703	-0.005859	-0.224984	0.149989	-0.206235	0.585938	0.867188	0.457031	362	16_30_37_1975680
-0.029297	-0.732422	-0.011719	-0.215609	0.149989	-0.206235	0.691406	0.996094	0.492188	363	16_30_37_2136970
-0.014648	-0.726563	-0.011719	-0.215609	0.140615	-0.206235	0.609375	0.902344	0.457031	364	16_30_37_2298260
-0.023438	-0.720703	-0.014648	-0.215609	0.149989	-0.196861	0.609375	0.867188	0.480469	365	16_30_37_2459550
-0.020508	-0.726563	-0.008789	-0.224984	0.140615	-0.206235	0.609375	0.890625	0.515625	366	16_30_37_2620840
-0.023438	-0.720703	-0.002930	-0.224984	0.140615	-0.196861	0.609375	0.843750	0.468750	367	16_30_37_2782130
-0.020508	-0.723633	-0.011719	-0.215609	0.140615	-0.196861	0.691406	0.984375	0.480469	368	16_30_37_2943420
-0.014648	-0.732422	-0.011719	-0.215609	0.131240	-0.196861	0.644531	0.925781	0.503906	369	16_30_37_3104710
-0.011719	-0.723633	0.000000	-0.215609	0.131240	-0.196861	0.632813	0.878906	0.492188	370	16_30_37_3266000
-0.005859	-0.744141	-0.008789	-0.215609	0.140615	-0.196861	0.667969	0.925781	0.492188	371	16_30_37_3427290
-0.008789	-0.726563	-0.005859	-0.215609	0.140615	-0.196861	0.609375	0.890625	0.503906	372	16_30_37_3588580
-0.008789	-0.723633	-0.005859	-0.215609	0.140615	-0.196861	0.644531	0.820313	0.492188	373	16_30_37_3749870
-0.011719	-0.720703	-0.008789	-0.215609	0.149989	-0.196861	0.609375	0.785156	0.457031	374	16_30_37_3911160
-0.002930	-0.729492	-0.008789	-0.215609	0.140615	-0.196861	0.609375	0.914063	0.445313	375	16_30_37_4072450
-0.014648	-0.741211	-0.011719	-0.224984	0.140615	-0.196861	0.632813	0.914063	0.445313	376	16_30_37_4233740
-0.011719	-0.732422	-0.017578	-0.215609	0.149989	-0.196861	0.609375	0.890625	0.480469	377	16_30_37_4395030
-0.002930	-0.744141	-0.014648	-0.224984	0.149989	-0.196861	0.621094	0.878906	0.515625	378	16_30_37_4556320
-0.011719	-0.741211	-0.011719	-0.224984	0.149989	-0.196861	0.750000	1.078125	0.503906	379	16_30_37_4717610
-0.014648	-0.723633	-0.011719	-0.215609	0.149989	-0.196861	0.597656	0.878906	0.492188	380	16_30_37_4878900
-0.011719	-0.729492	-0.011719	-0.224984	0.149989	-0.196861	0.609375	0.890625	0.480469	381	16_30_37_5040190
-0.011719	-0.720703	-0.014648	-0.224984	0.159363	-0.206235	0.609375	0.890625	0.445313	382	16_30_37_5201480
-0.011719	-0.726563	-0.008789	-0.224984	0.159363	-0.206235	0.609375	0.902344	0.468750	383	16_30_37_5362770
-0.017578	-0.726563	-0.011719	-0.215609	0.149989	-0.196861	0.609375	0.902344	0.480469	384	16_30_37_5524060
0.000000	-0.732422	-0.008789	-0.215609	0.159363	-0.206235	0.632813	0.855469	0.468750	385	16_30_37_5685350
-0.008789	-0.726563	-0.014648	-0.215609	0.159363	-0.206235	0.632813	0.867188	0.468750	386	16_30_37_5846640
-0.023438	-0.729492	-0.014648	-0.224984	0.149989	-0.206235	0.609375	0.902344	0.492188	387	16_30_37_6007930
-0.011719	-0.729492	-0.008789	-0.224984	0.149989	-0.206235	0.609375	0.890625	0.492188	388	16_30_37_6169220
-0.011719	-0.723633	-0.002930	-0.215609	0.149989	-0.206235	0.832031	1.207031	0.503906	389	16_30_37_6330510
-0.017578	-0.729492	-0.011719	-0.215609	0.149989	-0.206235	0.621094	0.890625	0.468750	390	16_30_37_6491800
-0.014648	-0.723633	0.002930	-0.215609	0.159363	-0.206235	0.632813	0.855469	0.480469	391	16_30_37_6653090
-0.011719	-0.729492	-0.014648	-0.215609	0.149989	-0.215609	0.574219	0.914063	0.480469	392	16_30_37_6814380
-0.008789	-0.732422	-0.005859	-0.224984	0.159363	-0.206235	0.597656	0.914063	0.468750	393	16_30_37_6975670
-0.008789	-0.726563	0.002930	-0.215609	0.159363	-0.215609	0.609375	0.890625	0.468750	394	16_30_37_7136960
-0.017578	-0.738281	-0.002930	-0.215609	0.159363	-0.215609	0.632813	0.925781	0.445313	395	16_30_37_7298250
-0.014648	-0.720703	-0.011719	-0.215609	0.168738	-0.206235	0.597656	0.867188	0.433594	396	16_30_37_7459540
-0.029297	-0.726563	-0.017578	-0.224984	0.159363	-0.206235	0.597656	0.832031	0.457031	397	16_30_37_7620830
-0.029297	-0.726563	-0.014648	-0.224984	0.159363	-0.206235	0.609375	0.785156	0.492188	398	16_30_37_7782120
-0.014648	-0.729492	-0.014648	-0.215609	0.159363	-0.206235	0.984375	1.417969	0.503906	399	16_30_37_7943410
-0.029297	-0.720703	-0.014648	-0.224984	0.149989	-0.206235	0.621094	0.843750	0.433594	400	16_30_37_8104700
-0.020508	-0.726563	-0.014648	-0.224984	0.149989	-0.206235	0.644531	0.773438	0.457031	401	16_30_37_8265990
-0.014648	-0.720703	-0.008789	-0.215609	0.149989	-0.206235	0.621094	0.890625	0.468750	402	16_30_37_8427280
-0.014648	-0.729492	-0.014648	-0.224984	0.149989	-0.206235	0.621094	0.937500	0.457031	403	16_30_37_8588570
-0.017578	-0.738281	-0.014648	-0.224984	0.149989	-0.206235	0.644531	0.914063	0.468750	404	16_30_37_8749860
-0.023438	-0.732422	-0.014648	-0.224984	0.149989	-0.206235	0.714844	0.984375	0.492188	405	16_30_37_8911150
-0.029297	-0.732422	-0.002930	-0.224984	0.149989	-0.206235	0.597656	0.855469	0.503906	406	16_30_37_9072440
-0.020508	-0.720703	-0.011719	-0.224984	0.149989	-0.206235	0.609375	0.914063	0.492188	407	16_30_37_9233730
-0.020508	-0.729492	-0.014648	-0.234358	0.149989	-0.196861	0.609375	0.937500	0.468750	408	16_30_37_9395020
-0.023438	-0.723633	-0.014648	-0.224984	0.149989	-0.206235	0.597656	0.914063	0.468750	409	16_30_37_9556310
-0.026367	-0.732422	-0.005859	-0.224984	0.149989	-0.196861	0.632813	0.820313	0.457031	410	16_30_37_9717600
-0.020508	-0.726563	0.000000	-0.224984	0.149989	-0.196861	0.621094	0.855469	0.457031	411	16_30_37_9878890
-0.020508	-0.711914	-0.002930	-0.224984	0.149989	-0.196861	0.609375	0.843750	0.468750	412	16_30_38_0040180
-0.017578	-0.714844	0.008789	-0.215609	0.140615	-0.196861	0.609375	0.867188	0.457031	413	16_30_38_0201470
0.000000	-0.726563	-0.005859	-0.215609	0.131240	-0.196861	0.644531	0.914063	0.457031	414	16_30_38_0362760
0.000000	-0.741211	-0.008789	-0.206235	0.149989	-0.206235	0.632813	0.890625	0.468750	415	16_30_38_0524050
-0.017578	-0.732422	-0.026367	-0.215609	0.149989	-0.196861	0.609375	0.843750	0.503906	416	16_30_38_0685340
-0.029297	-0.723633	-0.008789	-0.215609	0.149989	-0.196861	0.644531	0.843750	0.503906	417	16_30_38_0846630
-0.020508	-0.720703	-0.005859	-0.215609	0.140615	-0.196861	0.632813	0.890625	0.433594	418	16_30_38_1007920
-0.005859	-0.741211	0.002930	-0.215609	0.140615	-0.196861	0.632813	0.867188	0.410156	419	16_30_38_1169210
-0.008789	-0.741211	-0.011719	-0.224984	0.149989	-0.196861	0.738281	1.031250	0.445313	420	16_30_38_1330500
-0.011719	-0.738281	-0.014648	-0.224984	0.159363	-0.206235	0.632813	0.937500	0.503906	421	16_30_38_1491790
-0.014648	-0.732422	-0.017578	-0.224984	0.159363	-0.206235	0.609375	0.890625	0.527344	422	16_30_38_1653080
-0.029297	-0.732422	-0.014648	-0.224984	0.149989	-0.206235	0.621094	0.867188	0.468750	423	16_30_38_1814370
-0.017578	-0.720703	-0.014648	-0.224984	0.159363	-0.206235	0.609375	0.925781	0.468750	424	16_30_38_1975660
-0.017578	-0.723633	-0.005859	-0.224984	0.149989	-0.196861	0.621094	1.007813	0.480469	425	16_30_38_2136950
-0.008789	-0.723633	-0.011719	-0.224984	0.149989	-0.196861	0.609375	0.867188	0.480469	426	16_30_38_2298240
-0.005859	-0.729492	-0.014648	-0.224984	0.149989	-0.196861	0.632813	0.914063	0.515625	427	16_30_38_2459530
0.000000	-0.738281	-0.011719	-0.215609	0.149989	-0.206235	0.726563	1.054688	0.503906	428	16_30_38_2620820
-0.008789	-0.735352	-0.011719	-0.215609	0.149989	-0.206235	0.785156	1.136719	0.445313	429	16_30_38_2782110
-0.014648	-0.741211	0.002930	-0.215609	0.149989	-0.215609	0.585938	0.808594	0.445313	430	16_30_38_2943400
-0.017578	-0.732422	-0.002930	-0.215609	0.149989	-0.206235	0.855469	1.101563	0.503906	431	16_30_38_3104690
-0.029297	-0.732422	-0.011719	-0.224984	0.149989	-0.206235	0.644531	0.960938	0.457031	432	16_30_38_3265980
-0.017578	-0.723633	-0.008789	-0.224984	0.149989	-0.206235	0.609375	0.914063	0.445313	433	16_30_38_3427270
0.000000	-0.738281	-0.011719	-0.224984	0.149989	-0.206235	0.621094	0.914063	0.503906	434	16_30_38_3588560
-0.002930	-0.720703	-0.008789	-0.224984	0.159363	-0.215609	0.609375	0.878906	0.527344	435	16_30_38_3749850
0.005859	-0.732422	-0.002930	-0.224984	0.168738	-0.215609	0.609375	0.808594	0.457031	436	16_30_38_3911140
-0.011719	-0.720703	-0.011719	-0.224984	0.168738	-0.215609	0.574219	0.925781	0.468750	437	16_30_38_4072430
-0.011719	-0.720703	-0.020508	-0.234358	0.178112	-0.206235	0.632813	0.925781	0.457031	438	16_30_38_4233720
-0.020508	-0.720703	-0.002930	-0.224984	0.168738	-0.206235	0.609375	0.855469	0.433594	439	16_30_38_4395010
-0.029297	-0.723633	-0.008789	-0.234358	0.168738	-0.206235	0.632813	0.902344	0.433594	440	16_30_38_4556300
-0.023438	-0.732422	-0.002930	-0.224984	0.168738	-0.206235	0.820313	1.289063	0.468750	441	16_30_38_4717590
-0.023438	-0.735352	-0.011719	-0.224984	0.149989	-0.206235	0.644531	0.890625	0.457031	442	16_30_38_4878880
-0.017578	-0.723633	-0.008789	-0.224984	0.159363	-0.206235	0.621094	0.890625	0.445313	443	16_30_38_5040170
-0.011719	-0.720703	-0.011719	-0.224984	0.159363	-0.206235	0.632813	0.902344	0.457031	444	16_30_38_5201460
-0.008789	-0.723633	-0.002930	-0.215609	0.159363	-0.215609	0.621094	0.960938	0.503906	445	16_30_38_5362750
-0.017578	-0.732422	-0.011719	-0.215609	0.159363	-0.206235	0.597656	0.914063	0.492188	446	16_30_38_5524040
-0.023438	-0.723633	-0.008789	-0.224984	0.149989	-0.206235	0.597656	0.808594	0.480469	447	16_30_38_5685330
-0.020508	-0.720703	-0.011719	-0.224984	0.159363	-0.206235	0.621094	0.738281	0.480469	448	16_30_38_5846620
-0.026367	-0.723633	-0.002930	-0.224984	0.159363	-0.206235	0.609375	0.773438	0.468750	449	16_30_38_6007910
-0.017578	-0.732422	-0.008789	-0.224984	0.149989	-0.206235	0.621094	0.902344	0.457031	450	16_30_38_6169200
-0.023438	-0.723633	-0.020508	-0.224984	0.149989	-0.206235	0.609375	0.855469	0.457031	451	16_30_38_6330490
-0.029297	-0.726563	-0.011719	-0.224984	0.149989	-0.206235	0.609375	0.796875	0.457031	452	16_30_38_6491780
-0.023438	-0.726563	0.000000	-0.224984	0.149989	-0.206235	0.632813	0.902344	0.468750	453	16_30_38_6653070
-0.035156	-0.720703	-0.002930	-0.224984	0.149989	-0.206235	0.609375	0.820313	0.457031	454	16_30_38_6814360
-0.026367	-0.723633	-0.014648	-0.224984	0.149989	-0.206235	0.609375	0.960938	0.457031	455	16_30_38_6975650
-0.017578	-0.723633	-0.002930	-0.234358	0.149989	-0.196861	0.632813	0.843750	0.457031	456	16_30_38_7136940
-0.017578	-0.726563	-0.008789	-0.224984	0.149989	-0.206235	0.609375	0.937500	0.468750	457	16_30_38_7298230
-0.029297	-0.732422	-0.011719	-0.224984	0.149989	-0.206235	0.644531	0.914063	0.445313	458	16_30_38_7459520
-0.020508	-0.726563	-0.002930	-0.224984	0.149989	-0.206235	0.644531	0.914063	0.445313	459	16_30_38_7620810
-0.020508	-0.729492	-0.002930	-0.224984	0.149989	-0.206235	0.609375	0.972656	0.503906	460	16_30_38_7782100
-0.023438	-0.726563	-0.005859	-0.224984	0.149989	-0.206235	0.597656	0.937500	0.480469	461	16_30_38_7943390
-0.017578	-0.720703	-0.005859	-0.224984	0.140615	-0.196861	0.621094	0.914063	0.433594	462	16_30_38_8104680
-0.011719	-0.738281	-0.005859	-0.224984	0.140615	-0.196861	0.621094	0.785156	0.445313	463	16_30_38_8265970
-0.017578	-0.735352	0.000000	-0.215609	0.149989	-0.196861	0.644531	0.832031	0.503906	464	16_30_38_8427260
-0.011719	-0.723633	-0.011719	-0.215609	0.149989	-0.196861	0.644531	0.867188	0.503906	465	16_30_38_8588550
-0.032227	-0.732422	-0.020508	-0.243732	0.149989	-0.196861	0.621094	0.914063	0.480469	466	16_30_38_8749840
-0.023438	-0.720703	-0.002930	-0.224984	0.140615	-0.196861	0.609375	0.925781	0.468750	467	16_30_38_8911130
-0.017578	-0.726563	-0.008789	-0.224984	0.149989	-0.196861	0.609375	0.914063	0.457031	468	16_30_38_9072420
-0.011719	-0.717773	-0.011719	-0.224984	0.149989	-0.196861	0.621094	0.867188	0.468750	469	16_30_38_9233710
-0.020508	-0.720703	-0.002930	-0.224984	0.149989	-0.196861	0.585938	0.867188	0.468750	470	16_30_38_9395000
-0.017578	-0.732422	-0.005859	-0.224984	0.149989	-0.206235	0.609375	0.820313	0.503906	471	16_30_38_9556290
-0.017578	-0.726563	0.000000	-0.224984	0.149989	-0.206235	0.644531	0.867188	0.503906	472	16_30_38_9717580
-0.005859	-0.732422	-0.011719	-0.224984	0.149989	-0.206235	0.621094	0.843750	0.480469	473	16_30_38_9878870
-0.020508	-0.723633	-0.011719	-0.224984	0.149989	-0.206235	0.585938	0.890625	0.468750	474	16_30_39_0040160
-0.002930	-0.723633	-0.005859	-0.215609	0.149989	-0.206235	0.667969	0.984375	0.457031	475	16_30_39_0201450
-0.011719	-0.732422	-0.005859	-0.215609	0.149989	-0.196861	0.621094	0.796875	0.468750	476	16_30_39_0362740
-0.005859	-0.732422	-0.014648	-0.224984	0.149989	-0.196861	0.644531	0.890625	0.468750	477	16_30_39_0524030
-0.014648	-0.726563	-0.014648	-0.224984	0.149989	-0.196861	0.609375	0.902344	0.480469	478	16_30_39_0685320
-0.020508	-0.735352	-0.011719	-0.224984	0.149989	-0.206235	0.597656	0.937500	0.468750	479	16_30_39_0846610
-0.017578	-0.735352	0.002930	-0.224984	0.149989	-0.206235	0.632813	0.937500	0.457031	480	16_30_39_1007900
-0.029297	-0.732422	-0.005859	-0.215609	0.149989	-0.206235	0.597656	0.914063	0.480469	481	16_30_39_1169190
-0.020508	-0.732422	-0.014648	-0.234358	0.149989	-0.206235	0.609375	0.890625	0.492188	482	16_30_39_1330480
-0.017578	-0.723633	-0.005859	-0.224984	0.149989	-0.206235	0.621094	0.902344	0.468750	483	16_30_39_1491770
-0.017578	-0.723633	-0.008789	-0.224984	0.149989	-0.206235	0.796875	1.417969	0.503906	484	16_30_39_1653060
-0.014648	-0.720703	-0.008789	-0.224984	0.149989	-0.206235	0.644531	1.394531	0.527344	485	16_30_39_1814350
-0.023438	-0.729492	0.002930	-0.224984	0.149989	-0.206235	0.609375	0.914063	0.480469	486	16_30_39_1975640
-0.005859	-0.720703	-0.002930	-0.215609	0.149989	-0.196861	0.667969	1.007813	0.480469	487	16_30_39_2136930
-0.020508	-0.738281	-0.011719	-0.215609	0.149989	-0.196861	0.644531	0.972656	0.492188	488	16_30_39_2298220
-0.005859	-0.726563	-0.005859	-0.224984	0.140615	-0.196861	0.632813	0.855469	0.503906	489	16_30_39_2459510
-0.014648	-0.726563	-0.005859	-0.215609	0.149989	-0.206235	0.738281	1.007813	0.492188	490	16_30_39_2620800
-0.011719	-0.726563	-0.002930	-0.224984	0.149989	-0.206235	0.621094	0.937500	0.468750	491	16_30_39_2782090
-0.023438	-0.738281	-0.005859	-0.224984	0.149989	-0.196861	0.609375	0.890625	0.480469	492	16_30_39_2943380
-0.026367	-0.717773	0.000000	-0.224984	0.149989	-0.206235	0.644531	0.925781	0.457031	493	16_30_39_3104670
-0.014648	-0.732422	-0.008789	-0.224984	0.149989	-0.206235	0.621094	0.890625	0.457031	494	16_30_39_3265960
-0.014648	-0.735352	-0.014648	-0.234358	0.149989	-0.206235	0.632813	0.867188	0.468750	495	16_30_39_3427250
-0.017578	-0.729492	-0.005859	-0.224984	0.149989	-0.206235	0.621094	0.867188	0.480469	496	16_30_39_3588540
-0.020508	-0.720703	-0.002930	-0.224984	0.149989	-0.206235	0.609375	0.773438	0.445313	497	16_30_39_3749830
-0.011719	-0.720703	-0.005859	-0.224984	0.149989	-0.196861	0.691406	1.007813	0.433594	498	16_30_39_3911120
-0.020508	-0.732422	-0.011719	-0.224984	0.149989	-0.206235	0.632813	0.890625	0.457031	499	16_30_39_4072410
-0.041016	-0.732422	0.002930	-0.224984	0.149989	-0.206235	0.621094	0.808594	0.492188	500	16_30_39_4233700
-0.017578	-0.738281	-0.017578	-0.224984	0.149989	-0.196861	0.632813	0.808594	0.492188	501	16_30_39_4394990
-0.020508	-0.711914	-0.005859	-0.215609	0.149989	-0.206235	0.632813	0.843750	0.468750	502	16_30_39_4556280
-0.017578	-0.732422	-0.011719	-0.224984	0.149989	-0.206235	0.621094	0.867188	0.457031	503	16_30_39_4717570
-0.017578	-0.732422	0.000000	-0.215609	0.149989	-0.196861	0.609375	0.832031	0.445313	504	16_30_39_4878860
-0.011719	-0.723633	-0.008789	-0.224984	0.149989	-0.206235	0.632813	0.867188	0.457031	505	16_30_39_5040150
-0.020508	-0.738281	-0.005859	-0.224984	0.149989	-0.206235	0.609375	0.796875	0.468750	506	16_30_39_5201440
-0.029297	-0.732422	-0.011719	-0.224984	0.149989	-0.206235	0.597656	0.820313	0.457031	507	16_30_39_5362730
-0.023438	-0.729492	-0.014648	-0.224984	0.149989	-0.196861	0.597656	0.796875	0.445313	508	16_30_39_5524020
-0.017578	-0.717773	-0.008789	-0.215609	0.149989	-0.206235	0.609375	0.832031	0.457031	509	16_30_39_5685310
-0.017578	-0.720703	-0.005859	-0.224984	0.149989	-0.196861	0.609375	0.832031	0.492188	510	16_30_39_5846600
-0.017578	-0.729492	-0.017578	-0.224984	0.149989	-0.196861	0.726563	0.996094	0.515625	511	16_30_39_6007890
-0.029297	-0.732422	-0.008789	-0.224984	0.149989	-0.196861	0.621094	0.890625	0.492188	512	16_30_39_6169180
-0.026367	-0.729492	-0.005859	-0.215609	0.149989	-0.206235	0.609375	0.832031	0.480469	513	16_30_39_6330470
-0.011719	-0.732422	-0.002930	-0.215609	0.149989	-0.196861	0.585938	0.820313	0.457031	514	16_30_39_6491760
-0.017578	-0.732422	-0.005859	-0.215609	0.149989	-0.206235	0.644531	0.937500	0.468750	515	16_30_39_6653050
-0.017578	-0.735352	-0.017578	-0.224984	0.149989	-0.206235	0.597656	0.925781	0.468750	516	16_30_39_6814340
-0.008789	-0.729492	-0.008789	-0.224984	0.149989	-0.206235	0.597656	0.890625	0.480469	517	16_30_39_6975630
-0.026367	-0.723633	-0.002930	-0.224984	0.149989	-0.206235	0.621094	0.914063	0.445313	518	16_30_39_7136920
-0.014648	-0.732422	0.002930	-0.215609	0.149989	-0.206235	0.609375	0.949219	0.433594	519	16_30_39_7298210
-0.017578	-0.729492	-0.011719	-0.215609	0.149989	-0.206235	0.585938	0.914063	0.457031	520	16_30_39_7459500
-0.017578	-0.738281	-0.011719	-0.215609	0.149989	-0.206235	0.585938	0.890625	0.445313	521	16_30_39_7620790
-0.008789	-0.732422	-0.005859	-0.224984	0.159363	-0.206235	0.621094	0.960938	0.457031	522	16_30_39_7782080
-0.017578	-0.738281	-0.002930	-0.224984	0.149989	-0.206235	0.621094	0.937500	0.492188	523	16_30_39_7943370
-0.017578	-0.732422	-0.008789	-0.215609	0.159363	-0.206235	0.832031	1.253906	0.515625	524	16_30_39_8104660
-0.017578	-0.726563	-0.017578	-0.224984	0.149989	-0.206235	0.632813	0.925781	0.480469	525	16_30_39_8265950
-0.020508	-0.726563	-0.014648	-0.215609	0.149989	-0.206235	0.632813	0.925781	0.480469	526	16_30_39_8427240
-0.011719	-0.720703	-0.014648	-0.224984	0.149989	-0.196861	0.644531	1.136719	0.527344	527	16_30_39_8588530
-0.017578	-0.726563	-0.008789	-0.224984	0.149989	-0.196861	0.644531	0.867188	0.433594	528	16_30_39_8749820
-0.020508	-0.729492	-0.005859	-0.215609	0.149989	-0.196861	0.621094	0.867188	0.433594	529	16_30_39_8911110
-0.002930	-0.720703	-0.005859	-0.224984	0.149989	-0.196861	0.597656	0.890625	0.445313	530	16_30_39_9072400
-0.020508	-0.726563	-0.011719	-0.215609	0.149989	-0.196861	0.621094	0.867188	0.457031	531	16_30_39_9233690
-0.020508	-0.732422	-0.014648	-0.224984	0.149989	-0.196861	0.632813	0.914063	0.468750	532	16_30_39_9394980
-0.008789	-0.726563	-0.005859	-0.224984	0.149989	-0.206235	0.609375	0.949219	0.468750	533	16_30_39_9556270
-0.014648	-0.732422	-0.008789	-0.215609	0.149989	-0.206235	0.609375	0.902344	0.468750	534	16_30_39_9717560
-0.011719	-0.726563	-0.008789	-0.215609	0.149989	-0.196861	0.632813	0.867188	0.480469	535	16_30_39_9878850
0.000000	-0.732422	-0.008789	-0.224984	0.149989	-0.206235	0.609375	0.867188	0.457031	536	16_30_40_0040140
-0.008789	-0.732422	-0.014648	-0.224984	0.149989	-0.206235	0.574219	0.914063	0.468750	537	16_30_40_0201430
-0.005859	-0.726563	0.000000	-0.224984	0.149989	-0.206235	0.609375	0.867188	0.468750	538	16_30_40_0362720
-0.017578	-0.732422	-0.014648	-0.224984	0.149989	-0.206235	0.679688	0.937500	0.539063	539	16_30_40_0524010
-0.005859	-0.720703	-0.002930	-0.215609	0.149989	-0.196861	0.691406	1.019531	0.480469	540	16_30_40_0685300
-0.017578	-0.735352	-0.005859	-0.224984	0.149989	-0.206235	0.621094	0.843750	0.480469	541	16_30_40_0846590
-0.020508	-0.723633	-0.014648	-0.224984	0.149989	-0.196861	0.597656	0.878906	0.492188	542	16_30_40_1007880
-0.008789	-0.732422	-0.008789	-0.224984	0.149989	-0.206235	0.632813	0.949219	0.468750	543	16_30_40_1169170
-0.005859	-0.735352	-0.014648	-0.215609	0.159363	-0.206235	0.644531	0.949219	0.468750	544	16_30_40_1330460
-0.020508	-0.720703	-0.005859	-0.215609	0.159363	-0.206235	0.878906	1.289063	0.503906	545	16_30_40_1491750
-0.023438	-0.720703	-0.002930	-0.215609	0.159363	-0.224984	0.621094	0.925781	0.492188	546	16_30_40_1653040
-0.017578	-0.723633	-0.002930	-0.215609	0.149989	-0.206235	0.632813	0.960938	0.468750	547	16_30_40_1814330
-0.023438	-0.726563	-0.014648	-0.224984	0.149989	-0.206235	0.609375	0.867188	0.457031	548	16_30_40_1975620
-0.017578	-0.729492	-0.005859	-0.224984	0.149989	-0.206235	0.597656	0.902344	0.492188	549	16_30_40_2136910
-0.011719	-0.732422	-0.002930	-0.224984	0.159363	-0.206235	0.621094	0.890625	0.492188	550	16_30_40_2298200
-0.017578	-0.729492	-0.005859	-0.215609	0.149989	-0.206235	0.621094	0.843750	0.480469	551	16_30_40_2459490
-0.014648	-0.726563	-0.002930	-0.224984	0.159363	-0.206235	0.656250	0.867188	0.492188	552	16_30_40_2620780
-0.023438	-0.723633	-0.002930	-0.224984	0.159363	-0.206235	0.621094	0.914063	0.503906	553	16_30_40_2782070
-0.026367	-0.726563	-0.002930	-0.224984	0.159363	-0.206235	0.632813	0.867188	0.503906	554	16_30_40_2943360
-0.014648	-0.720703	-0.002930	-0.224984	0.159363	-0.206235	0.621094	0.808594	0.468750	555	16_30_40_3104650
-0.017578	-0.729492	-0.002930	-0.215609	0.159363	-0.206235	0.597656	0.832031	0.445313	556	16_30_40_3265940
-0.029297	-0.720703	-0.008789	-0.224984	0.159363	-0.206235	0.644531	0.820313	0.492188	557	16_30_40_3427230
-0.023438	-0.720703	-0.011719	-0.215609	0.159363	-0.206235	0.644531	0.843750	0.515625	558	16_30_40_3588520
-0.023438	-0.732422	-0.008789	-0.215609	0.159363	-0.206235	0.609375	0.855469	0.480469	559	16_30_40_3749810
-0.032227	-0.729492	-0.011719	-0.215609	0.149989	-0.196861	0.585938	0.890625	0.445313	560	16_30_40_3911100
-0.020508	-0.735352	-0.008789	-0.215609	0.149989	-0.206235	0.621094	0.890625	0.433594	561	16_30_40_4072390
-0.017578	-0.723633	-0.002930	-0.215609	0.149989	-0.206235	0.644531	0.878906	0.457031	562	16_30_40_4233680
-0.011719	-0.720703	-0.005859	-0.224984	0.149989	-0.206235	0.609375	0.902344	0.492188	563	16_30_40_4394970
-0.014648	-0.720703	-0.002930	-0.224984	0.149989	-0.196861	0.609375	0.960938	0.468750	564	16_30_40_4556260
-0.011719	-0.735352	-0.002930	-0.215609	0.149989	-0.196861	0.632813	0.937500	0.457031	565	16_30_40_4717550
-0.020508	-0.732422	-0.011719	-0.224984	0.149989	-0.196861	0.609375	0.902344	0.457031	566	16_30_40_4878840
-0.026367	-0.720703	-0.005859	-0.215609	0.140615	-0.196861	0.832031	1.382813	0.515625	567	16_30_40_5040130
-0.017578	-0.732422	-0.002930	-0.224984	0.149989	-0.196861	0.621094	0.914063	0.457031	568	16_30_40_5201420
-0.017578	-0.732422	-0.011719	-0.215609	0.149989	-0.196861	0.656250	0.914063	0.445313	569	16_30_40_5362710
-0.017578	-0.726563	-0.005859	-0.224984	0.140615	-0.196861	0.621094	0.925781	0.457031	570	16_30_40_5524000
-0.011719	-0.723633	-0.011719	-0.215609	0.149989	-0.196861	0.714844	1.078125	0.492188	571	16_30_40_5685290
-0.017578	-0.729492	-0.002930	-0.224984	0.131240	-0.196861	0.621094	0.843750	0.468750	572	16_30_40_5846580
-0.020508	-0.726563	-0.005859	-0.215609	0.149989	-0.196861	0.632813	0.914063	0.480469	573	16_30_40_6007870
-0.014648	-0.723633	0.000000	-0.224984	0.149989	-0.196861	0.632813	0.890625	0.480469	574	16_30_40_6169160
-0.005859	-0.732422	0.002930	-0.215609	0.149989	-0.196861	0.632813	0.843750	0.468750	575	16_30_40_6330450
0.000000	-0.720703	-0.002930	-0.224984	0.149989	-0.206235	0.632813	0.890625	0.468750	576	16_30_40_6491740
-0.005859	-0.735352	-0.011719	-0.224984	0.149989	-0.206235	0.609375	0.902344	0.457031	577	16_30_40_6653030
-0.008789	-0.738281	-0.005859	-0.224984	0.149989	-0.206235	0.609375	0.890625	0.445313	578	16_30_40_6814320
-0.017578	-0.735352	0.000000	-0.215609	0.159363	-0.206235	0.644531	0.843750	0.457031	579	16_30_40_6975610
-0.008789	-0.732422	-0.005859	-0.215609	0.149989	-0.206235	0.632813	0.867188	0.457031	580	16_30_40_7136900
0.000000	-0.738281	-0.002930	-0.215609	0.159363	-0.206235	0.585938	0.890625	0.468750	581	16_30_40_7298190
-0.005859	-0.732422	-0.020508	-0.224984	0.149989	-0.206235	0.679688	0.960938	0.480469	582	16_30_40_7459480
-0.014648	-0.726563	-0.005859	-0.224984	0.159363	-0.206235	0.632813	0.843750	0.457031	583	16_30_40_7620770
-0.017578	-0.732422	-0.008789	-0.215609	0.159363	-0.206235	0.656250	0.914063	0.480469	584	16_30_40_7782060
-0.020508	-0.720703	-0.008789	-0.224984	0.159363	-0.206235	0.621094	0.855469	0.480469	585	16_30_40_7943350
-0.008789	-0.723633	-0.011719	-0.215609	0.149989	-0.206235	0.750000	1.007813	0.480469	586	16_30_40_8104640
-0.023438	-0.729492	-0.014648	-0.224984	0.149989	-0.206235	0.843750	1.171875	0.527344	587	16_30_40_8265930
-0.017578	-0.729492	-0.008789	-0.224984	0.149989	-0.206235	0.609375	0.902344	0.468750	588	16_30_40_8427220
-0.011719	-0.732422	-0.002930	-0.224984	0.149989	-0.206235	0.621094	0.796875	0.457031	589	16_30_40_8588510
-0.011719	-0.720703	-0.014648	-0.215609	0.140615	-0.206235	0.621094	0.796875	0.457031	590	16_30_40_8749800
-0.017578	-0.738281	-0.005859	-0.224984	0.149989	-0.206235	0.621094	0.937500	0.445313	591	16_30_40_8911090
-0.014648	-0.723633	-0.005859	-0.224984	0.149989	-0.196861	0.632813	0.960938	0.421875	592	16_30_40_9072380
-0.017578	-0.732422	-0.005859	-0.215609	0.149989	-0.206235	0.703125	1.054688	0.445313	593	16_30_40_9233670
-0.017578	-0.747070	-0.002930	-0.224984	0.149989	-0.206235	0.644531	0.902344	0.480469	594	16_30_40_9394960
-0.011719	-0.735352	-0.002930	-0.224984	0.149989	-0.206235	0.632813	0.867188	0.503906	595	16_30_40_9556250
-0.017578	-0.720703	-0.008789	-0.224984	0.149989	-0.206235	0.597656	0.902344	0.468750	596	16_30_40_9717540
-0.020508	-0.714844	0.000000	-0.234358	0.149989	-0.206235	0.621094	0.855469	0.398438	597	16_30_40_9878830
-0.011719	-0.723633	-0.002930	-0.224984	0.159363	-0.206235	0.621094	0.937500	0.410156	598	16_30_41_0040120
-0.008789	-0.732422	-0.014648	-0.224984	0.159363	-0.206235	0.621094	0.949219	0.468750	599	16_30_41_0201410
-0.011719	-0.735352	-0.008789	-0.224984	0.159363	-0.206235	0.644531	0.843750	0.492188	600	16_30_41_0362700
-0.011719	-0.729492	-0.014648	-0.224984	0.159363	-0.206235	0.621094	0.796875	0.492188	601	16_30_41_0523990
-0.017578	-0.726563	-0.011719	-0.224984	0.149989	-0.206235	0.621094	0.843750	0.503906	602	16_30_41_0685280
-0.020508	-0.726563	-0.011719	-0.215609	0.149989	-0.206235	0.761719	1.042969	0.492188	603	16_30_41_0846570
-0.017578	-0.729492	-0.005859	-0.224984	0.149989	-0.206235	0.621094	0.867188	0.480469	604	16_30_41_1007860
-0.017578	-0.726563	-0.008789	-0.215609	0.149989	-0.206235	0.621094	0.890625	0.480469	605	16_30_41_1169150
-0.020508	-0.732422	-0.014648	-0.224984	0.149989	-0.196861	0.632813	0.867188	0.457031	606	16_30_41_1330440
-0.011719	-0.732422	-0.002930	-0.224984	0.149989	-0.196861	0.632813	0.890625	0.468750	607	16_30_41_1491730
-0.005859	-0.732422	-0.011719	-0.224984	0.149989	-0.206235	0.621094	0.867188	0.492188	608	16_30_41_1653020
-0.014648	-0.726563	-0.002930	-0.215609	0.149989	-0.196861	0.644531	0.855469	0.480469	609	16_30_41_1814310
-0.017578	-0.732422	-0.008789	-0.224984	0.149989	-0.206235	0.621094	0.890625	0.457031	610	16_30_41_1975600
-0.017578	-0.732422	-0.002930	-0.224984	0.140615	-0.196861	0.679688	0.960938	0.457031	611	16_30_41_2136890
-0.008789	-0.729492	-0.008789	-0.224984	0.149989	-0.206235	0.621094	0.832031	0.457031	612	16_30_41_2298180
-0.017578	-0.720703	-0.002930	-0.224984	0.149989	-0.206235	0.621094	0.785156	0.468750	613	16_30_41_2459470
-0.017578	-0.729492	-0.002930	-0.215609	0.149989	-0.206235	0.632813	0.867188	0.492188	614	16_30_41_2620760
-0.029297	-0.717773	-0.002930	-0.224984	0.149989	-0.206235	0.621094	0.925781	0.503906	615	16_30_41_2782050
-0.017578	-0.732422	-0.002930	-0.224984	0.149989	-0.206235	0.632813	0.914063	0.492188	616	16_30_41_2943340
-0.005859	-0.732422	-0.002930	-0.224984	0.149989	-0.206235	0.621094	0.890625	0.492188	617	16_30_41_3104630
-0.017578	-0.738281	0.000000	-0.224984	0.149989	-0.206235	0.597656	0.878906	0.468750	618	16_30_41_3265920
-0.011719	-0.735352	-0.008789	-0.224984	0.159363	-0.206235	0.621094	0.867188	0.433594	619	16_30_41_3427210
-0.017578	-0.723633	0.002930	-0.215609	0.149989	-0.206235	0.691406	1.347656	0.445313	620	16_30_41_3588500
-0.011719	-0.714844	-0.002930	-0.224984	0.149989	-0.206235	0.632813	0.867188	0.445313	621	16_30_41_3749790
-0.014648	-0.723633	-0.002930	-0.224984	0.149989	-0.206235	0.632813	0.925781	0.515625	622	16_30_41_3911080
-0.014648	-0.732422	-0.005859	-0.224984	0.149989	-0.206235	0.609375	0.867188	0.457031	623	16_30_41_4072370
-0.014648	-0.720703	-0.005859	-0.224984	0.149989	-0.206235	0.609375	0.867188	0.445313	624	16_30_41_4233660
-0.014648	-0.720703	-0.002930	-0.215609	0.149989	-0.206235	0.644531	0.820313	0.457031	625	16_30_41_4394950
-0.020508	-0.726563	-0.005859	-0.224984	0.149989	-0.196861	0.585938	0.867188	0.457031	626	16_30_41_4556240
-0.020508	-0.729492	-0.008789	-0.224984	0.149989	-0.206235	0.644531	0.937500	0.457031	627	16_30_41_4717530
-0.014648	-0.711914	0.000000	-0.224984	0.149989	-0.206235	0.644531	0.960938	0.445313	628	16_30_41_4878820
-0.026367	-0.723633	0.002930	-0.215609	0.149989	-0.196861	0.621094	0.937500	0.468750	629	16_30_41_5040110
-0.020508	-0.726563	-0.008789	-0.224984	0.149989	-0.206235	0.621094	0.949219	0.480469	630	16_30_41_5201400
-0.011719	-0.726563	-0.002930	-0.215609	0.149989	-0.196861	0.644531	0.843750	0.468750	631	16_30_41_5362690
-0.017578	-0.732422	-0.002930	-0.224984	0.149989	-0.196861	0.632813	0.890625	0.468750	632	16_30_41_5523980
-0.017578	-0.717773	-0.002930	-0.215609	0.149989	-0.206235	0.609375	0.984375	0.468750	633	16_30_41_5685270
-0.005859	-0.729492	0.000000	-0.215609	0.149989	-0.206235	0.621094	0.937500	0.468750	634	16_30_41_5846560
-0.005859	-0.732422	-0.014648	-0.224984	0.149989	-0.206235	0.609375	0.972656	0.468750	635	16_30_41_6007850
-0.020508	-0.741211	-0.008789	-0.224984	0.149989	-0.206235	0.632813	0.949219	0.503906	636	16_30_41_6169140
-0.017578	-0.720703	-0.011719	-0.224984	0.149989	-0.206235	0.609375	0.855469	0.492188	637	16_30_41_6330430
-0.014648	-0.732422	-0.011719	-0.224984	0.149989	-0.196861	0.609375	0.820313	0.468750	638	16_30_41_6491720
-0.017578	-0.717773	-0.002930	-0.224984	0.149989	-0.206235	0.609375	0.773438	0.457031	639	16_30_41_6653010
-0.017578	-0.729492	-0.008789	-0.224984	0.149989	-0.206235	0.597656	0.867188	0.457031	640	16_30_41_6814300
-0.011719	-0.732422	0.000000	-0.224984	0.149989	-0.206235	0.597656	0.855469	0.468750	641	16_30_41_6975590
-0.023438	-0.729492	-0.014648	-0.224984	0.149989	-0.206235	0.621094	0.855469	0.468750	642	16_30_41_7136880
-0.023438	-0.723633	0.002930	-0.215609	0.149989	-0.196861	0.621094	0.890625	0.503906	643	16_30_41_7298170
-0.014648	-0.723633	-0.008789	-0.224984	0.149989	-0.196861	0.632813	0.867188	0.480469	644	16_30_41_7459460
-0.017578	-0.726563	-0.005859	-0.215609	0.149989	-0.196861	0.621094	0.820313	0.457031	645	16_30_41_7620750
-0.026367	-0.726563	-0.002930	-0.224984	0.149989	-0.206235	0.632813	0.796875	0.468750	646	16_30_41_7782040
-0.014648	-0.732422	-0.002930	-0.224984	0.149989	-0.206235	0.621094	0.914063	0.480469	647	16_30_41_7943330
-0.017578	-0.732422	-0.005859	-0.224984	0.149989	-0.206235	0.621094	0.925781	0.468750	648	16_30_41_8104620
-0.026367	-0.726563	-0.002930	-0.215609	0.149989	-0.206235	0.609375	0.890625	0.445313	649	16_30_41_8265910
-0.005859	-0.723633	-0.002930	-0.215609	0.149989	-0.206235	0.609375	0.890625	0.468750	650	16_30_41_8427200
-0.011719	-0.732422	-0.011719	-0.215609	0.149989	-0.206235	0.667969	0.984375	0.492188	651	16_30_41_8588490
-0.014648	-0.732422	-0.008789	-0.215609	0.149989	-0.206235	0.621094	0.914063	0.480469	652	16_30_41_8749780
-0.023438	-0.726563	-0.008789	-0.224984	0.159363	-0.206235	0.632813	0.937500	0.457031	653	16_30_41_8911070
-0.029297	-0.732422	-0.002930	-0.215609	0.159363	-0.206235	0.621094	0.914063	0.457031	654	16_30_41_9072360
-0.029297	-0.729492	-0.005859	-0.224984	0.149989	-0.206235	0.632813	0.867188	0.492188	655	16_30_41_9233650
-0.017578	-0.729492	0.000000	-0.224984	0.149989	-0.206235	0.632813	0.878906	0.480469	656	16_30_41_9394940
-0.008789	-0.732422	-0.017578	-0.224984	0.149989	-0.206235	0.574219	0.914063	0.468750	657	16_30_41_9556230
-0.017578	-0.723633	-0.017578	-0.215609	0.149989	-0.206235	0.738281	1.078125	0.503906	658	16_30_41_9717520
-0.017578	-0.720703	-0.005859	-0.215609	0.149989	-0.196861	0.621094	0.902344	0.457031	659	16_30_41_9878810
-0.011719	-0.729492	-0.002930	-0.224984	0.149989	-0.196861	0.597656	0.855469	0.457031	660	16_30_42_0040100
-0.020508	-0.729492	-0.002930	-0.215609	0.149989	-0.206235	0.621094	0.925781	0.468750	661	16_30_42_0201390
-0.020508	-0.729492	-0.008789	-0.215609	0.149989	-0.196861	0.656250	0.984375	0.480469	662	16_30_42_0362680
-0.020508	-0.732422	-0.011719	-0.224984	0.149989	-0.196861	0.609375	0.867188	0.480469	663	16_30_42_0523970
-0.020508	-0.735352	-0.002930	-0.224984	0.149989	-0.206235	0.632813	0.878906	0.468750	664	16_30_42_0685260
-0.032227	-0.729492	-0.008789	-0.215609	0.149989	-0.206235	0.609375	0.890625	0.457031	665	16_30_42_0846550
-0.023438	-0.714844	-0.002930	-0.215609	0.149989	-0.206235	0.621094	0.878906	0.445313	666	16_30_42_1007840
-0.014648	-0.729492	-0.008789	-0.224984	0.149989	-0.206235	0.597656	0.867188	0.468750	667	16_30_42_1169130
-0.014648	-0.723633	-0.008789	-0.224984	0.149989	-0.206235	0.609375	0.914063	0.468750	668	16_30_42_1330420
-0.011719	-0.720703	-0.008789	-0.224984	0.149989	-0.206235	0.726563	1.101563	0.468750	669	16_30_42_1491710
-0.014648	-0.720703	-0.005859	-0.224984	0.149989	-0.206235	0.609375	0.890625	0.468750	670	16_30_42_1653000
-0.017578	-0.726563	-0.002930	-0.215609	0.149989	-0.206235	0.773438	1.511719	0.515625	671	16_30_42_1814290
-0.011719	-0.732422	-0.005859	-0.215609	0.149989	-0.206235	0.597656	0.984375	0.480469	672	16_30_42_1975580
-0.014648	-0.720703	-0.008789	-0.224984	0.149989	-0.206235	0.632813	0.890625	0.503906	673	16_30_42_2136870
-0.017578	-0.720703	0.000000	-0.215609	0.149989	-0.206235	0.644531	0.878906	0.527344	674	16_30_42_2298160
-0.029297	-0.720703	-0.014648	-0.215609	0.149989	-0.206235	0.667969	0.890625	0.503906	675	16_30_42_2459450
-0.011719	-0.720703	-0.002930	-0.215609	0.149989	-0.206235	0.597656	0.867188	0.480469	676	16_30_42_2620740
-0.020508	-0.732422	0.008789	-0.224984	0.149989	-0.206235	0.621094	0.914063	0.480469	677	16_30_42_2782030
-0.017578	-0.732422	-0.005859	-0.215609	0.149989	-0.206235	0.621094	0.890625	0.457031	678	16_30_42_2943320
-0.014648	-0.732422	-0.005859	-0.224984	0.149989	-0.206235	0.621094	0.902344	0.457031	679	16_30_42_3104610
-0.023438	-0.729492	-0.002930	-0.224984	0.159363	-0.206235	0.585938	0.937500	0.468750	680	16_30_42_3265900
-0.014648	-0.732422	-0.005859	-0.215609	0.149989	-0.206235	0.609375	0.890625	0.468750	681	16_30_42_3427190
-0.017578	-0.732422	-0.011719	-0.224984	0.149989	-0.206235	0.644531	0.843750	0.457031	682	16_30_42_3588480
-0.017578	-0.744141	-0.011719	-0.224984	0.149989	-0.196861	0.585938	0.867188	0.457031	683	16_30_42_3749770
-0.017578	-0.732422	-0.002930	-0.234358	0.149989	-0.206235	0.644531	0.902344	0.445313	684	16_30_42_3911060
-0.017578	-0.726563	-0.005859	-0.224984	0.159363	-0.206235	0.609375	0.820313	0.421875	685	16_30_42_4072350
-0.008789	-0.732422	-0.002930	-0.224984	0.149989	-0.206235	0.644531	0.773438	0.457031	686	16_30_42_4233640
-0.017578	-0.729492	-0.002930	-0.224984	0.159363	-0.206235	0.621094	0.890625	0.468750	687	16_30_42_4394930
-0.020508	-0.735352	-0.014648	-0.224984	0.149989	-0.206235	0.621094	0.878906	0.457031	688	16_30_42_4556220
-0.029297	-0.735352	-0.002930	-0.224984	0.149989	-0.206235	0.597656	0.773438	0.445313	689	16_30_42_4717510
-0.011719	-0.732422	-0.005859	-0.224984	0.149989	-0.206235	0.609375	0.832031	0.468750	690	16_30_42_4878800
-0.008789	-0.723633	-0.008789	-0.215609	0.149989	-0.206235	0.562500	0.832031	0.503906	691	16_30_42_5040090
-0.005859	-0.726563	-0.005859	-0.224984	0.149989	-0.206235	0.609375	0.878906	0.492188	692	16_30_42_5201380
-0.008789	-0.729492	-0.005859	-0.215609	0.149989	-0.206235	0.632813	0.890625	0.468750	693	16_30_42_5362670
-0.017578	-0.732422	-0.002930	-0.215609	0.149989	-0.206235	0.621094	0.890625	0.445313	694	16_30_42_5523960
-0.017578	-0.735352	-0.008789	-0.215609	0.149989	-0.206235	0.609375	0.867188	0.445313	695	16_30_42_5685250
-0.032227	-0.735352	-0.014648	-0.215609	0.168738	-0.215609	0.597656	0.808594	0.457031	696	16_30_42_5846540
-0.026367	-0.729492	-0.011719	-0.215609	0.159363	-0.206235	0.679688	0.972656	0.468750	697	16_30_42_6007830
-0.020508	-0.732422	-0.017578	-0.224984	0.159363	-0.196861	0.609375	0.949219	0.468750	698	16_30_42_6169120
-0.017578	-0.723633	-0.011719	-0.224984	0.149989	-0.206235	0.621094	0.843750	0.492188	699	16_30_42_6330410
-0.026367	-0.726563	-0.011719	-0.224984	0.149989	-0.196861	0.738281	0.984375	0.562500	700	16_30_42_6491700
-0.023438	-0.726563	-0.014648	-0.224984	0.149989	-0.206235	0.574219	0.878906	0.539063	701	16_30_42_6652990
-0.017578	-0.726563	-0.008789	-0.224984	0.149989	-0.196861	0.609375	0.937500	0.492188	702	16_30_42_6814280
-0.029297	-0.735352	-0.014648	-0.224984	0.149989	-0.206235	0.621094	0.914063	0.480469	703	16_30_42_6975570
-0.014648	-0.738281	-0.002930	-0.224984	0.149989	-0.206235	0.597656	0.902344	0.480469	704	16_30_42_7136860
-0.023438	-0.726563	-0.011719	-0.224984	0.149989	-0.206235	0.609375	0.890625	0.492188	705	16_30_42_7298150
-0.020508	-0.735352	-0.020508	-0.215609	0.149989	-0.206235	0.679688	1.019531	0.527344	706	16_30_42_7459440
-0.008789	-0.732422	-0.008789	-0.224984	0.149989	-0.196861	0.597656	0.937500	0.503906	707	16_30_42_7620730
-0.020508	-0.720703	0.000000	-0.224984	0.149989	-0.206235	0.621094	0.867188	0.468750	708	16_30_42_7782020
-0.017578	-0.729492	-0.002930	-0.224984	0.149989	-0.206235	0.609375	0.855469	0.445313	709	16_30_42_7943310
-0.011719	-0.720703	0.000000	-0.224984	0.149989	-0.206235	0.574219	0.890625	0.468750	710	16_30_42_8104600
-0.005859	-0.726563	-0.008789	-0.224984	0.149989	-0.206235	0.609375	0.902344	0.480469	711	16_30_42_8265890
-0.005859	-0.732422	-0.002930	-0.215609	0.149989	-0.206235	0.609375	0.867188	0.468750	712	16_30_42_8427180
-0.017578	-0.732422	-0.014648	-0.215609	0.159363	-0.206235	0.796875	1.476563	0.503906	713	16_30_42_8588470
-0.017578	-0.729492	0.002930	-0.224984	0.159363	-0.206235	0.609375	0.960938	0.468750	714	16_30_42_8749760
-0.020508	-0.732422	-0.002930	-0.215609	0.149989	-0.206235	0.621094	0.890625	0.480469	715	16_30_42_8911050
-0.008789	-0.726563	-0.011719	-0.215609	0.159363	-0.206235	0.609375	0.832031	0.480469	716	16_30_42_9072340
-0.011719	-0.732422	-0.005859	-0.224984	0.149989	-0.206235	0.609375	0.902344	0.468750	717	16_30_42_9233630
-0.020508	-0.726563	-0.002930	-0.215609	0.149989	-0.206235	0.621094	0.878906	0.457031	718	16_30_42_9394920
-0.017578	-0.726563	-0.017578	-0.224984	0.149989	-0.206235	0.609375	0.796875	0.445313	719	16_30_42_9556210
-0.020508	-0.726563	-0.014648	-0.215609	0.159363	-0.206235	0.644531	0.843750	0.457031	720	16_30_42_9717500
-0.008789	-0.729492	-0.008789	-0.224984	0.149989	-0.206235	0.621094	0.867188	0.445313	721	16_30_42_9878790
-0.023438	-0.732422	-0.014648	-0.224984	0.149989	-0.206235	0.597656	0.867188	0.468750	722	16_30_43_0040080
-0.008789	-0.732422	-0.008789	-0.224984	0.149989	-0.206235	0.621094	0.867188	0.492188	723	16_30_43_0201370
-0.014648	-0.723633	-0.005859	-0.224984	0.149989	-0.206235	0.609375	0.867188	0.468750	724	16_30_43_0362660
-0.020508	-0.720703	-0.008789	-0.215609	0.149989	-0.206235	0.609375	0.855469	0.468750	725	16_30_43_0523950
-0.017578	-0.732422	-0.005859	-0.224984	0.149989	-0.206235	0.597656	0.890625	0.480469	726	16_30_43_0685240
-0.011719	-0.723633	-0.005859	-0.224984	0.149989	-0.206235	0.609375	0.843750	0.503906	727	16_30_43_0846530
-0.011719	-0.732422	0.000000	-0.224984	0.149989	-0.206235	0.609375	0.843750	0.503906	728	16_30_43_1007820
-0.020508	-0.726563	0.002930	-0.234358	0.149989	-0.206235	0.632813	0.820313	0.480469	729	16_30_43_1169110
-0.008789	-0.729492	-0.011719	-0.224984	0.149989	-0.206235	0.632813	0.867188	0.468750	730	16_30_43_1330400
-0.029297	-0.732422	-0.014648	-0.224984	0.149989	-0.206235	0.609375	0.914063	0.492188	731	16_30_43_1491690
-0.020508	-0.720703	-0.008789	-0.215609	0.159363	-0.196861	0.632813	0.878906	0.503906	732	16_30_43_1652980
-0.029297	-0.726563	-0.008789	-0.224984	0.149989	-0.206235	0.621094	0.890625	0.503906	733	16_30_43_1814270
-0.011719	-0.732422	-0.002930	-0.224984	0.149989	-0.206235	0.644531	0.890625	0.492188	734	16_30_43_1975560
-0.017578	-0.729492	-0.008789	-0.224984	0.149989	-0.196861	0.644531	0.914063	0.503906	735	16_30_43_2136850
-0.020508	-0.729492	-0.005859	-0.224984	0.149989	-0.206235	0.656250	1.007813	0.503906	736	16_30_43_2298140
-0.017578	-0.717773	-0.008789	-0.224984	0.149989	-0.196861	0.644531	0.914063	0.515625	737	16_30_43_2459430
-0.014648	-0.723633	-0.002930	-0.215609	0.159363	-0.206235	0.644531	0.960938	0.480469	738	16_30_43_2620720
-0.029297	-0.735352	-0.002930	-0.224984	0.159363	-0.206235	0.691406	0.949219	0.468750	739	16_30_43_2782010
-0.011719	-0.738281	-0.011719	-0.224984	0.149989	-0.206235	0.632813	0.785156	0.457031	740	16_30_43_2943300
-0.020508	-0.732422	-0.002930	-0.224984	0.159363	-0.206235	0.609375	0.820313	0.492188	741	16_30_43_3104590
-0.020508	-0.732422	-0.020508	-0.224984	0.149989	-0.206235	0.714844	1.054688	0.468750	742	16_30_43_3265880
-0.017578	-0.720703	-0.011719	-0.224984	0.149989	-0.206235	0.644531	0.890625	0.421875	743	16_30_43_3427170
-0.017578	-0.726563	-0.008789	-0.224984	0.149989	-0.206235	0.621094	0.878906	0.433594	744	16_30_43_3588460
-0.017578	-0.723633	-0.008789	-0.224984	0.149989	-0.206235	0.597656	0.867188	0.457031	745	16_30_43_3749750
-0.008789	-0.720703	-0.002930	-0.215609	0.149989	-0.196861	0.632813	0.867188	0.457031	746	16_30_43_3911040
-0.011719	-0.726563	-0.020508	-0.215609	0.149989	-0.206235	0.609375	0.925781	0.457031	747	16_30_43_4072330
-0.017578	-0.726563	-0.011719	-0.215609	0.149989	-0.206235	0.632813	0.914063	0.457031	748	16_30_43_4233620
-0.020508	-0.729492	-0.011719	-0.224984	0.149989	-0.206235	0.597656	0.949219	0.445313	749	16_30_43_4394910
-0.017578	-0.738281	-0.002930	-0.224984	0.149989	-0.206235	0.632813	0.878906	0.492188	750	16_30_43_4556200
-0.014648	-0.720703	-0.005859	-0.224984	0.149989	-0.206235	0.621094	0.878906	0.492188	751	16_30_43_4717490
-0.008789	-0.723633	-0.005859	-0.224984	0.149989	-0.196861	0.597656	0.914063	0.445313	752	16_30_43_4878780
-0.017578	-0.729492	-0.005859	-0.224984	0.149989	-0.206235	0.621094	0.808594	0.468750	753	16_30_43_5040070
-0.017578	-0.726563	-0.002930	-0.215609	0.159363	-0.206235	0.644531	0.750000	0.468750	754	16_30_43_5201360
-0.023438	-0.738281	-0.002930	-0.224984	0.149989	-0.206235	0.585938	0.796875	0.457031	755	16_30_43_5362650
-0.023438	-0.723633	-0.002930	-0.224984	0.159363	-0.196861	0.621094	0.878906	0.457031	756	16_30_43_5523940
-0.020508	-0.729492	-0.008789	-0.215609	0.149989	-0.206235	0.644531	0.902344	0.468750	757	16_30_43_5685230
-0.020508	-0.723633	-0.002930	-0.224984	0.149989	-0.206235	0.609375	0.902344	0.480469	758	16_30_43_5846520
-0.014648	-0.732422	-0.005859	-0.224984	0.159363	-0.206235	0.585938	0.820313	0.468750	759	16_30_43_6007810
-0.020508	-0.723633	-0.008789	-0.224984	0.159363	-0.196861	0.632813	0.820313	0.445313	760	16_30_43_6169100
-0.023438	-0.726563	-0.002930	-0.224984	0.159363	-0.196861	0.632813	0.878906	0.445313	761	16_30_43_6330390
-0.023438	-0.720703	-0.008789	-0.224984	0.149989	-0.206235	0.609375	0.867188	0.445313	762	16_30_43_6491680
-0.023438	-0.732422	-0.005859	-0.224984	0.149989	-0.196861	0.597656	0.867188	0.445313	763	16_30_43_6652970
-0.014648	-0.732422	-0.002930	-0.224984	0.149989	-0.206235	0.574219	0.855469	0.457031	764	16_30_43_6814260
-0.020508	-0.720703	-0.008789	-0.215609	0.159363	-0.206235	0.738281	1.289063	0.527344	765	16_30_43_6975550
-0.008789	-0.723633	-0.002930	-0.234358	0.149989	-0.206235	0.621094	0.867188	0.457031	766	16_30_43_7136840
-0.011719	-0.723633	0.002930	-0.224984	0.149989	-0.206235	0.644531	0.843750	0.457031	767	16_30_43_7298130
-0.023438	-0.735352	-0.011719	-0.224984	0.149989	-0.206235	0.632813	0.808594	0.457031	768	16_30_43_7459420
-0.020508	-0.741211	-0.005859	-0.224984	0.149989	-0.196861	0.609375	0.820313	0.457031	769	16_30_43_7620710
-0.014648	-0.732422	-0.005859	-0.224984	0.149989	-0.206235	0.632813	0.867188	0.457031	770	16_30_43_7782000
-0.020508	-0.714844	-0.014648	-0.224984	0.159363	-0.196861	0.621094	0.855469	0.480469	771	16_30_43_7943290
-0.017578	-0.732422	0.002930	-0.224984	0.149989	-0.196861	0.609375	0.867188	0.457031	772	16_30_43_8104580
-0.011719	-0.729492	-0.002930	-0.224984	0.149989	-0.196861	0.609375	0.832031	0.445313	773	16_30_43_8265870
-0.011719	-0.717773	-0.008789	-0.215609	0.159363	-0.196861	0.902344	1.464844	0.539063	774	16_30_43_8427160
-0.020508	-0.720703	0.002930	-0.224984	0.149989	-0.196861	0.621094	0.867188	0.468750	775	16_30_43_8588450
-0.014648	-0.720703	0.002930	-0.215609	0.159363	-0.196861	0.609375	0.914063	0.445313	776	16_30_43_8749740
-0.020508	-0.720703	-0.011719	-0.224984	0.149989	-0.206235	0.609375	0.937500	0.468750	777	16_30_43_8911030
-0.020508	-0.732422	-0.017578	-0.215609	0.149989	-0.196861	0.632813	0.949219	0.433594	778	16_30_43_9072320
-0.023438	-0.723633	0.000000	-0.215609	0.149989	-0.206235	0.609375	0.937500	0.433594	779	16_30_43_9233610
-0.020508	-0.732422	0.002930	-0.224984	0.149989	-0.206235	0.597656	0.890625	0.515625	780	16_30_43_9394900
-0.017578	-0.738281	-0.005859	-0.224984	0.149989	-0.196861	0.632813	0.914063	0.539063	781	16_30_43_9556190
-0.014648	-0.732422	-0.002930	-0.224984	0.149989	-0.196861	0.621094	0.867188	0.492188	782	16_30_43_9717480
-0.017578	-0.717773	-0.008789	-0.224984	0.149989	-0.206235	0.597656	0.867188	0.468750	783	16_30_43_9878770
-0.014648	-0.735352	-0.011719	-0.224984	0.149989	-0.206235	0.632813	0.960938	0.457031	784	16_30_44_0040060
-0.005859	-0.732422	-0.002930	-0.224984	0.149989	-0.206235	0.621094	0.984375	0.457031	785	16_30_44_0201350
-0.011719	-0.732422	-0.008789	-0.224984	0.149989	-0.206235	0.632813	0.949219	0.457031	786	16_30_44_0362640
-0.017578	-0.726563	-0.005859	-0.215609	0.159363	-0.206235	0.679688	1.347656	0.539063	787	16_30_44_0523930
-0.029297	-0.723633	0.000000	-0.224984	0.149989	-0.196861	0.632813	0.925781	0.468750	788	16_30_44_0685220
-0.035156	-0.732422	-0.008789	-0.224984	0.149989	-0.196861	0.621094	0.914063	0.433594	789	16_30_44_0846510
-0.011719	-0.729492	-0.008789	-0.224984	0.149989	-0.206235	0.691406	1.054688	0.457031	790	16_30_44_1007800
-0.014648	-0.723633	-0.002930	-0.224984	0.149989	-0.196861	0.632813	0.902344	0.480469	791	16_30_44_1169090
-0.017578	-0.726563	-0.005859	-0.224984	0.149989	-0.206235	0.621094	0.914063	0.480469	792	16_30_44_1330380
-0.020508	-0.732422	0.002930	-0.224984	0.149989	-0.206235	0.597656	0.843750	0.445313	793	16_30_44_1491670
-0.014648	-0.726563	-0.005859	-0.224984	0.149989	-0.206235	0.832031	1.218750	0.457031	794	16_30_44_1652960
-0.014648	-0.744141	0.002930	-0.224984	0.149989	-0.196861	0.609375	0.914063	0.445313	795	16_30_44_1814250
-0.017578	-0.723633	-0.002930	-0.224984	0.149989	-0.196861	0.609375	0.878906	0.503906	796	16_30_44_1975540
-0.008789	-0.708984	0.002930	-0.224984	0.149989	-0.196861	0.621094	0.855469	0.503906	797	16_30_44_2136830
-0.008789	-0.729492	-0.005859	-0.224984	0.149989	-0.206235	0.621094	0.878906	0.457031	798	16_30_44_2298120
-0.023438	-0.723633	-0.008789	-0.215609	0.159363	-0.196861	0.656250	0.937500	0.480469	799	16_30_44_2459410
-0.020508	-0.729492	-0.002930	-0.224984	0.149989	-0.206235	0.656250	0.949219	0.468750	800	16_30_44_2620700
-0.017578	-0.723633	-0.002930	-0.224984	0.149989	-0.196861	0.621094	0.960938	0.468750	801	16_30_44_2781990
-0.023438	-0.714844	-0.002930	-0.224984	0.149989	-0.196861	0.609375	0.960938	0.480469	802	16_30_44_2943280
-0.017578	-0.723633	-0.002930	-0.224984	0.159363	-0.206235	0.644531	0.949219	0.480469	803	16_30_44_3104570
-0.014648	-0.732422	0.002930	-0.224984	0.159363	-0.196861	0.644531	0.867188	0.480469	804	16_30_44_3265860
-0.032227	-0.720703	0.000000	-0.224984	0.159363	-0.206235	0.632813	0.867188	0.468750	805	16_30_44_3427150
-0.017578	-0.738281	-0.002930	-0.224984	0.149989	-0.206235	0.632813	0.855469	0.468750	806	16_30_44_3588440
-0.023438	-0.732422	-0.011719	-0.224984	0.149989	-0.206235	0.621094	0.867188	0.480469	807	16_30_44_3749730
-0.014648	-0.723633	-0.005859	-0.224984	0.149989	-0.206235	0.632813	0.820313	0.480469	808	16_30_44_3911020
-0.023438	-0.744141	-0.005859	-0.224984	0.149989	-0.206235	0.632813	0.820313	0.445313	809	16_30_44_4072310
-0.026367	-0.726563	0.000000	-0.215609	0.149989	-0.206235	0.632813	0.867188	0.421875	810	16_30_44_4233600
-0.023438	-0.726563	0.002930	-0.224984	0.149989	-0.206235	0.621094	0.867188	0.421875	811	16_30_44_4394890
-0.020508	-0.720703	-0.014648	-0.215609	0.149989	-0.206235	0.621094	0.890625	0.433594	812	16_30_44_4556180
-0.011719	-0.726563	0.000000	-0.215609	0.149989	-0.206235	0.632813	0.878906	0.457031	813	16_30_44_4717470
-0.017578	-0.717773	-0.011719	-0.215609	0.149989	-0.206235	0.820313	1.195313	0.492188	814	16_30_44_4878760
-0.020508	-0.726563	0.002930	-0.215609	0.140615	-0.206235	0.621094	0.902344	0.503906	815	16_30_44_5040050
-0.029297	-0.723633	-0.011719	-0.215609	0.149989	-0.196861	0.632813	0.937500	0.480469	816	16_30_44_5201340
-0.029297	-0.732422	-0.008789	-0.215609	0.149989	-0.196861	0.609375	0.820313	0.468750	817	16_30_44_5362630
-0.014648	-0.729492	-0.008789	-0.224984	0.149989	-0.196861	0.632813	0.832031	0.457031	818	16_30_44_5523920
-0.017578	-0.738281	-0.005859	-0.224984	0.149989	-0.206235	0.632813	0.867188	0.433594	819	16_30_44_5685210
-0.002930	-0.729492	-0.002930	-0.224984	0.149989	-0.206235	0.632813	0.855469	0.457031	820	16_30_44_5846500
-0.008789	-0.726563	-0.008789	-0.224984	0.149989	-0.196861	0.609375	0.796875	0.480469	821	16_30_44_6007790
-0.023438	-0.723633	0.000000	-0.224984	0.159363	-0.206235	0.609375	0.796875	0.468750	822	16_30_44_6169080
-0.023438	-0.723633	-0.002930	-0.224984	0.149989	-0.206235	0.609375	0.890625	0.468750	823	16_30_44_6330370
-0.014648	-0.729492	0.005859	-0.224984	0.159363	-0.196861	0.621094	0.937500	0.468750	824	16_30_44_6491660
-0.020508	-0.729492	-0.002930	-0.224984	0.149989	-0.206235	0.632813	0.843750	0.457031	825	16_30_44_6652950
-0.023438	-0.723633	0.002930	-0.215609	0.149989	-0.206235	0.609375	0.785156	0.445313	826	16_30_44_6814240
-0.017578	-0.720703	0.000000	-0.215609	0.149989	-0.206235	0.632813	0.902344	0.468750	827	16_30_44_6975530
-0.026367	-0.720703	-0.002930	-0.215609	0.149989	-0.206235	0.679688	0.960938	0.503906	828	16_30_44_7136820
-0.017578	-0.723633	-0.008789	-0.215609	0.149989	-0.196861	0.609375	0.914063	0.480469	829	16_30_44_7298110
-0.005859	-0.732422	-0.005859	-0.215609	0.149989	-0.196861	0.609375	0.925781	0.492188	830	16_30_44_7459400
-0.020508	-0.726563	0.000000	-0.215609	0.159363	-0.206235	0.726563	1.042969	0.503906	831	16_30_44_7620690
-0.032227	-0.726563	-0.002930	-0.215609	0.149989	-0.206235	0.609375	0.867188	0.492188	832	16_30_44_7781980
-0.029297	-0.738281	-0.008789	-0.215609	0.149989	-0.196861	0.609375	0.820313	0.515625	833	16_30_44_7943270
-0.017578	-0.726563	-0.011719	-0.224984	0.149989	-0.206235	0.597656	0.867188	0.527344	834	16_30_44_8104560
-0.017578	-0.729492	-0.008789	-0.215609	0.159363	-0.206235	0.796875	1.183594	0.515625	835	16_30_44_8265850
-0.026367	-0.729492	-0.008789	-0.224984	0.149989	-0.206235	0.632813	0.902344	0.468750	836	16_30_44_8427140
-0.020508	-0.726563	-0.014648	-0.224984	0.149989	-0.206235	0.632813	0.773438	0.457031	837	16_30_44_8588430
-0.017578	-0.723633	-0.002930	-0.224984	0.149989	-0.206235	0.632813	0.796875	0.445313	838	16_30_44_8749720
-0.014648	-0.723633	-0.008789	-0.215609	0.149989	-0.206235	0.644531	0.902344	0.457031	839	16_30_44_8911010
-0.011719	-0.720703	-0.002930	-0.224984	0.149989	-0.196861	0.609375	0.867188	0.445313	840	16_30_44_9072300
-0.017578	-0.732422	-0.002930	-0.215609	0.149989	-0.206235	0.621094	0.843750	0.421875	841	16_30_44_9233590
-0.020508	-0.732422	-0.002930	-0.215609	0.149989	-0.206235	0.609375	0.867188	0.433594	842	16_30_44_9394880
-0.020508	-0.714844	-0.008789	-0.215609	0.159363	-0.196861	0.714844	1.125000	0.445313	843	16_30_44_9556170
-0.017578	-0.726563	-0.008789	-0.215609	0.149989	-0.206235	0.597656	0.925781	0.445313	844	16_30_44_9717460
-0.023438	-0.726563	-0.002930	-0.215609	0.149989	-0.196861	0.644531	0.890625	0.457031	845	16_30_44_9878750
-0.017578	-0.729492	-0.002930	-0.224984	0.149989	-0.206235	0.621094	0.820313	0.445313	846	16_30_45_0040040
-0.017578	-0.723633	-0.005859	-0.215609	0.149989	-0.196861	0.632813	0.960938	0.480469	847	16_30_45_0201330
0.000000	-0.726563	-0.005859	-0.215609	0.149989	-0.206235	0.632813	0.996094	0.492188	848	16_30_45_0362620
-0.014648	-0.729492	-0.005859	-0.224984	0.149989	-0.196861	0.574219	0.878906	0.457031	849	16_30_45_0523910
-0.017578	-0.726563	-0.011719	-0.215609	0.149989	-0.196861	0.632813	0.867188	0.468750	850	16_30_45_0685200
-0.011719	-0.729492	-0.002930	-0.224984	0.159363	-0.206235	0.621094	0.890625	0.468750	851	16_30_45_0846490
-0.020508	-0.723633	-0.008789	-0.224984	0.159363	-0.206235	0.597656	0.937500	0.468750	852	16_30_45_1007780
-0.023438	-0.717773	-0.008789	-0.224984	0.149989	-0.206235	0.609375	0.937500	0.480469	853	16_30_45_1169070
-0.017578	-0.732422	-0.002930	-0.224984	0.149989	-0.196861	0.632813	0.902344	0.433594	854	16_30_45_1330360
-0.017578	-0.732422	-0.008789	-0.224984	0.149989	-0.196861	0.621094	0.925781	0.421875	855	16_30_45_1491650
-0.011719	-0.726563	-0.008789	-0.224984	0.159363	-0.206235	0.609375	0.902344	0.445313	856	16_30_45_1652940
-0.020508	-0.714844	-0.014648	-0.215609	0.159363	-0.196861	0.855469	1.089844	0.492188	857	16_30_45_1814230
-0.026367	-0.732422	0.002930	-0.224984	0.159363	-0.206235	0.621094	0.820313	0.457031	858	16_30_45_1975520
-0.014648	-0.714844	-0.002930	-0.224984	0.159363	-0.206235	0.632813	0.832031	0.468750	859	16_30_45_2136810
-0.023438	-0.723633	-0.002930	-0.215609	0.149989	-0.206235	0.632813	0.867188	0.468750	860	16_30_45_2298100
-0.017578	-0.732422	-0.008789	-0.224984	0.149989	-0.206235	0.609375	0.902344	0.480469	861	16_30_45_2459390
-0.029297	-0.732422	-0.011719	-0.215609	0.159363	-0.206235	0.691406	0.984375	0.492188	862	16_30_45_2620680
-0.020508	-0.732422	-0.008789	-0.215609	0.149989	-0.206235	0.609375	0.890625	0.468750	863	16_30_45_2781970
-0.023438	-0.726563	0.002930	-0.224984	0.149989	-0.206235	0.632813	0.902344	0.457031	864	16_30_45_2943260
-0.020508	-0.738281	-0.008789	-0.224984	0.149989	-0.206235	0.644531	0.890625	0.480469	865	16_30_45_3104550
-0.017578	-0.738281	-0.008789	-0.224984	0.149989	-0.196861	0.738281	1.148438	0.503906	866	16_30_45_3265840
-0.020508	-0.732422	-0.005859	-0.224984	0.149989	-0.196861	0.867188	1.265625	0.503906	867	16_30_45_3427130
-0.017578	-0.726563	0.002930	-0.224984	0.159363	-0.206235	0.644531	0.902344	0.492188	868	16_30_45_3588420
-0.032227	-0.720703	-0.011719	-0.215609	0.159363	-0.206235	0.644531	0.960938	0.480469	869	16_30_45_3749710
-0.017578	-0.726563	-0.008789	-0.215609	0.159363	-0.206235	0.609375	0.914063	0.503906	870	16_30_45_3911000
-0.023438	-0.723633	-0.008789	-0.224984	0.149989	-0.206235	0.621094	0.902344	0.492188	871	16_30_45_4072290
-0.020508	-0.738281	-0.008789	-0.224984	0.159363	-0.206235	0.597656	0.890625	0.457031	872	16_30_45_4233580
-0.020508	-0.726563	-0.002930	-0.224984	0.149989	-0.206235	0.609375	0.902344	0.468750	873	16_30_45_4394870
-0.023438	-0.720703	-0.002930	-0.215609	0.149989	-0.206235	0.714844	1.066406	0.480469	874	16_30_45_4556160
-0.020508	-0.726563	-0.002930	-0.215609	0.149989	-0.206235	0.621094	0.937500	0.457031	875	16_30_45_4717450
-0.011719	-0.729492	0.000000	-0.215609	0.149989	-0.196861	0.773438	1.089844	0.492188	876	16_30_45_4878740
0.000000	-0.729492	-0.002930	-0.224984	0.149989	-0.196861	0.632813	0.867188	0.480469	877	16_30_45_5040030
-0.023438	-0.738281	-0.008789	-0.224984	0.149989	-0.206235	0.621094	0.820313	0.457031	878	16_30_45_5201320
-0.020508	-0.726563	-0.011719	-0.224984	0.149989	-0.206235	0.644531	0.832031	0.480469	879	16_30_45_5362610
-0.026367	-0.729492	-0.008789	-0.215609	0.149989	-0.196861	0.621094	0.796875	0.492188	880	16_30_45_5523900
-0.014648	-0.720703	-0.014648	-0.224984	0.149989	-0.206235	0.621094	0.855469	0.468750	881	16_30_45_5685190
-0.017578	-0.729492	-0.008789	-0.224984	0.159363	-0.206235	0.609375	0.867188	0.457031	882	16_30_45_5846480
-0.023438	-0.720703	-0.008789	-0.215609	0.149989	-0.206235	0.597656	0.890625	0.480469	883	16_30_45_6007770
-0.011719	-0.726563	-0.008789	-0.215609	0.149989	-0.196861	0.621094	0.890625	0.480469	884	16_30_45_6169060
-0.029297	-0.720703	-0.008789	-0.215609	0.149989	-0.196861	0.621094	0.796875	0.503906	885	16_30_45_6330350
-0.023438	-0.732422	-0.002930	-0.224984	0.149989	-0.206235	0.609375	0.867188	0.503906	886	16_30_45_6491640
-0.011719	-0.732422	0.000000	-0.224984	0.149989	-0.206235	0.632813	0.890625	0.492188	887	16_30_45_6652930
-0.023438	-0.723633	-0.005859	-0.215609	0.149989	-0.206235	0.597656	0.820313	0.480469	888	16_30_45_6814220
-0.008789	-0.729492	0.002930	-0.224984	0.149989	-0.206235	0.609375	0.820313	0.445313	889	16_30_45_6975510
-0.020508	-0.726563	-0.011719	-0.224984	0.149989	-0.206235	0.609375	0.867188	0.457031	890	16_30_45_7136800
-0.023438	-0.726563	-0.002930	-0.224984	0.149989	-0.206235	0.644531	0.890625	0.468750	891	16_30_45_7298090
-0.017578	-0.720703	-0.011719	-0.224984	0.149989	-0.206235	0.609375	0.902344	0.480469	892	16_30_45_7459380
-0.014648	-0.735352	0.000000	-0.215609	0.149989	-0.206235	0.597656	0.855469	0.468750	893	16_30_45_7620670
-0.011719	-0.723633	-0.005859	-0.215609	0.149989	-0.206235	0.644531	0.832031	0.445313	894	16_30_45_7781960
-0.014648	-0.729492	-0.005859	-0.224984	0.149989	-0.206235	0.632813	0.808594	0.492188	895	16_30_45_7943250
-0.014648	-0.732422	-0.002930	-0.215609	0.149989	-0.196861	0.562500	0.925781	0.492188	896	16_30_45_8104540
-0.017578	-0.732422	-0.008789	-0.224984	0.149989	-0.196861	0.632813	0.937500	0.468750	897	16_30_45_8265830
-0.023438	-0.720703	-0.008789	-0.224984	0.159363	-0.206235	0.632813	0.925781	0.457031	898	16_30_45_8427120
-0.014648	-0.723633	-0.008789	-0.215609	0.159363	-0.206235	0.878906	1.429688	0.492188	899	16_30_45_8588410
-0.014648	-0.729492	0.000000	-0.215609	0.159363	-0.206235	0.644531	0.890625	0.457031	900	16_30_45_8749700
-0.026367	-0.723633	-0.008789	-0.215609	0.149989	-0.206235	0.691406	1.195313	0.527344	901	16_30_45_8910990
-0.014648	-0.726563	-0.005859	-0.215609	0.149989	-0.196861	0.621094	0.773438	0.457031	902	16_30_45_9072280
-0.017578	-0.726563	-0.008789	-0.224984	0.149989	-0.196861	0.621094	0.878906	0.503906	903	16_30_45_9233570
-0.023438	-0.732422	0.005859	-0.215609	0.149989	-0.196861	0.597656	0.878906	0.480469	904	16_30_45_9394860
-0.011719	-0.726563	-0.005859	-0.224984	0.149989	-0.206235	0.609375	0.902344	0.457031	905	16_30_45_9556150
-0.017578	-0.726563	-0.002930	-0.224984	0.149989	-0.196861	0.609375	0.878906	0.445313	906	16_30_45_9717440
-0.023438	-0.738281	-0.002930	-0.224984	0.149989	-0.206235	0.621094	0.937500	0.445313	907	16_30_45_9878730
-0.017578	-0.738281	-0.008789	-0.224984	0.149989	-0.196861	0.609375	0.867188	0.457031	908	16_30_46_0040020
-0.014648	-0.729492	-0.005859	-0.215609	0.159363	-0.206235	0.609375	0.925781	0.468750	909	16_30_46_0201310
-0.017578	-0.732422	-0.002930	-0.224984	0.149989	-0.206235	0.632813	0.960938	0.457031	910	16_30_46_0362600
-0.023438	-0.732422	-0.005859	-0.215609	0.159363	-0.206235	0.621094	0.925781	0.492188	911	16_30_46_0523890
-0.014648	-0.732422	-0.002930	-0.224984	0.159363	-0.196861	0.621094	0.937500	0.480469	912	16_30_46_0685180
-0.017578	-0.720703	0.000000	-0.224984	0.159363	-0.206235	0.609375	0.832031	0.480469	913	16_30_46_0846470
-0.017578	-0.720703	-0.002930	-0.224984	0.149989	-0.206235	0.585938	0.832031	0.492188	914	16_30_46_1007760
-0.029297	-0.726563	-0.002930	-0.224984	0.159363	-0.206235	0.644531	0.914063	0.492188	915	16_30_46_1169050
-0.029297	-0.720703	0.000000	-0.224984	0.159363	-0.196861	0.597656	0.972656	0.492188	916	16_30_46_1330340
-0.020508	-0.732422	-0.008789	-0.224984	0.149989	-0.206235	0.644531	0.937500	0.480469	917	16_30_46_1491630
-0.023438	-0.720703	-0.005859	-0.215609	0.149989	-0.206235	0.597656	0.914063	0.480469	918	16_30_46_1652920
-0.020508	-0.732422	-0.008789	-0.224984	0.149989	-0.206235	0.597656	0.867188	0.480469	919	16_30_46_1814210
-0.020508	-0.729492	0.002930	-0.224984	0.149989	-0.206235	0.644531	0.820313	0.480469	920	16_30_46_1975500
-0.029297	-0.732422	0.000000	-0.224984	0.149989	-0.206235	0.609375	0.843750	0.503906	921	16_30_46_2136790
-0.011719	-0.726563	-0.011719	-0.224984	0.149989	-0.196861	0.644531	0.832031	0.445313	922	16_30_46_2298080
-0.014648	-0.723633	-0.002930	-0.224984	0.149989	-0.206235	0.597656	0.914063	0.433594	923	16_30_46_2459370
-0.008789	-0.735352	-0.002930	-0.224984	0.149989	-0.206235	0.597656	0.925781	0.457031	924	16_30_46_2620660
-0.017578	-0.726563	-0.002930	-0.224984	0.159363	-0.206235	0.597656	0.914063	0.457031	925	16_30_46_2781950
-0.020508	-0.738281	-0.011719	-0.215609	0.159363	-0.206235	0.597656	0.914063	0.457031	926	16_30_46_2943240
-0.017578	-0.732422	-0.011719	-0.224984	0.159363	-0.206235	0.609375	0.937500	0.468750	927	16_30_46_3104530
-0.020508	-0.720703	-0.002930	-0.224984	0.149989	-0.206235	0.609375	0.902344	0.492188	928	16_30_46_3265820
-0.017578	-0.726563	-0.005859	-0.224984	0.149989	-0.206235	0.632813	0.808594	0.480469	929	16_30_46_3427110
-0.026367	-0.720703	-0.008789	-0.224984	0.149989	-0.206235	0.621094	0.843750	0.457031	930	16_30_46_3588400
-0.011719	-0.726563	-0.002930	-0.215609	0.149989	-0.206235	0.621094	0.855469	0.445313	931	16_30_46_3749690
-0.023438	-0.720703	-0.008789	-0.224984	0.149989	-0.206235	0.597656	0.867188	0.480469	932	16_30_46_3910980
-0.017578	-0.726563	-0.002930	-0.224984	0.149989	-0.206235	0.632813	0.937500	0.550781	933	16_30_46_4072270
-0.017578	-0.726563	0.002930	-0.215609	0.149989	-0.206235	0.691406	1.019531	0.503906	934	16_30_46_4233560
-0.017578	-0.729492	-0.011719	-0.215609	0.149989	-0.206235	0.632813	0.937500	0.480469	935	16_30_46_4394850
-0.023438	-0.729492	-0.014648	-0.215609	0.159363	-0.196861	0.750000	1.078125	0.492188	936	16_30_46_4556140
-0.020508	-0.726563	-0.008789	-0.224984	0.149989	-0.196861	0.632813	0.949219	0.480469	937	16_30_46_4717430
-0.017578	-0.723633	-0.008789	-0.224984	0.149989	-0.196861	0.597656	0.890625	0.480469	938	16_30_46_4878720
-0.008789	-0.732422	-0.002930	-0.224984	0.149989	-0.206235	0.691406	0.984375	0.457031	939	16_30_46_5040010
-0.029297	-0.732422	-0.014648	-0.215609	0.149989	-0.206235	0.832031	1.289063	0.468750	940	16_30_46_5201300
-0.017578	-0.720703	-0.008789	-0.224984	0.149989	-0.206235	0.632813	0.949219	0.492188	941	16_30_46_5362590
-0.011719	-0.735352	-0.002930	-0.215609	0.159363	-0.206235	0.667969	1.359375	0.539063	942	16_30_46_5523880
-0.002930	-0.738281	-0.011719	-0.224984	0.149989	-0.206235	0.644531	0.960938	0.457031	943	16_30_46_5685170
-0.023438	-0.729492	-0.005859	-0.224984	0.159363	-0.206235	0.644531	0.914063	0.539063	944	16_30_46_5846460
-0.023438	-0.732422	0.002930	-0.215609	0.159363	-0.206235	0.632813	0.855469	0.468750	945	16_30_46_6007750
-0.017578	-0.729492	-0.005859	-0.215609	0.149989	-0.206235	0.714844	1.019531	0.480469	946	16_30_46_6169040
-0.020508	-0.720703	-0.002930	-0.224984	0.149989	-0.206235	0.621094	0.902344	0.503906	947	16_30_46_6330330
-0.008789	-0.720703	-0.005859	-0.224984	0.149989	-0.206235	0.609375	0.796875	0.492188	948	16_30_46_6491620
-0.020508	-0.729492	-0.005859	-0.224984	0.149989	-0.206235	0.644531	0.914063	0.468750	949	16_30_46_6652910
-0.008789	-0.732422	-0.005859	-0.215609	0.149989	-0.196861	0.609375	0.902344	0.480469	950	16_30_46_6814200
-0.005859	-0.720703	-0.005859	-0.224984	0.149989	-0.206235	0.621094	0.949219	0.457031	951	16_30_46_6975490
-0.020508	-0.732422	-0.002930	-0.224984	0.149989	-0.206235	0.585938	0.878906	0.457031	952	16_30_46_7136780
-0.017578	-0.726563	0.000000	-0.215609	0.149989	-0.196861	0.656250	0.855469	0.468750	953	16_30_46_7298070
-0.026367	-0.714844	-0.002930	-0.215609	0.149989	-0.196861	0.632813	0.843750	0.445313	954	16_30_46_7459360
-0.014648	-0.720703	-0.005859	-0.215609	0.149989	-0.206235	0.621094	0.937500	0.468750	955	16_30_46_7620650
-0.014648	-0.723633	-0.005859	-0.224984	0.149989	-0.196861	0.632813	0.949219	0.480469	956	16_30_46_7781940
-0.017578	-0.720703	-0.005859	-0.224984	0.149989	-0.206235	0.597656	0.937500	0.468750	957	16_30_46_7943230
-0.014648	-0.744141	-0.011719	-0.215609	0.149989	-0.196861	0.585938	0.925781	0.480469	958	16_30_46_8104520
-0.017578	-0.738281	-0.005859	-0.224984	0.149989	-0.206235	0.632813	0.867188	0.480469	959	16_30_46_8265810
-0.020508	-0.729492	-0.008789	-0.215609	0.149989	-0.206235	0.632813	0.855469	0.433594	960	16_30_46_8427100
-0.020508	-0.729492	0.000000	-0.215609	0.149989	-0.206235	0.609375	0.867188	0.421875	961	16_30_46_8588390
-0.026367	-0.723633	0.000000	-0.215609	0.159363	-0.206235	0.644531	0.937500	0.421875	962	16_30_46_8749680
-0.008789	-0.726563	-0.008789	-0.224984	0.159363	-0.206235	0.644531	0.890625	0.457031	963	16_30_46_8910970
-0.023438	-0.735352	-0.008789	-0.224984	0.159363	-0.206235	0.621094	0.890625	0.468750	964	16_30_46_9072260
-0.017578	-0.723633	-0.002930	-0.224984	0.159363	-0.206235	0.621094	0.820313	0.468750	965	16_30_46_9233550
-0.011719	-0.720703	-0.014648	-0.224984	0.149989	-0.206235	0.609375	0.820313	0.503906	966	16_30_46_9394840
-0.017578	-0.720703	-0.014648	-0.215609	0.159363	-0.206235	0.609375	0.855469	0.503906	967	16_30_46_9556130
-0.026367	-0.726563	-0.008789	-0.224984	0.149989	-0.196861	0.632813	0.902344	0.503906	968	16_30_46_9717420
-0.017578	-0.726563	-0.020508	-0.215609	0.149989	-0.196861	0.609375	0.925781	0.433594	969	16_30_46_9878710
-0.023438	-0.729492	-0.008789	-0.224984	0.149989	-0.196861	0.644531	0.937500	0.421875	970	16_30_47_0040000
-0.017578	-0.726563	-0.005859	-0.224984	0.140615	-0.196861	0.597656	0.878906	0.468750	971	16_30_47_0201290
-0.026367	-0.735352	0.002930	-0.224984	0.149989	-0.196861	0.632813	0.867188	0.433594	972	16_30_47_0362580
-0.017578	-0.729492	-0.005859	-0.224984	0.149989	-0.196861	0.644531	0.867188	0.445313	973	16_30_47_0523870
-0.008789	-0.738281	-0.002930	-0.224984	0.149989	-0.206235	0.585938	0.914063	0.457031	974	16_30_47_0685160
-0.005859	-0.732422	-0.005859	-0.224984	0.149989	-0.206235	0.644531	0.949219	0.445313	975	16_30_47_0846450
-0.017578	-0.726563	-0.008789	-0.224984	0.149989	-0.206235	0.714844	1.019531	0.492188	976	16_30_47_1007740
-0.020508	-0.732422	-0.002930	-0.224984	0.159363	-0.206235	0.632813	0.902344	0.445313	977	16_30_47_1169030
-0.023438	-0.738281	-0.005859	-0.224984	0.159363	-0.206235	0.632813	0.914063	0.445313	978	16_30_47_1330320
-0.011719	-0.708984	-0.020508	-0.224984	0.159363	-0.206235	0.585938	0.914063	0.457031	979	16_30_47_1491610
-0.020508	-0.732422	-0.014648	-0.224984	0.159363	-0.206235	0.621094	0.902344	0.480469	980	16_30_47_1652900
-0.020508	-0.723633	-0.005859	-0.215609	0.159363	-0.206235	0.621094	0.878906	0.492188	981	16_30_47_1814190
-0.023438	-0.732422	-0.002930	-0.224984	0.159363	-0.206235	0.644531	0.925781	0.468750	982	16_30_47_1975480
-0.011719	-0.735352	-0.011719	-0.224984	0.149989	-0.196861	0.621094	0.902344	0.468750	983	16_30_47_2136770
-0.020508	-0.729492	-0.008789	-0.224984	0.149989	-0.206235	0.621094	0.902344	0.468750	984	16_30_47_2298060
-0.011719	-0.723633	-0.014648	-0.215609	0.159363	-0.206235	0.621094	0.914063	0.457031	985	16_30_47_2459350
-0.017578	-0.732422	-0.008789	-0.224984	0.149989	-0.206235	0.621094	0.855469	0.468750	986	16_30_47_2620640
-0.005859	-0.735352	-0.005859	-0.224984	0.149989	-0.206235	0.609375	0.867188	0.468750	987	16_30_47_2781930
-0.017578	-0.723633	-0.020508	-0.224984	0.149989	-0.206235	0.609375	0.890625	0.468750	988	16_30_47_2943220
-0.026367	-0.720703	-0.005859	-0.224984	0.149989	-0.206235	0.632813	0.832031	0.492188	989	16_30_47_3104510
-0.017578	-0.732422	-0.002930	-0.224984	0.149989	-0.206235	0.609375	0.867188	0.468750	990	16_30_47_3265800
-0.011719	-0.714844	-0.002930	-0.215609	0.149989	-0.206235	0.656250	0.925781	0.457031	991	16_30_47_3427090
-0.020508	-0.723633	-0.008789	-0.224984	0.149989	-0.206235	0.609375	0.914063	0.492188	992	16_30_47_3588380
-0.011719	-0.720703	-0.014648	-0.215609	0.149989	-0.206235	0.632813	0.890625	0.468750	993	16_30_47_3749670
-0.017578	-0.732422	-0.002930	-0.224984	0.149989	-0.206235	0.585938	0.843750	0.457031	994	16_30_47_3910960
-0.017578	-0.726563	-0.002930	-0.215609	0.159363	-0.196861	0.632813	0.843750	0.480469	995	16_30_47_4072250
-0.023438	-0.726563	-0.008789	-0.224984	0.149989	-0.206235	0.609375	0.878906	0.457031	996	16_30_47_4233540
-0.017578	-0.723633	-0.011719	-0.224984	0.149989	-0.196861	0.632813	0.890625	0.468750	997	16_30_47_4394830
-0.011719	-0.735352	-0.002930	-0.224984	0.149989	-0.206235	0.714844	0.984375	0.457031	998	16_30_47_4556120
-0.020508	-0.723633	-0.008789	-0.224984	0.149989	-0.206235	0.597656	0.867188	0.421875	999	16_30_47_4717410
-0.026367	-0.729492	-0.002930	-0.224984	0.149989	-0.206235	0.632813	0.855469	0.457031	1000	16_30_47_4878700
-0.005859	-0.726563	-0.005859	-0.215609	0.149989	-0.196861	0.609375	0.843750	0.433594	1001	16_30_47_5039990
-0.026367	-0.738281	-0.008789	-0.224984	0.149989	-0.206235	0.644531	0.867188	0.433594	1002	16_30_47_5201280
-0.014648	-0.729492	-0.011719	-0.224984	0.149989	-0.206235	0.632813	0.855469	0.457031	1003	16_30_47_5362570
-0.017578	-0.741211	-0.005859	-0.224984	0.149989	-0.196861	0.632813	0.902344	0.468750	1004	16_30_47_5523860
-0.017578	-0.735352	-0.008789	-0.224984	0.159363	-0.196861	0.609375	1.242188	0.550781	1005	16_30_47_5685150
-0.017578	-0.732422	-0.002930	-0.224984	0.149989	-0.206235	0.632813	0.843750	0.492188	1006	16_30_47_5846440
-0.017578	-0.723633	-0.008789	-0.224984	0.149989	-0.196861	0.609375	0.902344	0.457031	1007	16_30_47_6007730
-0.008789	-0.726563	-0.008789	-0.224984	0.149989	-0.196861	0.632813	0.972656	0.457031	1008	16_30_47_6169020
-0.017578	-0.732422	-0.002930	-0.224984	0.149989	-0.206235	0.609375	0.914063	0.480469	1009	16_30_47_6330310
-0.020508	-0.726563	-0.011719	-0.224984	0.149989	-0.206235	0.644531	0.937500	0.527344	1010	16_30_47_6491600
-0.017578	-0.735352	-0.005859	-0.215609	0.149989	-0.206235	0.644531	0.925781	0.503906	1011	16_30_47_6652890
-0.014648	-0.735352	0.000000	-0.224984	0.149989	-0.206235	0.609375	0.960938	0.445313	1012	16_30_47_6814180
-0.023438	-0.729492	-0.005859	-0.224984	0.149989	-0.196861	0.621094	0.996094	0.433594	1013	16_30_47_6975470
-0.014648	-0.717773	-0.005859	-0.215609	0.149989	-0.196861	0.621094	0.937500	0.445313	1014	16_30_47_7136760
-0.026367	-0.720703	-0.008789	-0.224984	0.149989	-0.206235	0.609375	0.867188	0.457031	1015	16_30_47_7298050
-0.008789	-0.726563	-0.008789	-0.224984	0.149989	-0.206235	0.621094	0.867188	0.468750	1016	16_30_47_7459340
-0.011719	-0.720703	-0.002930	-0.224984	0.149989	-0.196861	0.585938	0.820313	0.492188	1017	16_30_47_7620630
-0.020508	-0.735352	-0.005859	-0.215609	0.149989	-0.206235	0.621094	0.808594	0.480469	1018	16_30_47_7781920
-0.017578	-0.726563	-0.002930	-0.224984	0.159363	-0.196861	0.609375	0.890625	0.457031	1019	16_30_47_7943210
-0.014648	-0.738281	-0.008789	-0.215609	0.159363	-0.196861	0.644531	0.867188	0.457031	1020	16_30_47_8104500
-0.020508	-0.729492	-0.008789	-0.224984	0.159363	-0.206235	0.621094	0.890625	0.457031	1021	16_30_47_8265790
-0.026367	-0.723633	0.002930	-0.224984	0.149989	-0.196861	0.609375	0.949219	0.468750	1022	16_30_47_8427080
-0.014648	-0.732422	-0.011719	-0.215609	0.149989	-0.196861	0.609375	0.914063	0.468750	1023	16_30_47_8588370
-0.023438	-0.714844	-0.020508	-0.215609	0.149989	-0.206235	0.609375	0.867188	0.468750	1024	16_30_47_8749660
-0.020508	-0.729492	0.005859	-0.224984	0.149989	-0.196861	0.726563	1.171875	0.550781	1025	16_30_47_8910950
-0.014648	-0.720703	0.002930	-0.224984	0.149989	-0.196861	0.632813	1.136719	0.527344	1026	16_30_47_9072240
-0.008789	-0.732422	-0.002930	-0.224984	0.149989	-0.196861	0.597656	0.890625	0.480469	1027	16_30_47_9233530
-0.011719	-0.732422	-0.002930	-0.215609	0.159363	-0.206235	0.621094	0.867188	0.480469	1028	16_30_47_9394820
-0.020508	-0.732422	-0.008789	-0.224984	0.159363	-0.206235	0.632813	0.902344	0.457031	1029	16_30_47_9556110
-0.023438	-0.732422	-0.005859	-0.224984	0.159363	-0.206235	0.609375	0.925781	0.468750	1030	16_30_47_9717400
-0.017578	-0.732422	-0.005859	-0.224984	0.159363	-0.196861	0.621094	0.914063	0.457031	1031	16_30_47_9878690
-0.017578	-0.726563	-0.002930	-0.224984	0.149989	-0.206235	0.773438	1.125000	0.457031	1032	16_30_48_0039980
-0.017578	-0.720703	-0.011719	-0.224984	0.149989	-0.206235	0.621094	0.996094	0.492188	1033	16_30_48_0201270
-0.017578	-0.735352	-0.011719	-0.224984	0.149989	-0.206235	0.597656	0.914063	0.492188	1034	16_30_48_0362560
-0.011719	-0.726563	-0.005859	-0.215609	0.149989	-0.196861	0.609375	0.902344	0.492188	1035	16_30_48_0523850
-0.011719	-0.729492	0.000000	-0.224984	0.149989	-0.206235	0.597656	0.855469	0.480469	1036	16_30_48_0685140
-0.017578	-0.732422	-0.011719	-0.224984	0.149989	-0.196861	0.656250	0.996094	0.539063	1037	16_30_48_0846430
-0.023438	-0.723633	0.002930	-0.215609	0.149989	-0.196861	0.585938	0.867188	0.503906	1038	16_30_48_1007720
-0.029297	-0.744141	-0.005859	-0.215609	0.159363	-0.196861	0.632813	0.808594	0.515625	1039	16_30_48_1169010
-0.011719	-0.738281	0.000000	-0.215609	0.159363	-0.206235	0.644531	0.914063	0.515625	1040	16_30_48_1330300
-0.020508	-0.720703	-0.008789	-0.224984	0.159363	-0.206235	0.621094	0.914063	0.457031	1041	16_30_48_1491590
-0.014648	-0.729492	0.000000	-0.224984	0.159363	-0.206235	0.609375	0.855469	0.480469	1042	16_30_48_1652880
-0.020508	-0.723633	-0.005859	-0.224984	0.149989	-0.206235	0.632813	0.867188	0.492188	1043	16_30_48_1814170
-0.020508	-0.735352	-0.008789	-0.224984	0.149989	-0.206235	0.621094	0.914063	0.468750	1044	16_30_48_1975460
-0.017578	-0.732422	-0.002930	-0.224984	0.149989	-0.206235	0.621094	0.949219	0.468750	1045	16_30_48_2136750
-0.017578	-0.723633	0.002930	-0.215609	0.149989	-0.206235	0.703125	1.242188	0.597656	1046	16_30_48_2298040
-0.008789	-0.723633	-0.002930	-0.215609	0.149989	-0.206235	0.609375	0.914063	0.480469	1047	16_30_48_2459330
-0.005859	-0.735352	-0.002930	-0.215609	0.159363	-0.206235	0.679688	0.937500	0.480469	1048	16_30_48_2620620
-0.020508	-0.732422	-0.002930	-0.215609	0.159363	-0.196861	0.585938	0.855469	0.480469	1049	16_30_48_2781910
-0.008789	-0.723633	0.002930	-0.224984	0.159363	-0.206235	0.621094	0.796875	0.492188	1050	16_30_48_2943200
-0.023438	-0.732422	-0.005859	-0.215609	0.159363	-0.196861	0.644531	0.832031	0.445313	1051	16_30_48_3104490
-0.020508	-0.723633	-0.005859	-0.224984	0.149989	-0.206235	0.609375	0.890625	0.445313	1052	16_30_48_3265780
-0.020508	-0.732422	-0.011719	-0.215609	0.149989	-0.206235	0.621094	0.914063	0.445313	1053	16_30_48_3427070
-0.023438	-0.735352	0.002930	-0.224984	0.149989	-0.196861	0.621094	0.855469	0.445313	1054	16_30_48_3588360
-0.023438	-0.732422	-0.011719	-0.215609	0.149989	-0.196861	0.609375	0.820313	0.457031	1055	16_30_48_3749650
-0.017578	-0.732422	-0.002930	-0.215609	0.149989	-0.206235	0.609375	0.867188	0.457031	1056	16_30_48_3910940
-0.014648	-0.729492	-0.008789	-0.215609	0.159363	-0.196861	0.667969	1.289063	0.539063	1057	16_30_48_4072230
-0.023438	-0.720703	-0.002930	-0.224984	0.159363	-0.206235	0.609375	0.867188	0.468750	1058	16_30_48_4233520
-0.014648	-0.723633	-0.002930	-0.215609	0.149989	-0.196861	0.609375	0.890625	0.457031	1059	16_30_48_4394810
-0.017578	-0.729492	-0.008789	-0.224984	0.149989	-0.206235	0.550781	0.890625	0.468750	1060	16_30_48_4556100
-0.026367	-0.744141	0.005859	-0.224984	0.149989	-0.196861	0.609375	0.855469	0.468750	1061	16_30_48_4717390
-0.011719	-0.732422	-0.002930	-0.215609	0.149989	-0.206235	0.621094	0.808594	0.503906	1062	16_30_48_4878680
-0.011719	-0.732422	-0.002930	-0.215609	0.149989	-0.196861	0.585938	0.855469	0.492188	1063	16_30_48_5039970
-0.008789	-0.741211	-0.014648	-0.215609	0.159363	-0.206235	0.855469	1.265625	0.480469	1064	16_30_48_5201260
-0.029297	-0.732422	0.000000	-0.215609	0.159363	-0.206235	0.621094	0.914063	0.480469	1065	16_30_48_5362550
-0.023438	-0.723633	0.002930	-0.224984	0.149989	-0.206235	0.644531	0.843750	0.480469	1066	16_30_48_5523840
-0.017578	-0.732422	-0.011719	-0.224984	0.159363	-0.196861	0.679688	1.335938	0.515625	1067	16_30_48_5685130
-0.008789	-0.720703	-0.011719	-0.224984	0.159363	-0.206235	0.609375	0.949219	0.468750	1068	16_30_48_5846420
-0.014648	-0.732422	-0.005859	-0.224984	0.149989	-0.206235	0.609375	0.960938	0.468750	1069	16_30_48_6007710
-0.017578	-0.729492	-0.008789	-0.215609	0.159363	-0.206235	0.714844	1.089844	0.480469	1070	16_30_48_6169000
-0.029297	-0.735352	-0.008789	-0.224984	0.159363	-0.196861	0.621094	0.960938	0.492188	1071	16_30_48_6330290
-0.017578	-0.732422	-0.002930	-0.224984	0.159363	-0.206235	0.644531	0.914063	0.503906	1072	16_30_48_6491580
-0.014648	-0.732422	-0.011719	-0.224984	0.159363	-0.206235	0.632813	0.949219	0.503906	1073	16_30_48_6652870
-0.020508	-0.720703	-0.002930	-0.224984	0.149989	-0.206235	0.632813	0.996094	0.468750	1074	16_30_48_6814160
-0.017578	-0.732422	-0.008789	-0.224984	0.149989	-0.206235	0.621094	0.914063	0.480469	1075	16_30_48_6975450
-0.011719	-0.732422	0.002930	-0.215609	0.149989	-0.196861	0.632813	0.867188	0.480469	1076	16_30_48_7136740
-0.005859	-0.720703	0.005859	-0.215609	0.159363	-0.206235	0.773438	1.441406	0.492188	1077	16_30_48_7298030
-0.011719	-0.732422	-0.011719	-0.215609	0.159363	-0.206235	0.679688	0.960938	0.468750	1078	16_30_48_7459320
-0.020508	-0.735352	-0.002930	-0.206235	0.159363	-0.206235	0.703125	1.078125	0.515625	1079	16_30_48_7620610
-0.023438	-0.732422	-0.005859	-0.224984	0.159363	-0.206235	0.644531	0.890625	0.480469	1080	16_30_48_7781900
-0.020508	-0.723633	-0.005859	-0.215609	0.149989	-0.206235	0.621094	0.820313	0.480469	1081	16_30_48_7943190
-0.029297	-0.726563	-0.002930	-0.224984	0.159363	-0.206235	0.632813	0.761719	0.480469	1082	16_30_48_8104480
-0.026367	-0.729492	-0.008789	-0.215609	0.159363	-0.206235	0.832031	1.171875	0.503906	1083	16_30_48_8265770
-0.020508	-0.732422	-0.014648	-0.224984	0.149989	-0.206235	0.632813	0.914063	0.468750	1084	16_30_48_8427060
-0.023438	-0.723633	-0.011719	-0.224984	0.149989	-0.206235	0.597656	0.855469	0.503906	1085	16_30_48_8588350
-0.011719	-0.726563	-0.002930	-0.224984	0.149989	-0.206235	0.644531	0.832031	0.503906	1086	16_30_48_8749640
-0.017578	-0.732422	-0.011719	-0.224984	0.149989	-0.206235	0.621094	0.902344	0.468750	1087	16_30_48_8910930
-0.014648	-0.723633	-0.005859	-0.215609	0.159363	-0.206235	0.609375	0.890625	0.480469	1088	16_30_48_9072220
-0.020508	-0.720703	-0.014648	-0.215609	0.159363	-0.196861	0.656250	1.113281	0.527344	1089	16_30_48_9233510
-0.017578	-0.723633	-0.011719	-0.224984	0.149989	-0.196861	0.632813	0.902344	0.539063	1090	16_30_48_9394800
-0.029297	-0.729492	-0.008789	-0.215609	0.159363	-0.196861	0.632813	0.949219	0.503906	1091	16_30_48_9556090
-0.026367	-0.723633	0.000000	-0.215609	0.149989	-0.196861	0.632813	0.902344	0.468750	1092	16_30_48_9717380
-0.008789	-0.735352	-0.005859	-0.224984	0.149989	-0.196861	0.609375	0.843750	0.445313	1093	16_30_48_9878670
-0.032227	-0.723633	-0.002930	-0.215609	0.149989	-0.206235	0.750000	1.054688	0.480469	1094	16_30_49_0039960
-0.014648	-0.732422	-0.008789	-0.224984	0.149989	-0.206235	0.597656	0.808594	0.468750	1095	16_30_49_0201250
-0.005859	-0.732422	-0.002930	-0.215609	0.149989	-0.196861	0.925781	1.394531	0.480469	1096	16_30_49_0362540
-0.008789	-0.723633	-0.008789	-0.224984	0.159363	-0.206235	0.621094	0.867188	0.457031	1097	16_30_49_0523830
-0.017578	-0.723633	-0.008789	-0.224984	0.149989	-0.196861	0.632813	0.902344	0.457031	1098	16_30_49_0685120
-0.017578	-0.714844	-0.002930	-0.215609	0.149989	-0.206235	0.656250	0.832031	0.457031	1099	16_30_49_0846410
-0.017578	-0.735352	-0.005859	-0.224984	0.159363	-0.206235	0.632813	0.867188	0.457031	1100	16_30_49_1007700
-0.017578	-0.732422	-0.008789	-0.224984	0.149989	-0.206235	0.597656	0.843750	0.480469	1101	16_30_49_1168990
-0.017578	-0.735352	-0.005859	-0.224984	0.149989	-0.206235	0.621094	0.855469	0.480469	1102	16_30_49_1330280
-0.023438	-0.729492	0.000000	-0.224984	0.159363	-0.206235	0.609375	0.832031	0.468750	1103	16_30_49_1491570
-0.020508	-0.726563	-0.014648	-0.215609	0.159363	-0.206235	0.621094	0.914063	0.480469	1104	16_30_49_1652860
-0.020508	-0.723633	-0.014648	-0.224984	0.149989	-0.196861	0.621094	0.925781	0.468750	1105	16_30_49_1814150
-0.023438	-0.732422	0.000000	-0.224984	0.149989	-0.206235	0.644531	0.902344	0.492188	1106	16_30_49_1975440
-0.017578	-0.723633	-0.008789	-0.224984	0.149989	-0.196861	0.785156	1.101563	0.492188	1107	16_30_49_2136730
-0.011719	-0.729492	-0.014648	-0.224984	0.149989	-0.206235	0.609375	0.843750	0.445313	1108	16_30_49_2298020
-0.020508	-0.714844	-0.002930	-0.224984	0.149989	-0.206235	0.621094	0.914063	0.421875	1109	16_30_49_2459310
-0.017578	-0.720703	-0.011719	-0.224984	0.159363	-0.206235	0.609375	0.914063	0.433594	1110	16_30_49_2620600
-0.017578	-0.720703	-0.008789	-0.215609	0.149989	-0.206235	0.609375	0.855469	0.480469	1111	16_30_49_2781890
-0.014648	-0.738281	-0.002930	-0.224984	0.149989	-0.206235	0.632813	0.867188	0.468750	1112	16_30_49_2943180
-0.008789	-0.732422	-0.017578	-0.224984	0.149989	-0.206235	0.621094	0.855469	0.492188	1113	16_30_49_3104470
-0.017578	-0.726563	-0.005859	-0.215609	0.149989	-0.206235	0.632813	0.843750	0.503906	1114	16_30_49_3265760
-0.023438	-0.723633	-0.008789	-0.224984	0.149989	-0.206235	0.609375	0.867188	0.468750	1115	16_30_49_3427050
-0.020508	-0.726563	-0.008789	-0.224984	0.149989	-0.206235	0.609375	0.855469	0.421875	1116	16_30_49_3588340
-0.023438	-0.732422	0.000000	-0.224984	0.149989	-0.206235	0.644531	0.902344	0.433594	1117	16_30_49_3749630
-0.017578	-0.726563	-0.002930	-0.224984	0.159363	-0.206235	0.574219	0.914063	0.468750	1118	16_30_49_3910920
-0.017578	-0.732422	-0.002930	-0.224984	0.149989	-0.196861	0.621094	0.832031	0.480469	1119	16_30_49_4072210
-0.008789	-0.732422	-0.002930	-0.224984	0.159363	-0.196861	0.574219	0.890625	0.492188	1120	16_30_49_4233500
-0.017578	-0.732422	-0.005859	-0.224984	0.159363	-0.206235	0.585938	0.785156	0.457031	1121	16_30_49_4394790
