sensor_ID	0006660160E3
Accel_X	Accel_Y	Accel_Z	Roll	Pitch	Yaw	Mag_X	Mag_Y	Mag_Z	Count	SysTime
0.131836	-0.562500	-0.046875	-0.365598	-0.674951	-0.609331	0.386719	0.984375	0.105469	0	17_29_10_1796150
0.125977	-0.565430	-0.041016	-0.374973	-0.665577	-0.599956	0.457031	0.890625	0.023438	1	17_29_10_1957440
0.134766	-0.547852	-0.052734	-0.365598	-0.674951	-0.609331	0.703125	0.867188	0.128906	2	17_29_10_2118730
0.131836	-0.559570	-0.043945	-0.365598	-0.674951	-0.599956	0.445313	0.890625	-0.011719	3	17_29_10_2280020
0.143555	-0.565430	-0.055664	-0.365598	-0.665577	-0.599956	0.433594	0.937500	-0.070313	4	17_29_10_2441310
0.131836	-0.562500	-0.055664	-0.365598	-0.665577	-0.599956	0.855469	0.937500	0.152344	5	17_29_10_2602600
0.128906	-0.556641	-0.052734	-0.374973	-0.665577	-0.599956	0.410156	0.914063	-0.011719	6	17_29_10_2763890
0.131836	-0.562500	-0.055664	-0.365598	-0.665577	-0.609331	0.445313	0.890625	0.000000	7	17_29_10_2925180
0.125977	-0.556641	-0.055664	-0.374973	-0.665577	-0.599956	0.445313	0.890625	0.023438	8	17_29_10_3086470
0.128906	-0.559570	-0.038086	-0.374973	-0.665577	-0.599956	0.468750	0.878906	0.046875	9	17_29_10_3247760
0.131836	-0.556641	-0.049805	-0.365598	-0.665577	-0.599956	0.457031	0.867188	0.480469	10	17_29_10_3409050
0.131836	-0.556641	-0.046875	-0.365598	-0.665577	-0.599956	0.421875	0.925781	-0.023438	11	17_29_10_3570340
0.131836	-0.574219	-0.052734	-0.365598	-0.665577	-0.609331	0.480469	0.914063	0.000000	12	17_29_10_3731630
0.134766	-0.562500	-0.055664	-0.365598	-0.665577	-0.599956	0.445313	0.878906	0.023438	13	17_29_10_3892920
0.131836	-0.568359	-0.046875	-0.365598	-0.674951	-0.599956	0.468750	0.843750	0.035156	14	17_29_10_4054210
0.140625	-0.565430	-0.061523	-0.365598	-0.665577	-0.599956	0.421875	0.902344	0.035156	15	17_29_10_4215500
0.134766	-0.568359	-0.049805	-0.365598	-0.665577	-0.599956	0.410156	0.949219	0.023438	16	17_29_10_4376790
0.134766	-0.559570	-0.052734	-0.365598	-0.665577	-0.609331	1.089844	0.914063	0.199219	17	17_29_10_4538080
0.123047	-0.556641	-0.049805	-0.365598	-0.665577	-0.609331	0.492188	0.890625	-0.035156	18	17_29_10_4699370
0.134766	-0.556641	-0.049805	-0.365598	-0.665577	-0.599956	0.480469	0.937500	0.000000	19	17_29_10_4860660
0.120117	-0.556641	-0.046875	-0.365598	-0.665577	-0.599956	0.410156	0.949219	0.070313	20	17_29_10_5021950
0.131836	-0.556641	-0.043945	-0.365598	-0.665577	-0.599956	0.457031	0.925781	0.363281	21	17_29_10_5183240
0.134766	-0.562500	-0.049805	-0.365598	-0.656202	-0.599956	0.445313	0.878906	0.046875	22	17_29_10_5344530
0.128906	-0.568359	-0.049805	-0.365598	-0.665577	-0.609331	0.410156	0.867188	0.046875	23	17_29_10_5505820
0.123047	-0.559570	-0.049805	-0.365598	-0.674951	-0.599956	0.410156	0.890625	0.011719	24	17_29_10_5667110
0.134766	-0.568359	-0.046875	-0.365598	-0.674951	-0.599956	0.410156	0.902344	0.000000	25	17_29_10_5828400
0.134766	-0.562500	-0.049805	-0.365598	-0.665577	-0.599956	0.445313	0.925781	0.000000	26	17_29_10_5989690
0.120117	-0.562500	-0.049805	-0.365598	-0.665577	-0.609331	0.468750	0.902344	0.023438	27	17_29_10_6150980
0.128906	-0.562500	-0.049805	-0.374973	-0.665577	-0.599956	0.445313	0.867188	0.046875	28	17_29_10_6312270
0.134766	-0.559570	-0.046875	-0.365598	-0.665577	-0.599956	0.480469	0.937500	0.046875	29	17_29_10_6473560
0.128906	-0.559570	-0.055664	-0.374973	-0.674951	-0.609331	0.457031	0.914063	0.070313	30	17_29_10_6634850
0.123047	-0.559570	-0.041016	-0.365598	-0.674951	-0.609331	0.445313	0.832031	0.070313	31	17_29_10_6796140
0.134766	-0.559570	-0.055664	-0.356224	-0.665577	-0.599956	0.445313	0.832031	0.011719	32	17_29_10_6957430
0.134766	-0.568359	-0.052734	-0.365598	-0.674951	-0.599956	0.433594	0.855469	0.035156	33	17_29_10_7118720
0.123047	-0.577148	-0.058594	-0.365598	-0.665577	-0.609331	0.445313	0.867188	0.046875	34	17_29_10_7280010
0.123047	-0.571289	-0.046875	-0.365598	-0.665577	-0.609331	0.761719	0.902344	0.105469	35	17_29_10_7441300
0.134766	-0.574219	-0.046875	-0.365598	-0.665577	-0.599956	0.867188	0.890625	0.175781	36	17_29_10_7602590
0.120117	-0.559570	-0.049805	-0.365598	-0.665577	-0.609331	0.445313	0.878906	0.035156	37	17_29_10_7763880
0.131836	-0.565430	-0.046875	-0.365598	-0.665577	-0.599956	0.480469	0.937500	0.035156	38	17_29_10_7925170
0.131836	-0.568359	-0.046875	-0.365598	-0.665577	-0.599956	0.843750	0.937500	0.386719	39	17_29_10_8086460
0.128906	-0.559570	-0.043945	-0.365598	-0.665577	-0.599956	0.457031	0.855469	0.082031	40	17_29_10_8247750
0.131836	-0.562500	-0.061523	-0.365598	-0.665577	-0.599956	0.445313	0.867188	0.023438	41	17_29_10_8409040
0.125977	-0.565430	-0.046875	-0.365598	-0.674951	-0.599956	0.421875	0.914063	0.304688	42	17_29_10_8570330
0.140625	-0.556641	-0.052734	-0.365598	-0.674951	-0.599956	0.445313	0.890625	-0.023438	43	17_29_10_8731620
0.128906	-0.562500	-0.046875	-0.365598	-0.674951	-0.599956	0.445313	0.867188	0.023438	44	17_29_10_8892910
0.128906	-0.559570	-0.046875	-0.365598	-0.665577	-0.609331	0.433594	0.890625	0.082031	45	17_29_10_9054200
0.117188	-0.565430	-0.043945	-0.365598	-0.665577	-0.609331	0.433594	0.960938	0.035156	46	17_29_10_9215490
0.120117	-0.562500	-0.052734	-0.365598	-0.665577	-0.599956	0.468750	0.937500	0.046875	47	17_29_10_9376780
0.117188	-0.565430	-0.041016	-0.374973	-0.674951	-0.609331	0.433594	0.949219	0.023438	48	17_29_10_9538070
0.134766	-0.571289	-0.049805	-0.365598	-0.674951	-0.609331	0.433594	0.984375	-0.046875	49	17_29_10_9699360
0.134766	-0.568359	-0.049805	-0.365598	-0.665577	-0.599956	0.410156	0.902344	-0.011719	50	17_29_10_9860650
0.131836	-0.568359	-0.049805	-0.365598	-0.665577	-0.599956	0.410156	0.914063	0.035156	51	17_29_11_0021940
0.131836	-0.571289	-0.055664	-0.356224	-0.665577	-0.599956	0.410156	0.902344	0.011719	52	17_29_11_0183230
0.131836	-0.562500	-0.052734	-0.365598	-0.665577	-0.599956	0.445313	0.890625	0.000000	53	17_29_11_0344520
0.123047	-0.562500	-0.046875	-0.365598	-0.665577	-0.609331	0.445313	0.925781	0.000000	54	17_29_11_0505810
0.123047	-0.559570	-0.038086	-0.365598	-0.674951	-0.599956	0.457031	0.914063	0.046875	55	17_29_11_0667100
0.123047	-0.568359	-0.055664	-0.365598	-0.665577	-0.599956	0.433594	0.867188	0.070313	56	17_29_11_0828390
0.120117	-0.562500	-0.049805	-0.365598	-0.674951	-0.599956	0.457031	0.843750	0.035156	57	17_29_11_0989680
0.137695	-0.568359	-0.052734	-0.365598	-0.665577	-0.599956	0.410156	0.914063	0.000000	58	17_29_11_1150970
0.134766	-0.574219	-0.052734	-0.365598	-0.665577	-0.599956	0.433594	0.855469	-0.023438	59	17_29_11_1312260
0.128906	-0.559570	-0.046875	-0.365598	-0.665577	-0.599956	0.468750	0.808594	-0.046875	60	17_29_11_1473550
0.137695	-0.559570	-0.049805	-0.365598	-0.674951	-0.599956	0.550781	0.867188	0.386719	61	17_29_11_1634840
0.134766	-0.562500	-0.055664	-0.365598	-0.665577	-0.599956	0.433594	0.890625	-0.011719	62	17_29_11_1796130
0.131836	-0.550781	-0.038086	-0.374973	-0.665577	-0.599956	0.457031	0.867188	0.011719	63	17_29_11_1957420
0.125977	-0.562500	-0.049805	-0.365598	-0.665577	-0.599956	0.445313	0.890625	0.035156	64	17_29_11_2118710
0.120117	-0.565430	-0.046875	-0.365598	-0.665577	-0.599956	0.410156	0.867188	0.011719	65	17_29_11_2280000
0.123047	-0.568359	-0.052734	-0.356224	-0.665577	-0.599956	0.421875	0.878906	0.046875	66	17_29_11_2441290
0.134766	-0.559570	-0.058594	-0.365598	-0.665577	-0.599956	0.445313	0.925781	0.046875	67	17_29_11_2602580
0.134766	-0.568359	-0.058594	-0.356224	-0.665577	-0.599956	0.410156	0.914063	0.000000	68	17_29_11_2763870
0.123047	-0.559570	-0.041016	-0.365598	-0.665577	-0.599956	0.550781	0.890625	0.000000	69	17_29_11_2925160
0.125977	-0.562500	-0.043945	-0.365598	-0.665577	-0.599956	0.937500	0.867188	0.304688	70	17_29_11_3086450
0.140625	-0.568359	-0.041016	-0.365598	-0.665577	-0.599956	0.492188	0.867188	0.000000	71	17_29_11_3247740
0.134766	-0.562500	-0.049805	-0.365598	-0.665577	-0.599956	0.410156	0.843750	0.527344	72	17_29_11_3409030
0.128906	-0.559570	-0.046875	-0.365598	-0.674951	-0.599956	0.445313	0.820313	0.023438	73	17_29_11_3570320
0.128906	-0.556641	-0.052734	-0.365598	-0.665577	-0.599956	0.433594	0.914063	0.011719	74	17_29_11_3731610
0.123047	-0.547852	-0.049805	-0.365598	-0.665577	-0.599956	0.457031	0.937500	-0.011719	75	17_29_11_3892900
0.123047	-0.568359	-0.058594	-0.374973	-0.674951	-0.599956	0.433594	0.890625	0.000000	76	17_29_11_4054190
0.134766	-0.559570	-0.052734	-0.365598	-0.674951	-0.599956	0.433594	0.890625	0.011719	77	17_29_11_4215480
0.128906	-0.568359	-0.049805	-0.365598	-0.674951	-0.599956	0.410156	0.925781	0.046875	78	17_29_11_4376770
0.128906	-0.553711	-0.043945	-0.365598	-0.665577	-0.599956	0.433594	0.902344	0.070313	79	17_29_11_4538060
0.131836	-0.562500	-0.052734	-0.365598	-0.665577	-0.599956	0.445313	0.890625	0.011719	80	17_29_11_4699350
0.128906	-0.562500	-0.046875	-0.365598	-0.665577	-0.599956	0.445313	0.937500	-0.058594	81	17_29_11_4860640
0.128906	-0.556641	-0.046875	-0.365598	-0.665577	-0.599956	0.433594	0.937500	-0.023438	82	17_29_11_5021930
0.146484	-0.556641	-0.052734	-0.365598	-0.665577	-0.599956	0.410156	0.902344	-0.023438	83	17_29_11_5183220
0.128906	-0.559570	-0.046875	-0.356224	-0.665577	-0.599956	0.445313	0.925781	0.000000	84	17_29_11_5344510
0.131836	-0.577148	-0.049805	-0.365598	-0.665577	-0.599956	0.421875	0.890625	0.000000	85	17_29_11_5505800
0.131836	-0.565430	-0.049805	-0.365598	-0.674951	-0.599956	0.480469	0.902344	-0.035156	86	17_29_11_5667090
0.134766	-0.568359	-0.049805	-0.365598	-0.674951	-0.599956	0.410156	0.902344	-0.011719	87	17_29_11_5828380
0.143555	-0.562500	-0.046875	-0.365598	-0.674951	-0.599956	0.832031	0.890625	0.128906	88	17_29_11_5989670
0.134766	-0.568359	-0.046875	-0.365598	-0.665577	-0.599956	0.890625	0.902344	0.210938	89	17_29_11_6150960
0.131836	-0.568359	-0.064453	-0.365598	-0.665577	-0.599956	0.445313	0.937500	0.046875	90	17_29_11_6312250
0.131836	-0.550781	-0.058594	-0.365598	-0.665577	-0.599956	0.480469	0.937500	0.058594	91	17_29_11_6473540
0.128906	-0.568359	-0.055664	-0.365598	-0.665577	-0.599956	0.644531	0.949219	0.433594	92	17_29_11_6634830
0.137695	-0.565430	-0.052734	-0.365598	-0.674951	-0.599956	0.457031	0.890625	0.082031	93	17_29_11_6796120
0.128906	-0.571289	-0.043945	-0.365598	-0.674951	-0.599956	0.445313	0.890625	0.046875	94	17_29_11_6957410
0.131836	-0.568359	-0.052734	-0.365598	-0.674951	-0.599956	0.445313	0.843750	0.070313	95	17_29_11_7118700
0.134766	-0.568359	-0.046875	-0.365598	-0.674951	-0.599956	0.433594	0.878906	-0.011719	96	17_29_11_7279990
0.123047	-0.580078	-0.046875	-0.365598	-0.665577	-0.599956	0.468750	0.937500	0.058594	97	17_29_11_7441280
0.123047	-0.559570	-0.055664	-0.365598	-0.674951	-0.599956	0.445313	0.855469	0.046875	98	17_29_11_7602570
0.131836	-0.565430	-0.038086	-0.365598	-0.665577	-0.599956	0.867188	0.843750	0.175781	99	17_29_11_7763860
0.128906	-0.571289	-0.049805	-0.365598	-0.674951	-0.599956	0.410156	0.925781	0.023438	100	17_29_11_7925150
0.134766	-0.562500	-0.049805	-0.365598	-0.665577	-0.609331	0.468750	0.914063	0.046875	101	17_29_11_8086440
0.131836	-0.568359	-0.049805	-0.365598	-0.674951	-0.599956	0.832031	0.902344	0.410156	102	17_29_11_8247730
0.128906	-0.568359	-0.055664	-0.365598	-0.665577	-0.599956	0.433594	0.867188	0.035156	103	17_29_11_8409020
0.125977	-0.559570	-0.046875	-0.365598	-0.674951	-0.599956	0.468750	0.878906	0.000000	104	17_29_11_8570310
0.131836	-0.571289	-0.043945	-0.365598	-0.665577	-0.599956	0.457031	0.890625	0.011719	105	17_29_11_8731600
0.134766	-0.556641	-0.058594	-0.365598	-0.674951	-0.599956	0.667969	0.914063	0.058594	106	17_29_11_8892890
0.134766	-0.574219	-0.052734	-0.365598	-0.665577	-0.599956	0.410156	0.820313	0.000000	107	17_29_11_9054180
0.128906	-0.565430	-0.046875	-0.365598	-0.665577	-0.609331	0.468750	0.808594	0.070313	108	17_29_11_9215470
0.134766	-0.565430	-0.049805	-0.365598	-0.665577	-0.609331	0.410156	0.867188	0.035156	109	17_29_11_9376760
0.128906	-0.562500	-0.058594	-0.365598	-0.665577	-0.599956	0.421875	0.843750	0.046875	110	17_29_11_9538050
0.123047	-0.556641	-0.049805	-0.365598	-0.674951	-0.599956	0.457031	0.902344	0.046875	111	17_29_11_9699340
0.131836	-0.556641	-0.058594	-0.365598	-0.665577	-0.599956	0.843750	0.960938	0.527344	112	17_29_11_9860630
0.134766	-0.559570	-0.046875	-0.365598	-0.665577	-0.609331	0.609375	0.878906	0.457031	113	17_29_12_0021920
0.128906	-0.571289	-0.055664	-0.365598	-0.665577	-0.599956	0.445313	0.843750	0.433594	114	17_29_12_0183210
0.131836	-0.556641	-0.046875	-0.365598	-0.665577	-0.599956	0.433594	0.902344	0.035156	115	17_29_12_0344500
0.140625	-0.550781	-0.049805	-0.365598	-0.674951	-0.609331	0.410156	0.902344	0.070313	116	17_29_12_0505790
0.125977	-0.556641	-0.055664	-0.365598	-0.665577	-0.599956	0.738281	0.855469	0.164063	117	17_29_12_0667080
0.137695	-0.571289	-0.046875	-0.365598	-0.665577	-0.599956	0.445313	0.843750	0.035156	118	17_29_12_0828370
0.128906	-0.565430	-0.046875	-0.365598	-0.665577	-0.609331	0.445313	0.843750	0.035156	119	17_29_12_0989660
0.134766	-0.553711	-0.049805	-0.365598	-0.665577	-0.599956	0.433594	0.937500	0.046875	120	17_29_12_1150950
0.134766	-0.550781	-0.043945	-0.365598	-0.665577	-0.599956	0.421875	0.867188	0.082031	121	17_29_12_1312240
0.137695	-0.580078	-0.055664	-0.374973	-0.665577	-0.609331	0.433594	0.867188	0.035156	122	17_29_12_1473530
0.146484	-0.556641	-0.052734	-0.365598	-0.665577	-0.609331	0.433594	0.914063	0.011719	123	17_29_12_1634820
0.123047	-0.556641	-0.052734	-0.365598	-0.665577	-0.599956	0.457031	0.890625	-0.035156	124	17_29_12_1796110
0.140625	-0.574219	-0.049805	-0.374973	-0.665577	-0.599956	0.433594	0.937500	-0.011719	125	17_29_12_1957400
0.131836	-0.562500	-0.061523	-0.365598	-0.665577	-0.599956	0.621094	0.914063	0.093750	126	17_29_12_2118690
0.134766	-0.574219	-0.052734	-0.374973	-0.665577	-0.599956	0.457031	0.902344	0.046875	127	17_29_12_2279980
0.131836	-0.550781	-0.052734	-0.374973	-0.674951	-0.599956	0.703125	0.867188	0.105469	128	17_29_12_2441270
0.134766	-0.550781	-0.049805	-0.365598	-0.674951	-0.599956	0.457031	0.820313	0.023438	129	17_29_12_2602560
0.123047	-0.556641	-0.046875	-0.365598	-0.665577	-0.599956	0.492188	0.902344	0.011719	130	17_29_12_2763850
0.120117	-0.562500	-0.061523	-0.365598	-0.665577	-0.599956	0.445313	0.914063	-0.035156	131	17_29_12_2925140
0.128906	-0.568359	-0.055664	-0.365598	-0.674951	-0.599956	0.468750	0.914063	0.000000	132	17_29_12_3086430
0.134766	-0.568359	-0.052734	-0.365598	-0.665577	-0.599956	0.410156	0.855469	-0.046875	133	17_29_12_3247720
0.134766	-0.565430	-0.055664	-0.365598	-0.665577	-0.609331	0.410156	0.832031	0.000000	134	17_29_12_3409010
0.134766	-0.562500	-0.038086	-0.365598	-0.665577	-0.609331	0.503906	0.843750	0.445313	135	17_29_12_3570300
0.128906	-0.568359	-0.049805	-0.365598	-0.665577	-0.599956	0.597656	0.855469	0.117188	136	17_29_12_3731590
0.134766	-0.574219	-0.046875	-0.365598	-0.665577	-0.609331	0.410156	0.890625	0.046875	137	17_29_12_3892880
0.128906	-0.568359	-0.058594	-0.365598	-0.674951	-0.599956	0.457031	0.902344	0.046875	138	17_29_12_4054170
0.140625	-0.568359	-0.049805	-0.365598	-0.674951	-0.599956	0.503906	0.914063	0.046875	139	17_29_12_4215460
0.137695	-0.553711	-0.038086	-0.365598	-0.665577	-0.599956	0.457031	0.937500	0.000000	140	17_29_12_4376750
0.131836	-0.568359	-0.049805	-0.365598	-0.665577	-0.599956	0.421875	0.902344	0.000000	141	17_29_12_4538040
0.134766	-0.571289	-0.046875	-0.365598	-0.665577	-0.599956	1.031250	0.937500	0.246094	142	17_29_12_4699330
0.137695	-0.559570	-0.052734	-0.365598	-0.665577	-0.609331	0.457031	0.867188	0.035156	143	17_29_12_4860620
0.134766	-0.562500	-0.049805	-0.374973	-0.674951	-0.599956	0.726563	0.843750	0.199219	144	17_29_12_5021910
0.128906	-0.559570	-0.058594	-0.365598	-0.665577	-0.599956	0.457031	0.890625	0.000000	145	17_29_12_5183200
0.128906	-0.574219	-0.049805	-0.374973	-0.665577	-0.599956	0.515625	0.949219	0.421875	146	17_29_12_5344490
0.137695	-0.550781	-0.052734	-0.365598	-0.665577	-0.599956	0.480469	0.937500	0.011719	147	17_29_12_5505780
0.131836	-0.574219	-0.046875	-0.365598	-0.665577	-0.599956	0.410156	0.890625	0.000000	148	17_29_12_5667070
0.134766	-0.574219	-0.052734	-0.374973	-0.674951	-0.599956	0.468750	0.890625	-0.011719	149	17_29_12_5828360
0.131836	-0.550781	-0.049805	-0.356224	-0.674951	-0.599956	0.750000	0.855469	0.105469	150	17_29_12_5989650
0.137695	-0.562500	-0.041016	-0.356224	-0.665577	-0.599956	0.761719	0.867188	0.128906	151	17_29_12_6150940
0.128906	-0.565430	-0.052734	-0.365598	-0.665577	-0.599956	0.457031	0.878906	-0.011719	152	17_29_12_6312230
0.134766	-0.580078	-0.046875	-0.365598	-0.665577	-0.599956	0.433594	0.843750	0.035156	153	17_29_12_6473520
0.117188	-0.556641	-0.043945	-0.365598	-0.674951	-0.599956	0.433594	0.867188	0.082031	154	17_29_12_6634810
0.134766	-0.568359	-0.046875	-0.365598	-0.674951	-0.599956	0.421875	0.867188	0.058594	155	17_29_12_6796100
0.134766	-0.562500	-0.052734	-0.374973	-0.674951	-0.599956	0.445313	0.867188	0.257813	156	17_29_12_6957390
0.131836	-0.571289	-0.049805	-0.374973	-0.665577	-0.599956	0.585938	0.914063	0.292969	157	17_29_12_7118680
0.140625	-0.562500	-0.052734	-0.365598	-0.665577	-0.599956	0.433594	0.960938	0.035156	158	17_29_12_7279970
0.134766	-0.556641	-0.052734	-0.356224	-0.665577	-0.599956	0.468750	0.949219	0.070313	159	17_29_12_7441260
0.125977	-0.562500	-0.049805	-0.365598	-0.665577	-0.599956	0.421875	0.902344	0.035156	160	17_29_12_7602550
0.131836	-0.565430	-0.055664	-0.365598	-0.665577	-0.599956	0.445313	0.878906	0.023438	161	17_29_12_7763840
0.131836	-0.568359	-0.055664	-0.365598	-0.665577	-0.609331	0.445313	0.902344	-0.011719	162	17_29_12_7925130
0.125977	-0.562500	-0.052734	-0.365598	-0.665577	-0.599956	0.410156	0.902344	0.023438	163	17_29_12_8086420
0.134766	-0.568359	-0.046875	-0.365598	-0.674951	-0.599956	0.914063	0.890625	0.316406	164	17_29_12_8247710
0.128906	-0.556641	-0.043945	-0.365598	-0.674951	-0.599956	0.644531	0.949219	0.175781	165	17_29_12_8409000
0.137695	-0.556641	-0.052734	-0.365598	-0.674951	-0.599956	0.421875	0.902344	0.492188	166	17_29_12_8570290
0.134766	-0.568359	-0.055664	-0.365598	-0.665577	-0.609331	0.597656	0.855469	0.375000	167	17_29_12_8731580
0.134766	-0.556641	-0.061523	-0.365598	-0.674951	-0.599956	0.410156	0.867188	-0.070313	168	17_29_12_8892870
0.128906	-0.568359	-0.046875	-0.365598	-0.665577	-0.599956	0.445313	0.867188	-0.070313	169	17_29_12_9054160
0.134766	-0.565430	-0.052734	-0.365598	-0.665577	-0.599956	0.445313	0.914063	0.023438	170	17_29_12_9215450
0.125977	-0.571289	-0.052734	-0.365598	-0.665577	-0.599956	0.421875	0.937500	0.023438	171	17_29_12_9376740
0.128906	-0.568359	-0.049805	-0.365598	-0.674951	-0.609331	0.433594	0.890625	0.035156	172	17_29_12_9538030
0.134766	-0.571289	-0.046875	-0.356224	-0.665577	-0.599956	1.078125	0.855469	0.222656	173	17_29_12_9699320
0.140625	-0.559570	-0.046875	-0.365598	-0.665577	-0.599956	0.433594	0.890625	-0.011719	174	17_29_12_9860610
0.134766	-0.562500	-0.043945	-0.365598	-0.665577	-0.599956	0.761719	0.949219	0.316406	175	17_29_13_0021900
0.140625	-0.562500	-0.052734	-0.365598	-0.665577	-0.609331	0.410156	0.949219	0.023438	176	17_29_13_0183190
0.128906	-0.556641	-0.049805	-0.374973	-0.665577	-0.599956	0.445313	0.832031	0.046875	177	17_29_13_0344480
0.131836	-0.565430	-0.058594	-0.365598	-0.665577	-0.599956	0.468750	0.890625	0.082031	178	17_29_13_0505770
0.128906	-0.568359	-0.058594	-0.365598	-0.665577	-0.609331	0.433594	0.902344	0.058594	179	17_29_13_0667060
0.131836	-0.562500	-0.049805	-0.365598	-0.674951	-0.599956	0.445313	0.820313	0.000000	180	17_29_13_0828350
0.125977	-0.565430	-0.052734	-0.374973	-0.674951	-0.609331	0.433594	0.902344	0.011719	181	17_29_13_0989640
0.134766	-0.556641	-0.052734	-0.374973	-0.665577	-0.609331	0.445313	0.890625	0.046875	182	17_29_13_1150930
0.131836	-0.565430	-0.046875	-0.374973	-0.665577	-0.609331	0.433594	0.949219	0.023438	183	17_29_13_1312220
0.123047	-0.556641	-0.052734	-0.374973	-0.665577	-0.609331	0.457031	0.937500	-0.035156	184	17_29_13_1473510
0.125977	-0.556641	-0.046875	-0.374973	-0.665577	-0.609331	0.457031	0.937500	0.035156	185	17_29_13_1634800
0.131836	-0.565430	-0.046875	-0.374973	-0.674951	-0.599956	0.433594	0.949219	0.070313	186	17_29_13_1796090
0.140625	-0.565430	-0.049805	-0.374973	-0.665577	-0.599956	0.421875	0.925781	0.000000	187	17_29_13_1957380
0.140625	-0.562500	-0.046875	-0.365598	-0.665577	-0.609331	0.433594	0.937500	0.000000	188	17_29_13_2118670
0.128906	-0.571289	-0.058594	-0.365598	-0.665577	-0.599956	0.421875	0.937500	0.117188	189	17_29_13_2279960
0.123047	-0.562500	-0.058594	-0.365598	-0.665577	-0.599956	0.410156	0.949219	0.023438	190	17_29_13_2441250
0.134766	-0.559570	-0.049805	-0.374973	-0.665577	-0.599956	0.457031	0.890625	0.046875	191	17_29_13_2602540
0.123047	-0.562500	-0.046875	-0.365598	-0.665577	-0.599956	0.398438	0.867188	0.046875	192	17_29_13_2763830
0.128906	-0.559570	-0.049805	-0.365598	-0.665577	-0.599956	0.457031	0.867188	0.058594	193	17_29_13_2925120
0.131836	-0.565430	-0.049805	-0.365598	-0.665577	-0.599956	0.445313	0.925781	0.058594	194	17_29_13_3086410
0.123047	-0.571289	-0.049805	-0.365598	-0.665577	-0.599956	0.468750	0.937500	0.000000	195	17_29_13_3247700
0.128906	-0.556641	-0.052734	-0.365598	-0.665577	-0.599956	0.750000	0.867188	0.339844	196	17_29_13_3408990
0.123047	-0.562500	-0.046875	-0.365598	-0.674951	-0.599956	0.410156	0.843750	0.046875	197	17_29_13_3570280
0.140625	-0.571289	-0.055664	-0.365598	-0.674951	-0.599956	0.468750	0.925781	0.058594	198	17_29_13_3731570
0.143555	-0.556641	-0.049805	-0.365598	-0.674951	-0.599956	0.632813	0.914063	0.269531	199	17_29_13_3892860
0.140625	-0.571289	-0.049805	-0.365598	-0.656202	-0.599956	0.433594	0.925781	0.000000	200	17_29_13_4054150
0.134766	-0.553711	-0.046875	-0.365598	-0.665577	-0.609331	0.433594	0.949219	0.000000	201	17_29_13_4215440
0.123047	-0.571289	-0.049805	-0.365598	-0.665577	-0.599956	0.445313	0.902344	0.011719	202	17_29_13_4376730
0.125977	-0.556641	-0.049805	-0.365598	-0.665577	-0.599956	0.468750	0.960938	0.058594	203	17_29_13_4538020
0.134766	-0.565430	-0.058594	-0.365598	-0.665577	-0.599956	0.914063	0.914063	0.246094	204	17_29_13_4699310
0.131836	-0.568359	-0.049805	-0.365598	-0.665577	-0.599956	0.421875	0.867188	0.105469	205	17_29_13_4860600
0.134766	-0.568359	-0.055664	-0.374973	-0.665577	-0.599956	0.433594	0.914063	0.117188	206	17_29_13_5021890
0.134766	-0.565430	-0.041016	-0.365598	-0.665577	-0.599956	0.433594	0.937500	0.082031	207	17_29_13_5183180
0.131836	-0.553711	-0.052734	-0.365598	-0.665577	-0.599956	0.445313	0.925781	0.058594	208	17_29_13_5344470
0.128906	-0.559570	-0.049805	-0.365598	-0.674951	-0.599956	0.492188	0.937500	0.058594	209	17_29_13_5505760
0.128906	-0.562500	-0.049805	-0.365598	-0.665577	-0.599956	0.421875	0.878906	0.035156	210	17_29_13_5667050
0.128906	-0.556641	-0.046875	-0.365598	-0.665577	-0.609331	0.445313	0.855469	0.035156	211	17_29_13_5828340
0.134766	-0.562500	-0.055664	-0.374973	-0.665577	-0.609331	0.457031	0.890625	0.046875	212	17_29_13_5989630
0.125977	-0.556641	-0.055664	-0.365598	-0.665577	-0.599956	0.410156	0.878906	0.000000	213	17_29_13_6150920
0.140625	-0.568359	-0.046875	-0.365598	-0.665577	-0.609331	0.480469	0.855469	0.023438	214	17_29_13_6312210
0.137695	-0.568359	-0.055664	-0.365598	-0.665577	-0.599956	0.480469	0.890625	0.046875	215	17_29_13_6473500
0.134766	-0.559570	-0.052734	-0.365598	-0.665577	-0.618705	0.433594	0.890625	0.046875	216	17_29_13_6634790
0.120117	-0.562500	-0.055664	-0.374973	-0.665577	-0.609331	0.468750	0.925781	0.046875	217	17_29_13_6796080
0.131836	-0.565430	-0.049805	-0.365598	-0.665577	-0.599956	0.410156	0.878906	0.046875	218	17_29_13_6957370
0.120117	-0.556641	-0.055664	-0.365598	-0.665577	-0.599956	0.457031	0.937500	0.035156	219	17_29_13_7118660
0.131836	-0.565430	-0.052734	-0.365598	-0.665577	-0.599956	0.421875	0.890625	0.011719	220	17_29_13_7279950
0.128906	-0.568359	-0.052734	-0.365598	-0.665577	-0.599956	0.433594	0.902344	0.023438	221	17_29_13_7441240
0.128906	-0.556641	-0.055664	-0.365598	-0.674951	-0.599956	0.421875	0.855469	0.035156	222	17_29_13_7602530
0.140625	-0.562500	-0.046875	-0.365598	-0.665577	-0.599956	0.996094	0.937500	0.222656	223	17_29_13_7763820
0.123047	-0.559570	-0.055664	-0.365598	-0.665577	-0.599956	0.421875	0.984375	0.000000	224	17_29_13_7925110
0.134766	-0.565430	-0.055664	-0.365598	-0.674951	-0.599956	0.410156	0.937500	-0.011719	225	17_29_13_8086400
0.128906	-0.574219	-0.049805	-0.365598	-0.665577	-0.599956	0.421875	0.914063	0.023438	226	17_29_13_8247690
0.134766	-0.574219	-0.052734	-0.365598	-0.674951	-0.599956	0.796875	0.878906	0.292969	227	17_29_13_8408980
0.134766	-0.562500	-0.043945	-0.365598	-0.665577	-0.599956	0.527344	0.878906	0.433594	228	17_29_13_8570270
0.125977	-0.550781	-0.055664	-0.365598	-0.665577	-0.609331	0.410156	0.878906	0.035156	229	17_29_13_8731560
0.131836	-0.556641	-0.046875	-0.365598	-0.665577	-0.609331	0.585938	0.832031	0.035156	230	17_29_13_8892850
0.123047	-0.574219	-0.049805	-0.365598	-0.665577	-0.609331	0.445313	0.855469	-0.035156	231	17_29_13_9054140
0.131836	-0.556641	-0.052734	-0.365598	-0.665577	-0.599956	0.433594	0.902344	0.035156	232	17_29_13_9215430
0.128906	-0.559570	-0.049805	-0.365598	-0.674951	-0.599956	0.421875	0.914063	0.070313	233	17_29_13_9376720
0.140625	-0.562500	-0.052734	-0.374973	-0.674951	-0.599956	0.480469	0.914063	0.070313	234	17_29_13_9538010
0.128906	-0.568359	-0.061523	-0.365598	-0.665577	-0.599956	0.468750	0.902344	0.023438	235	17_29_13_9699300
0.125977	-0.568359	-0.046875	-0.365598	-0.665577	-0.599956	0.445313	0.855469	-0.035156	236	17_29_13_9860590
0.131836	-0.568359	-0.055664	-0.365598	-0.674951	-0.599956	0.421875	0.867188	0.011719	237	17_29_14_0021880
0.134766	-0.562500	-0.052734	-0.365598	-0.665577	-0.599956	0.503906	0.867188	0.046875	238	17_29_14_0183170
0.128906	-0.571289	-0.055664	-0.365598	-0.665577	-0.599956	0.492188	0.867188	0.082031	239	17_29_14_0344460
0.131836	-0.559570	-0.046875	-0.365598	-0.665577	-0.599956	0.503906	0.878906	0.363281	240	17_29_14_0505750
0.134766	-0.556641	-0.046875	-0.365598	-0.656202	-0.599956	0.421875	0.902344	0.035156	241	17_29_14_0667040
0.128906	-0.556641	-0.049805	-0.365598	-0.665577	-0.609331	0.421875	0.949219	0.035156	242	17_29_14_0828330
0.131836	-0.577148	-0.038086	-0.365598	-0.665577	-0.599956	0.433594	0.925781	0.011719	243	17_29_14_0989620
0.134766	-0.568359	-0.049805	-0.365598	-0.665577	-0.599956	0.421875	0.949219	0.023438	244	17_29_14_1150910
0.140625	-0.574219	-0.055664	-0.365598	-0.674951	-0.599956	0.445313	0.949219	0.023438	245	17_29_14_1312200
0.137695	-0.568359	-0.046875	-0.365598	-0.665577	-0.599956	0.433594	0.937500	0.011719	246	17_29_14_1473490
0.128906	-0.562500	-0.058594	-0.365598	-0.665577	-0.599956	0.445313	0.878906	0.011719	247	17_29_14_1634780
0.123047	-0.556641	-0.043945	-0.365598	-0.665577	-0.599956	0.492188	0.867188	0.011719	248	17_29_14_1796070
0.120117	-0.568359	-0.058594	-0.365598	-0.674951	-0.599956	0.445313	0.890625	-0.035156	249	17_29_14_1957360
0.131836	-0.568359	-0.061523	-0.365598	-0.674951	-0.599956	0.433594	0.890625	-0.070313	250	17_29_14_2118650
0.125977	-0.565430	-0.052734	-0.365598	-0.674951	-0.599956	0.445313	0.937500	-0.011719	251	17_29_14_2279940
0.134766	-0.556641	-0.049805	-0.365598	-0.665577	-0.599956	0.644531	0.914063	0.093750	252	17_29_14_2441230
0.123047	-0.550781	-0.043945	-0.365598	-0.665577	-0.599956	0.421875	0.855469	0.046875	253	17_29_14_2602520
0.131836	-0.562500	-0.052734	-0.365598	-0.665577	-0.590582	0.421875	0.890625	0.046875	254	17_29_14_2763810
0.125977	-0.562500	-0.049805	-0.365598	-0.665577	-0.599956	0.433594	0.937500	0.035156	255	17_29_14_2925100
0.137695	-0.562500	-0.046875	-0.365598	-0.665577	-0.599956	0.445313	0.914063	0.035156	256	17_29_14_3086390
0.128906	-0.556641	-0.049805	-0.365598	-0.665577	-0.599956	0.410156	0.878906	0.046875	257	17_29_14_3247680
0.123047	-0.556641	-0.049805	-0.365598	-0.665577	-0.599956	0.421875	0.832031	0.058594	258	17_29_14_3408970
0.137695	-0.553711	-0.049805	-0.365598	-0.665577	-0.599956	0.445313	0.878906	0.035156	259	17_29_14_3570260
0.123047	-0.571289	-0.058594	-0.365598	-0.665577	-0.599956	0.527344	0.878906	0.093750	260	17_29_14_3731550
0.128906	-0.559570	-0.052734	-0.365598	-0.665577	-0.609331	0.445313	0.867188	0.023438	261	17_29_14_3892840
0.137695	-0.559570	-0.049805	-0.365598	-0.665577	-0.599956	0.457031	0.855469	0.000000	262	17_29_14_4054130
0.140625	-0.562500	-0.058594	-0.374973	-0.665577	-0.599956	0.480469	0.808594	0.000000	263	17_29_14_4215420
0.131836	-0.553711	-0.049805	-0.365598	-0.665577	-0.599956	0.421875	0.867188	-0.023438	264	17_29_14_4376710
0.131836	-0.568359	-0.052734	-0.365598	-0.665577	-0.609331	0.796875	0.914063	0.117188	265	17_29_14_4538000
0.140625	-0.562500	-0.043945	-0.365598	-0.665577	-0.599956	0.433594	0.914063	0.035156	266	17_29_14_4699290
0.128906	-0.556641	-0.043945	-0.365598	-0.665577	-0.599956	0.410156	0.890625	0.046875	267	17_29_14_4860580
0.125977	-0.574219	-0.052734	-0.365598	-0.665577	-0.599956	0.421875	0.937500	0.058594	268	17_29_14_5021870
0.134766	-0.559570	-0.058594	-0.365598	-0.674951	-0.599956	0.445313	0.902344	0.023438	269	17_29_14_5183160
0.131836	-0.565430	-0.055664	-0.365598	-0.665577	-0.599956	0.480469	0.878906	0.000000	270	17_29_14_5344450
0.120117	-0.559570	-0.038086	-0.365598	-0.665577	-0.599956	0.433594	0.890625	0.011719	271	17_29_14_5505740
0.131836	-0.547852	-0.052734	-0.365598	-0.665577	-0.609331	0.609375	0.878906	0.070313	272	17_29_14_5667030
0.128906	-0.562500	-0.052734	-0.365598	-0.665577	-0.599956	0.433594	0.878906	-0.011719	273	17_29_14_5828320
0.137695	-0.571289	-0.052734	-0.365598	-0.674951	-0.599956	0.421875	0.925781	0.000000	274	17_29_14_5989610
0.140625	-0.565430	-0.055664	-0.365598	-0.674951	-0.599956	0.468750	0.937500	0.023438	275	17_29_14_6150900
0.134766	-0.565430	-0.043945	-0.365598	-0.665577	-0.599956	0.410156	0.867188	0.023438	276	17_29_14_6312190
0.131836	-0.571289	-0.049805	-0.384347	-0.665577	-0.599956	0.433594	0.855469	0.023438	277	17_29_14_6473480
0.125977	-0.565430	-0.058594	-0.365598	-0.665577	-0.599956	0.410156	0.867188	0.011719	278	17_29_14_6634770
0.125977	-0.562500	-0.055664	-0.374973	-0.665577	-0.599956	0.410156	0.914063	-0.023438	279	17_29_14_6796060
0.134766	-0.568359	-0.061523	-0.374973	-0.674951	-0.599956	0.574219	0.925781	0.574219	280	17_29_14_6957350
0.140625	-0.562500	-0.055664	-0.374973	-0.665577	-0.599956	0.410156	0.902344	0.070313	281	17_29_14_7118640
0.137695	-0.562500	-0.058594	-0.365598	-0.665577	-0.599956	0.433594	0.925781	0.046875	282	17_29_14_7279930
0.140625	-0.565430	-0.049805	-0.365598	-0.665577	-0.599956	0.433594	0.925781	0.023438	283	17_29_14_7441220
0.134766	-0.571289	-0.058594	-0.356224	-0.665577	-0.599956	0.644531	0.867188	0.058594	284	17_29_14_7602510
0.134766	-0.556641	-0.067383	-0.365598	-0.665577	-0.609331	0.445313	0.843750	-0.023438	285	17_29_14_7763800
0.125977	-0.559570	-0.049805	-0.374973	-0.674951	-0.599956	0.503906	0.890625	-0.011719	286	17_29_14_7925090
0.134766	-0.556641	-0.049805	-0.374973	-0.665577	-0.599956	0.410156	0.867188	0.011719	287	17_29_14_8086380
0.123047	-0.562500	-0.046875	-0.365598	-0.665577	-0.590582	0.492188	0.960938	0.023438	288	17_29_14_8247670
0.123047	-0.559570	-0.046875	-0.365598	-0.665577	-0.590582	1.007813	0.925781	0.316406	289	17_29_14_8408960
0.131836	-0.562500	-0.046875	-0.365598	-0.674951	-0.599956	0.433594	0.925781	0.058594	290	17_29_14_8570250
0.128906	-0.556641	-0.049805	-0.365598	-0.665577	-0.599956	0.445313	0.949219	0.035156	291	17_29_14_8731540
0.128906	-0.568359	-0.046875	-0.365598	-0.674951	-0.599956	0.433594	0.914063	0.292969	292	17_29_14_8892830
0.128906	-0.568359	-0.055664	-0.365598	-0.674951	-0.599956	0.468750	0.914063	0.023438	293	17_29_14_9054120
0.134766	-0.568359	-0.046875	-0.365598	-0.674951	-0.599956	0.468750	0.914063	0.011719	294	17_29_14_9215410
0.134766	-0.559570	-0.052734	-0.365598	-0.674951	-0.599956	0.480469	0.902344	-0.011719	295	17_29_14_9376700
0.125977	-0.562500	-0.049805	-0.365598	-0.665577	-0.599956	0.457031	0.867188	0.058594	296	17_29_14_9537990
0.131836	-0.544922	-0.052734	-0.374973	-0.665577	-0.609331	0.644531	0.890625	0.152344	297	17_29_14_9699280
0.140625	-0.559570	-0.046875	-0.365598	-0.674951	-0.609331	0.457031	0.867188	0.011719	298	17_29_14_9860570
0.131836	-0.556641	-0.058594	-0.356224	-0.674951	-0.599956	0.410156	0.855469	-0.035156	299	17_29_15_0021860
0.137695	-0.556641	-0.046875	-0.365598	-0.674951	-0.609331	0.867188	0.937500	0.457031	300	17_29_15_0183150
0.123047	-0.565430	-0.052734	-0.365598	-0.665577	-0.599956	0.433594	0.890625	0.000000	301	17_29_15_0344440
0.134766	-0.565430	-0.049805	-0.356224	-0.665577	-0.599956	0.421875	0.937500	0.000000	302	17_29_15_0505730
0.125977	-0.568359	-0.041016	-0.365598	-0.665577	-0.609331	0.468750	0.902344	-0.023438	303	17_29_15_0667020
0.128906	-0.568359	-0.052734	-0.365598	-0.665577	-0.609331	0.609375	0.878906	0.070313	304	17_29_15_0828310
0.140625	-0.568359	-0.046875	-0.356224	-0.665577	-0.599956	0.445313	0.867188	0.035156	305	17_29_15_0989600
0.128906	-0.568359	-0.026367	-0.365598	-0.665577	-0.599956	0.445313	0.890625	0.058594	306	17_29_15_1150890
0.140625	-0.565430	-0.049805	-0.365598	-0.665577	-0.599956	0.421875	0.890625	0.058594	307	17_29_15_1312180
0.131836	-0.559570	-0.055664	-0.365598	-0.674951	-0.599956	0.457031	0.914063	0.035156	308	17_29_15_1473470
0.134766	-0.559570	-0.055664	-0.374973	-0.674951	-0.599956	0.445313	0.902344	0.035156	309	17_29_15_1634760
0.140625	-0.565430	-0.052734	-0.365598	-0.674951	-0.599956	0.515625	0.890625	0.070313	310	17_29_15_1796050
0.128906	-0.574219	-0.046875	-0.365598	-0.674951	-0.599956	0.410156	0.937500	0.035156	311	17_29_15_1957340
0.137695	-0.571289	-0.046875	-0.365598	-0.665577	-0.609331	0.410156	0.937500	0.023438	312	17_29_15_2118630
0.143555	-0.556641	-0.055664	-0.365598	-0.674951	-0.599956	0.421875	0.890625	0.058594	313	17_29_15_2279920
0.131836	-0.562500	-0.046875	-0.365598	-0.674951	-0.599956	0.457031	0.902344	0.046875	314	17_29_15_2441210
0.128906	-0.562500	-0.046875	-0.365598	-0.674951	-0.599956	0.410156	0.902344	0.035156	315	17_29_15_2602500
0.134766	-0.559570	-0.061523	-0.365598	-0.665577	-0.599956	0.468750	0.984375	0.058594	316	17_29_15_2763790
0.134766	-0.559570	-0.055664	-0.365598	-0.665577	-0.599956	0.410156	0.937500	0.046875	317	17_29_15_2925080
0.131836	-0.562500	-0.049805	-0.365598	-0.665577	-0.599956	0.445313	0.902344	0.035156	318	17_29_15_3086370
0.128906	-0.571289	-0.046875	-0.365598	-0.674951	-0.599956	0.656250	0.902344	0.117188	319	17_29_15_3247660
0.134766	-0.556641	-0.055664	-0.365598	-0.674951	-0.599956	0.433594	0.914063	-0.023438	320	17_29_15_3408950
0.128906	-0.571289	-0.052734	-0.365598	-0.674951	-0.599956	0.410156	0.890625	-0.011719	321	17_29_15_3570240
0.140625	-0.559570	-0.049805	-0.365598	-0.674951	-0.599956	0.550781	0.890625	0.550781	322	17_29_15_3731530
0.134766	-0.556641	-0.041016	-0.365598	-0.665577	-0.599956	0.421875	0.937500	0.046875	323	17_29_15_3892820
0.125977	-0.565430	-0.046875	-0.374973	-0.665577	-0.609331	0.421875	0.937500	0.023438	324	17_29_15_4054110
0.125977	-0.568359	-0.052734	-0.365598	-0.665577	-0.599956	0.433594	0.890625	-0.035156	325	17_29_15_4215400
0.128906	-0.571289	-0.052734	-0.365598	-0.665577	-0.599956	0.445313	0.925781	-0.011719	326	17_29_15_4376690
0.137695	-0.559570	-0.055664	-0.365598	-0.674951	-0.590582	0.457031	0.914063	0.035156	327	17_29_15_4537980
0.131836	-0.568359	-0.043945	-0.365598	-0.674951	-0.599956	0.468750	0.878906	0.011719	328	17_29_15_4699270
0.140625	-0.562500	-0.043945	-0.365598	-0.665577	-0.590582	0.468750	0.937500	0.011719	329	17_29_15_4860560
0.131836	-0.556641	-0.046875	-0.365598	-0.665577	-0.599956	0.457031	0.937500	0.023438	330	17_29_15_5021850
0.137695	-0.562500	-0.058594	-0.365598	-0.665577	-0.609331	0.480469	0.890625	0.011719	331	17_29_15_5183140
0.128906	-0.562500	-0.046875	-0.365598	-0.674951	-0.609331	0.667969	0.914063	0.656250	332	17_29_15_5344430
0.134766	-0.565430	-0.055664	-0.365598	-0.665577	-0.599956	0.433594	0.902344	0.023438	333	17_29_15_5505720
0.128906	-0.562500	-0.058594	-0.365598	-0.674951	-0.599956	0.433594	0.914063	0.046875	334	17_29_15_5667010
0.140625	-0.559570	-0.049805	-0.365598	-0.665577	-0.599956	0.445313	0.960938	0.082031	335	17_29_15_5828300
0.134766	-0.562500	-0.055664	-0.365598	-0.665577	-0.599956	0.410156	0.914063	0.046875	336	17_29_15_5989590
0.128906	-0.565430	-0.046875	-0.374973	-0.665577	-0.599956	0.398438	0.914063	0.023438	337	17_29_15_6150880
0.128906	-0.565430	-0.061523	-0.365598	-0.665577	-0.599956	0.410156	0.902344	-0.011719	338	17_29_15_6312170
0.128906	-0.562500	-0.055664	-0.365598	-0.665577	-0.609331	0.515625	0.890625	0.023438	339	17_29_15_6473460
0.125977	-0.559570	-0.058594	-0.365598	-0.665577	-0.599956	1.031250	0.890625	0.269531	340	17_29_15_6634750
0.134766	-0.565430	-0.046875	-0.365598	-0.665577	-0.599956	0.468750	0.914063	0.000000	341	17_29_15_6796040
0.128906	-0.562500	-0.049805	-0.365598	-0.665577	-0.599956	0.445313	0.914063	0.035156	342	17_29_15_6957330
0.137695	-0.556641	-0.043945	-0.365598	-0.665577	-0.599956	0.468750	0.925781	0.058594	343	17_29_15_7118620
0.128906	-0.559570	-0.049805	-0.365598	-0.674951	-0.599956	0.445313	0.902344	0.046875	344	17_29_15_7279910
0.134766	-0.571289	-0.055664	-0.365598	-0.674951	-0.599956	0.445313	0.820313	0.011719	345	17_29_15_7441200
0.131836	-0.571289	-0.052734	-0.365598	-0.674951	-0.599956	0.597656	0.855469	0.070313	346	17_29_15_7602490
0.134766	-0.571289	-0.043945	-0.365598	-0.665577	-0.599956	0.410156	0.890625	0.046875	347	17_29_15_7763780
0.134766	-0.559570	-0.046875	-0.365598	-0.674951	-0.599956	0.445313	0.890625	0.023438	348	17_29_15_7925070
0.131836	-0.562500	-0.061523	-0.365598	-0.684325	-0.599956	0.410156	0.937500	0.000000	349	17_29_15_8086360
0.137695	-0.565430	-0.046875	-0.365598	-0.674951	-0.599956	0.433594	0.914063	0.035156	350	17_29_15_8247650
0.134766	-0.562500	-0.043945	-0.365598	-0.665577	-0.599956	0.468750	0.867188	0.023438	351	17_29_15_8408940
0.137695	-0.568359	-0.049805	-0.365598	-0.665577	-0.599956	0.480469	0.914063	-0.011719	352	17_29_15_8570230
0.134766	-0.562500	-0.058594	-0.365598	-0.665577	-0.599956	0.445313	0.843750	0.023438	353	17_29_15_8731520
0.143555	-0.565430	-0.046875	-0.365598	-0.656202	-0.599956	0.433594	0.796875	-0.011719	354	17_29_15_8892810
0.137695	-0.544922	-0.055664	-0.365598	-0.674951	-0.599956	0.468750	0.878906	-0.035156	355	17_29_15_9054100
0.140625	-0.568359	-0.046875	-0.365598	-0.665577	-0.599956	0.503906	0.867188	-0.011719	356	17_29_15_9215390
0.128906	-0.565430	-0.052734	-0.365598	-0.674951	-0.609331	0.445313	0.855469	0.011719	357	17_29_15_9376680
0.137695	-0.571289	-0.043945	-0.365598	-0.665577	-0.599956	0.714844	0.867188	0.164063	358	17_29_15_9537970
0.134766	-0.568359	-0.049805	-0.365598	-0.674951	-0.599956	0.386719	0.867188	0.070313	359	17_29_15_9699260
0.134766	-0.559570	-0.046875	-0.365598	-0.674951	-0.599956	0.843750	0.890625	0.175781	360	17_29_15_9860550
0.134766	-0.568359	-0.052734	-0.365598	-0.665577	-0.599956	0.410156	0.937500	0.011719	361	17_29_16_0021840
0.131836	-0.559570	-0.046875	-0.365598	-0.674951	-0.599956	0.468750	0.925781	0.058594	362	17_29_16_0183130
0.120117	-0.568359	-0.049805	-0.365598	-0.674951	-0.599956	0.515625	0.902344	0.105469	363	17_29_16_0344420
0.137695	-0.556641	-0.049805	-0.365598	-0.674951	-0.599956	0.410156	0.960938	0.105469	364	17_29_16_0505710
0.134766	-0.562500	-0.052734	-0.374973	-0.674951	-0.599956	0.480469	0.925781	0.093750	365	17_29_16_0667000
0.134766	-0.568359	-0.058594	-0.365598	-0.674951	-0.609331	0.445313	0.855469	0.046875	366	17_29_16_0828290
0.131836	-0.559570	-0.055664	-0.365598	-0.665577	-0.609331	0.433594	0.867188	0.046875	367	17_29_16_0989580
0.131836	-0.568359	-0.049805	-0.356224	-0.674951	-0.599956	0.691406	0.902344	0.105469	368	17_29_16_1150870
0.128906	-0.553711	-0.049805	-0.365598	-0.665577	-0.599956	0.433594	0.902344	0.011719	369	17_29_16_1312160
0.131836	-0.568359	-0.055664	-0.365598	-0.665577	-0.599956	0.468750	0.914063	0.023438	370	17_29_16_1473450
0.143555	-0.568359	-0.046875	-0.365598	-0.674951	-0.599956	0.410156	0.925781	0.035156	371	17_29_16_1634740
0.125977	-0.547852	-0.049805	-0.365598	-0.665577	-0.599956	0.421875	0.867188	0.046875	372	17_29_16_1796030
0.128906	-0.568359	-0.043945	-0.365598	-0.674951	-0.599956	0.902344	0.914063	0.363281	373	17_29_16_1957320
0.131836	-0.568359	-0.049805	-0.365598	-0.665577	-0.599956	0.457031	0.925781	0.011719	374	17_29_16_2118610
0.140625	-0.562500	-0.046875	-0.365598	-0.665577	-0.609331	0.445313	0.914063	0.000000	375	17_29_16_2279900
0.128906	-0.568359	-0.052734	-0.365598	-0.665577	-0.599956	0.457031	0.925781	-0.023438	376	17_29_16_2441190
0.128906	-0.559570	-0.046875	-0.365598	-0.665577	-0.599956	0.644531	0.937500	0.035156	377	17_29_16_2602480
0.128906	-0.559570	-0.049805	-0.365598	-0.665577	-0.609331	0.445313	0.914063	0.011719	378	17_29_16_2763770
0.134766	-0.559570	-0.049805	-0.365598	-0.665577	-0.599956	0.480469	0.890625	0.023438	379	17_29_16_2925060
0.125977	-0.565430	-0.046875	-0.365598	-0.665577	-0.599956	0.457031	0.925781	0.011719	380	17_29_16_3086350
0.128906	-0.565430	-0.052734	-0.365598	-0.665577	-0.599956	0.691406	0.925781	0.082031	381	17_29_16_3247640
0.131836	-0.571289	-0.055664	-0.365598	-0.674951	-0.599956	0.421875	0.890625	0.046875	382	17_29_16_3408930
0.131836	-0.565430	-0.043945	-0.374973	-0.674951	-0.599956	0.410156	0.890625	0.011719	383	17_29_16_3570220
0.134766	-0.553711	-0.049805	-0.356224	-0.665577	-0.599956	0.761719	0.855469	0.328125	384	17_29_16_3731510
0.128906	-0.568359	-0.061523	-0.374973	-0.665577	-0.609331	0.410156	0.890625	0.035156	385	17_29_16_3892800
0.134766	-0.553711	-0.043945	-0.365598	-0.665577	-0.599956	0.503906	0.890625	0.035156	386	17_29_16_4054090
0.128906	-0.568359	-0.058594	-0.374973	-0.674951	-0.599956	0.457031	0.914063	0.000000	387	17_29_16_4215380
0.137695	-0.556641	-0.055664	-0.374973	-0.684325	-0.599956	0.468750	0.902344	0.000000	388	17_29_16_4376670
0.146484	-0.562500	-0.049805	-0.374973	-0.665577	-0.599956	0.445313	0.855469	0.035156	389	17_29_16_4537960
0.143555	-0.565430	-0.043945	-0.365598	-0.665577	-0.599956	0.480469	0.867188	0.023438	390	17_29_16_4699250
0.134766	-0.574219	-0.049805	-0.365598	-0.665577	-0.599956	0.433594	0.890625	0.011719	391	17_29_16_4860540
0.137695	-0.568359	-0.049805	-0.365598	-0.665577	-0.609331	0.457031	0.878906	0.035156	392	17_29_16_5021830
0.137695	-0.556641	-0.052734	-0.365598	-0.665577	-0.599956	0.433594	0.832031	0.011719	393	17_29_16_5183120
0.134766	-0.562500	-0.049805	-0.365598	-0.674951	-0.599956	0.445313	0.878906	0.035156	394	17_29_16_5344410
0.123047	-0.568359	-0.046875	-0.365598	-0.674951	-0.609331	0.515625	0.832031	0.515625	395	17_29_16_5505700
0.128906	-0.568359	-0.046875	-0.365598	-0.665577	-0.609331	0.410156	0.878906	0.011719	396	17_29_16_5666990
0.134766	-0.559570	-0.052734	-0.374973	-0.665577	-0.609331	0.421875	0.914063	0.000000	397	17_29_16_5828280
0.125977	-0.559570	-0.046875	-0.365598	-0.665577	-0.599956	0.480469	0.949219	0.058594	398	17_29_16_5989570
0.125977	-0.562500	-0.049805	-0.365598	-0.665577	-0.609331	0.421875	0.867188	0.058594	399	17_29_16_6150860
0.134766	-0.568359	-0.049805	-0.365598	-0.674951	-0.609331	0.445313	0.820313	0.023438	400	17_29_16_6312150
0.134766	-0.565430	-0.052734	-0.356224	-0.674951	-0.609331	0.421875	0.867188	0.023438	401	17_29_16_6473440
0.137695	-0.559570	-0.061523	-0.365598	-0.665577	-0.618705	0.457031	0.890625	0.058594	402	17_29_16_6634730
0.137695	-0.571289	-0.043945	-0.374973	-0.665577	-0.609331	0.410156	0.843750	0.035156	403	17_29_16_6796020
0.125977	-0.559570	-0.061523	-0.374973	-0.656202	-0.618705	0.457031	0.878906	-0.023438	404	17_29_16_6957310
0.128906	-0.562500	-0.049805	-0.374973	-0.665577	-0.618705	0.445313	0.996094	0.023438	405	17_29_16_7118600
0.131836	-0.556641	-0.043945	-0.374973	-0.665577	-0.609331	0.433594	0.914063	0.070313	406	17_29_16_7279890
0.137695	-0.559570	-0.049805	-0.365598	-0.674951	-0.609331	0.410156	0.902344	0.316406	407	17_29_16_7441180
0.131836	-0.568359	-0.049805	-0.365598	-0.665577	-0.609331	0.433594	0.902344	0.035156	408	17_29_16_7602470
0.128906	-0.556641	-0.043945	-0.365598	-0.665577	-0.609331	0.421875	0.878906	0.035156	409	17_29_16_7763760
0.134766	-0.562500	-0.043945	-0.365598	-0.674951	-0.609331	0.433594	0.902344	0.023438	410	17_29_16_7925050
0.131836	-0.565430	-0.049805	-0.365598	-0.674951	-0.609331	0.503906	0.937500	0.046875	411	17_29_16_8086340
0.125977	-0.571289	-0.043945	-0.365598	-0.665577	-0.609331	0.421875	0.914063	0.035156	412	17_29_16_8247630
0.123047	-0.568359	-0.038086	-0.365598	-0.665577	-0.618705	0.421875	0.890625	-0.011719	413	17_29_16_8408920
0.128906	-0.571289	-0.046875	-0.365598	-0.665577	-0.609331	0.468750	0.890625	-0.011719	414	17_29_16_8570210
0.123047	-0.562500	-0.043945	-0.365598	-0.665577	-0.599956	0.433594	0.890625	0.046875	415	17_29_16_8731500
0.123047	-0.562500	-0.041016	-0.374973	-0.674951	-0.599956	0.433594	0.925781	0.105469	416	17_29_16_8892790
0.123047	-0.559570	-0.049805	-0.365598	-0.674951	-0.599956	0.445313	0.902344	0.082031	417	17_29_16_9054080
0.120117	-0.559570	-0.043945	-0.365598	-0.674951	-0.609331	0.410156	0.890625	0.023438	418	17_29_16_9215370
0.123047	-0.571289	-0.049805	-0.365598	-0.674951	-0.599956	0.410156	0.937500	0.046875	419	17_29_16_9376660
0.134766	-0.562500	-0.049805	-0.365598	-0.674951	-0.599956	0.457031	0.902344	0.070313	420	17_29_16_9537950
0.120117	-0.568359	-0.049805	-0.365598	-0.674951	-0.599956	0.410156	0.914063	0.023438	421	17_29_16_9699240
0.131836	-0.568359	-0.055664	-0.365598	-0.674951	-0.599956	0.503906	0.914063	0.046875	422	17_29_16_9860530
0.131836	-0.559570	-0.067383	-0.365598	-0.674951	-0.599956	0.433594	0.820313	0.011719	423	17_29_17_0021820
0.123047	-0.568359	-0.061523	-0.365598	-0.665577	-0.599956	0.457031	0.855469	-0.023438	424	17_29_17_0183110
0.125977	-0.562500	-0.052734	-0.365598	-0.665577	-0.599956	0.410156	0.902344	0.046875	425	17_29_17_0344400
0.123047	-0.574219	-0.046875	-0.374973	-0.665577	-0.599956	0.421875	0.878906	0.058594	426	17_29_17_0505690
0.120117	-0.562500	-0.043945	-0.365598	-0.674951	-0.599956	0.421875	0.867188	-0.011719	427	17_29_17_0666980
0.120117	-0.556641	-0.052734	-0.365598	-0.674951	-0.599956	0.597656	0.925781	-0.011719	428	17_29_17_0828270
0.123047	-0.574219	-0.038086	-0.365598	-0.674951	-0.599956	0.433594	0.878906	-0.023438	429	17_29_17_0989560
0.128906	-0.562500	-0.043945	-0.365598	-0.674951	-0.590582	0.457031	0.867188	0.035156	430	17_29_17_1150850
0.131836	-0.556641	-0.046875	-0.365598	-0.674951	-0.599956	0.421875	0.867188	0.035156	431	17_29_17_1312140
0.125977	-0.556641	-0.043945	-0.356224	-0.674951	-0.599956	0.445313	0.785156	0.011719	432	17_29_17_1473430
0.125977	-0.574219	-0.055664	-0.365598	-0.674951	-0.599956	0.503906	0.890625	0.023438	433	17_29_17_1634720
0.131836	-0.568359	-0.055664	-0.365598	-0.674951	-0.590582	0.445313	0.914063	0.023438	434	17_29_17_1796010
0.134766	-0.562500	-0.046875	-0.365598	-0.684325	-0.590582	0.445313	0.890625	0.011719	435	17_29_17_1957300
0.134766	-0.571289	-0.058594	-0.365598	-0.674951	-0.599956	0.433594	0.878906	0.046875	436	17_29_17_2118590
0.125977	-0.565430	-0.046875	-0.365598	-0.674951	-0.599956	0.597656	0.937500	0.058594	437	17_29_17_2279880
0.125977	-0.568359	-0.049805	-0.365598	-0.674951	-0.599956	0.445313	0.867188	0.023438	438	17_29_17_2441170
0.123047	-0.562500	-0.052734	-0.365598	-0.674951	-0.599956	0.421875	0.832031	-0.023438	439	17_29_17_2602460
0.131836	-0.559570	-0.049805	-0.365598	-0.684325	-0.599956	0.632813	0.890625	0.035156	440	17_29_17_2763750
0.134766	-0.559570	-0.052734	-0.365598	-0.674951	-0.599956	0.480469	0.843750	0.023438	441	17_29_17_2925040
0.143555	-0.565430	-0.043945	-0.365598	-0.674951	-0.599956	0.433594	0.902344	0.011719	442	17_29_17_3086330
0.146484	-0.565430	-0.049805	-0.365598	-0.674951	-0.599956	0.457031	0.914063	0.000000	443	17_29_17_3247620
0.134766	-0.559570	-0.052734	-0.365598	-0.665577	-0.599956	0.445313	0.914063	-0.011719	444	17_29_17_3408910
0.137695	-0.568359	-0.043945	-0.374973	-0.674951	-0.599956	0.433594	0.914063	0.000000	445	17_29_17_3570200
0.137695	-0.556641	-0.052734	-0.365598	-0.674951	-0.599956	0.445313	0.867188	0.035156	446	17_29_17_3731490
0.128906	-0.550781	-0.046875	-0.365598	-0.674951	-0.599956	0.515625	0.890625	0.011719	447	17_29_17_3892780
0.128906	-0.556641	-0.055664	-0.365598	-0.665577	-0.609331	0.468750	0.937500	-0.011719	448	17_29_17_4054070
0.128906	-0.562500	-0.046875	-0.374973	-0.665577	-0.599956	0.480469	0.902344	0.058594	449	17_29_17_4215360
0.131836	-0.565430	-0.043945	-0.365598	-0.674951	-0.599956	0.445313	0.914063	0.000000	450	17_29_17_4376650
0.134766	-0.565430	-0.049805	-0.365598	-0.674951	-0.599956	0.468750	0.902344	0.000000	451	17_29_17_4537940
0.134766	-0.556641	-0.049805	-0.365598	-0.674951	-0.599956	0.457031	0.914063	0.011719	452	17_29_17_4699230
0.134766	-0.568359	-0.043945	-0.365598	-0.674951	-0.599956	0.445313	0.960938	0.011719	453	17_29_17_4860520
0.131836	-0.562500	-0.052734	-0.365598	-0.674951	-0.599956	0.855469	0.960938	0.140625	454	17_29_17_5021810
0.128906	-0.556641	-0.049805	-0.374973	-0.665577	-0.609331	0.445313	0.890625	-0.023438	455	17_29_17_5183100
0.137695	-0.574219	-0.046875	-0.365598	-0.674951	-0.599956	0.492188	0.878906	0.046875	456	17_29_17_5344390
0.128906	-0.568359	-0.046875	-0.374973	-0.665577	-0.609331	0.410156	0.902344	0.035156	457	17_29_17_5505680
0.123047	-0.562500	-0.041016	-0.365598	-0.674951	-0.599956	0.445313	0.878906	0.468750	458	17_29_17_5666970
0.131836	-0.571289	-0.049805	-0.365598	-0.665577	-0.599956	0.421875	0.890625	-0.011719	459	17_29_17_5828260
0.134766	-0.571289	-0.049805	-0.365598	-0.674951	-0.599956	0.433594	0.878906	-0.011719	460	17_29_17_5989550
0.125977	-0.571289	-0.046875	-0.365598	-0.674951	-0.609331	0.410156	0.914063	0.011719	461	17_29_17_6150840
0.137695	-0.559570	-0.049805	-0.365598	-0.674951	-0.599956	0.421875	0.902344	0.000000	462	17_29_17_6312130
0.123047	-0.550781	-0.052734	-0.365598	-0.674951	-0.599956	0.445313	0.937500	0.035156	463	17_29_17_6473420
0.128906	-0.559570	-0.055664	-0.365598	-0.674951	-0.599956	0.445313	0.937500	0.023438	464	17_29_17_6634710
0.125977	-0.568359	-0.043945	-0.365598	-0.674951	-0.599956	0.445313	0.902344	-0.035156	465	17_29_17_6796000
0.131836	-0.562500	-0.061523	-0.365598	-0.665577	-0.599956	0.492188	0.914063	0.000000	466	17_29_17_6957290
0.125977	-0.550781	-0.049805	-0.365598	-0.665577	-0.599956	0.433594	0.855469	-0.011719	467	17_29_17_7118580
0.131836	-0.571289	-0.046875	-0.365598	-0.674951	-0.599956	0.468750	0.867188	-0.046875	468	17_29_17_7279870
0.128906	-0.565430	-0.052734	-0.365598	-0.674951	-0.599956	0.410156	0.855469	0.011719	469	17_29_17_7441160
0.128906	-0.574219	-0.049805	-0.365598	-0.665577	-0.599956	0.480469	0.843750	0.082031	470	17_29_17_7602450
0.137695	-0.568359	-0.043945	-0.365598	-0.674951	-0.590582	0.597656	0.855469	0.117188	471	17_29_17_7763740
0.137695	-0.562500	-0.038086	-0.365598	-0.674951	-0.599956	0.421875	0.890625	0.000000	472	17_29_17_7925030
0.134766	-0.562500	-0.052734	-0.365598	-0.674951	-0.599956	0.457031	0.878906	0.035156	473	17_29_17_8086320
0.128906	-0.562500	-0.052734	-0.374973	-0.674951	-0.599956	0.468750	0.925781	0.046875	474	17_29_17_8247610
0.131836	-0.574219	-0.049805	-0.365598	-0.674951	-0.599956	0.410156	0.902344	0.023438	475	17_29_17_8408900
0.134766	-0.571289	-0.046875	-0.365598	-0.674951	-0.590582	0.445313	0.867188	0.082031	476	17_29_17_8570190
0.123047	-0.568359	-0.035156	-0.365598	-0.674951	-0.599956	0.421875	0.878906	0.023438	477	17_29_17_8731480
0.134766	-0.559570	-0.049805	-0.365598	-0.674951	-0.599956	0.492188	0.914063	-0.023438	478	17_29_17_8892770
0.134766	-0.565430	-0.043945	-0.365598	-0.674951	-0.599956	0.445313	0.914063	0.023438	479	17_29_17_9054060
0.123047	-0.562500	-0.058594	-0.365598	-0.674951	-0.599956	0.433594	0.914063	0.398438	480	17_29_17_9215350
0.134766	-0.571289	-0.049805	-0.365598	-0.674951	-0.599956	0.421875	0.902344	0.058594	481	17_29_17_9376640
0.128906	-0.568359	-0.055664	-0.365598	-0.674951	-0.590582	0.433594	0.890625	0.046875	482	17_29_17_9537930
0.134766	-0.574219	-0.049805	-0.365598	-0.674951	-0.599956	0.457031	0.867188	0.058594	483	17_29_17_9699220
0.134766	-0.565430	-0.055664	-0.365598	-0.674951	-0.599956	0.421875	0.867188	0.000000	484	17_29_17_9860510
0.131836	-0.562500	-0.046875	-0.365598	-0.674951	-0.609331	0.960938	0.890625	0.128906	485	17_29_18_0021800
0.134766	-0.568359	-0.046875	-0.365598	-0.665577	-0.599956	0.445313	0.890625	-0.046875	486	17_29_18_0183090
0.125977	-0.562500	-0.049805	-0.365598	-0.674951	-0.599956	0.457031	0.925781	-0.046875	487	17_29_18_0344380
0.123047	-0.562500	-0.058594	-0.365598	-0.674951	-0.599956	0.843750	0.914063	0.316406	488	17_29_18_0505670
0.128906	-0.556641	-0.046875	-0.365598	-0.674951	-0.599956	0.468750	0.937500	0.000000	489	17_29_18_0666960
0.134766	-0.565430	-0.049805	-0.365598	-0.674951	-0.599956	0.410156	0.914063	0.011719	490	17_29_18_0828250
0.149414	-0.562500	-0.046875	-0.365598	-0.665577	-0.599956	0.457031	0.902344	0.046875	491	17_29_18_0989540
0.143555	-0.556641	-0.064453	-0.365598	-0.665577	-0.599956	0.410156	0.843750	0.000000	492	17_29_18_1150830
0.131836	-0.550781	-0.058594	-0.365598	-0.674951	-0.599956	0.421875	0.902344	0.011719	493	17_29_18_1312120
0.128906	-0.559570	-0.052734	-0.365598	-0.674951	-0.599956	0.750000	0.878906	0.164063	494	17_29_18_1473410
0.134766	-0.547852	-0.049805	-0.365598	-0.674951	-0.609331	0.468750	0.902344	0.011719	495	17_29_18_1634700
0.125977	-0.547852	-0.049805	-0.365598	-0.674951	-0.609331	0.503906	0.937500	-0.011719	496	17_29_18_1795990
0.140625	-0.556641	-0.049805	-0.365598	-0.674951	-0.609331	0.410156	0.878906	0.000000	497	17_29_18_1957280
0.125977	-0.568359	-0.046875	-0.365598	-0.665577	-0.599956	0.878906	0.867188	0.292969	498	17_29_18_2118570
0.125977	-0.565430	-0.049805	-0.365598	-0.665577	-0.599956	0.585938	0.820313	0.445313	499	17_29_18_2279860
0.137695	-0.556641	-0.052734	-0.365598	-0.656202	-0.599956	0.433594	0.867188	0.035156	500	17_29_18_2441150
0.128906	-0.562500	-0.049805	-0.365598	-0.684325	-0.599956	0.410156	0.914063	-0.035156	501	17_29_18_2602440
0.137695	-0.571289	-0.041016	-0.365598	-0.674951	-0.599956	0.738281	0.902344	0.128906	502	17_29_18_2763730
0.131836	-0.562500	-0.043945	-0.365598	-0.674951	-0.599956	0.480469	0.867188	0.000000	503	17_29_18_2925020
0.131836	-0.568359	-0.046875	-0.365598	-0.665577	-0.599956	0.480469	0.867188	0.000000	504	17_29_18_3086310
0.128906	-0.562500	-0.049805	-0.365598	-0.674951	-0.599956	0.421875	0.878906	0.011719	505	17_29_18_3247600
0.134766	-0.559570	-0.049805	-0.365598	-0.674951	-0.599956	0.421875	0.890625	0.070313	506	17_29_18_3408890
0.134766	-0.571289	-0.049805	-0.365598	-0.674951	-0.599956	0.468750	0.914063	0.070313	507	17_29_18_3570180
0.134766	-0.568359	-0.049805	-0.365598	-0.665577	-0.599956	1.031250	0.902344	0.328125	508	17_29_18_3731470
0.134766	-0.565430	-0.049805	-0.365598	-0.674951	-0.599956	0.445313	0.902344	0.035156	509	17_29_18_3892760
0.125977	-0.565430	-0.049805	-0.365598	-0.674951	-0.599956	0.375000	0.878906	0.046875	510	17_29_18_4054050
0.123047	-0.568359	-0.049805	-0.365598	-0.674951	-0.599956	0.585938	0.902344	0.082031	511	17_29_18_4215340
0.123047	-0.562500	-0.046875	-0.365598	-0.674951	-0.599956	0.445313	0.832031	0.035156	512	17_29_18_4376630
0.128906	-0.559570	-0.043945	-0.365598	-0.674951	-0.599956	0.433594	0.843750	0.058594	513	17_29_18_4537920
0.128906	-0.559570	-0.052734	-0.365598	-0.674951	-0.599956	0.421875	0.960938	0.070313	514	17_29_18_4699210
0.120117	-0.568359	-0.049805	-0.365598	-0.674951	-0.599956	0.585938	0.937500	0.093750	515	17_29_18_4860500
0.134766	-0.562500	-0.052734	-0.365598	-0.674951	-0.599956	0.410156	0.878906	0.011719	516	17_29_18_5021790
0.131836	-0.556641	-0.049805	-0.365598	-0.665577	-0.599956	0.445313	0.878906	-0.023438	517	17_29_18_5183080
0.125977	-0.559570	-0.052734	-0.365598	-0.674951	-0.599956	0.421875	0.867188	0.035156	518	17_29_18_5344370
0.125977	-0.556641	-0.046875	-0.365598	-0.674951	-0.599956	0.843750	0.902344	0.199219	519	17_29_18_5505660
0.134766	-0.559570	-0.049805	-0.365598	-0.674951	-0.599956	0.480469	0.867188	0.046875	520	17_29_18_5666950
0.128906	-0.559570	-0.049805	-0.365598	-0.674951	-0.599956	0.421875	0.890625	0.468750	521	17_29_18_5828240
0.137695	-0.571289	-0.049805	-0.365598	-0.674951	-0.599956	0.457031	0.867188	0.011719	522	17_29_18_5989530
0.128906	-0.571289	-0.049805	-0.365598	-0.674951	-0.599956	0.480469	0.914063	-0.011719	523	17_29_18_6150820
0.125977	-0.562500	-0.046875	-0.365598	-0.665577	-0.599956	0.433594	0.890625	0.011719	524	17_29_18_6312110
0.134766	-0.565430	-0.049805	-0.365598	-0.674951	-0.599956	0.433594	0.914063	0.105469	525	17_29_18_6473400
0.131836	-0.565430	-0.058594	-0.365598	-0.674951	-0.599956	0.457031	0.914063	0.058594	526	17_29_18_6634690
0.140625	-0.562500	-0.052734	-0.365598	-0.674951	-0.599956	0.433594	0.902344	-0.023438	527	17_29_18_6795980
0.128906	-0.562500	-0.046875	-0.374973	-0.674951	-0.599956	0.457031	0.937500	-0.011719	528	17_29_18_6957270
0.134766	-0.562500	-0.061523	-0.356224	-0.674951	-0.599956	0.925781	0.855469	0.234375	529	17_29_18_7118560
0.125977	-0.568359	-0.055664	-0.365598	-0.674951	-0.599956	0.433594	0.890625	-0.058594	530	17_29_18_7279850
0.134766	-0.568359	-0.055664	-0.365598	-0.674951	-0.599956	0.410156	0.937500	-0.058594	531	17_29_18_7441140
0.137695	-0.556641	-0.058594	-0.365598	-0.674951	-0.599956	0.410156	0.867188	-0.023438	532	17_29_18_7602430
0.137695	-0.556641	-0.046875	-0.365598	-0.665577	-0.599956	0.421875	0.855469	0.000000	533	17_29_18_7763720
0.128906	-0.553711	-0.043945	-0.365598	-0.665577	-0.599956	0.433594	0.890625	0.023438	534	17_29_18_7925010
0.125977	-0.562500	-0.055664	-0.365598	-0.674951	-0.609331	0.445313	0.878906	0.035156	535	17_29_18_8086300
0.131836	-0.562500	-0.049805	-0.374973	-0.674951	-0.599956	0.457031	0.902344	-0.011719	536	17_29_18_8247590
0.140625	-0.559570	-0.046875	-0.374973	-0.674951	-0.599956	0.503906	0.902344	0.000000	537	17_29_18_8408880
0.131836	-0.568359	-0.043945	-0.365598	-0.674951	-0.599956	1.078125	0.820313	0.234375	538	17_29_18_8570170
0.137695	-0.544922	-0.049805	-0.365598	-0.674951	-0.609331	0.445313	0.832031	0.046875	539	17_29_18_8731460
0.140625	-0.553711	-0.055664	-0.365598	-0.674951	-0.599956	0.820313	0.914063	0.375000	540	17_29_18_8892750
0.137695	-0.565430	-0.058594	-0.365598	-0.674951	-0.599956	0.503906	0.914063	0.457031	541	17_29_18_9054040
0.131836	-0.568359	-0.052734	-0.365598	-0.665577	-0.599956	0.410156	0.925781	-0.011719	542	17_29_18_9215330
0.131836	-0.565430	-0.043945	-0.356224	-0.674951	-0.599956	0.433594	0.843750	0.269531	543	17_29_18_9376620
0.137695	-0.562500	-0.049805	-0.365598	-0.674951	-0.599956	0.433594	0.820313	0.011719	544	17_29_18_9537910
0.123047	-0.574219	-0.052734	-0.365598	-0.674951	-0.599956	0.433594	0.867188	-0.023438	545	17_29_18_9699200
0.125977	-0.556641	-0.043945	-0.365598	-0.674951	-0.609331	0.421875	0.890625	0.011719	546	17_29_18_9860490
0.143555	-0.565430	-0.049805	-0.374973	-0.674951	-0.599956	0.433594	0.890625	0.011719	547	17_29_19_0021780
0.134766	-0.568359	-0.049805	-0.365598	-0.674951	-0.599956	0.457031	0.902344	0.000000	548	17_29_19_0183070
0.125977	-0.556641	-0.055664	-0.365598	-0.674951	-0.599956	0.445313	0.925781	-0.035156	549	17_29_19_0344360
0.137695	-0.568359	-0.058594	-0.374973	-0.674951	-0.599956	0.480469	0.914063	-0.023438	550	17_29_19_0505650
0.134766	-0.574219	-0.055664	-0.365598	-0.674951	-0.599956	0.457031	0.960938	0.023438	551	17_29_19_0666940
0.134766	-0.565430	-0.049805	-0.365598	-0.656202	-0.599956	0.433594	0.914063	0.011719	552	17_29_19_0828230
0.125977	-0.550781	-0.049805	-0.365598	-0.674951	-0.609331	0.562500	0.867188	0.363281	553	17_29_19_0989520
0.134766	-0.553711	-0.038086	-0.356224	-0.674951	-0.599956	0.457031	0.925781	0.011719	554	17_29_19_1150810
0.128906	-0.562500	-0.046875	-0.365598	-0.684325	-0.599956	0.421875	0.937500	0.000000	555	17_29_19_1312100
0.123047	-0.559570	-0.046875	-0.365598	-0.674951	-0.609331	0.492188	0.972656	0.011719	556	17_29_19_1473390
0.134766	-0.565430	-0.049805	-0.365598	-0.665577	-0.609331	0.468750	0.914063	0.011719	557	17_29_19_1634680
0.143555	-0.562500	-0.055664	-0.365598	-0.665577	-0.599956	0.445313	0.878906	0.035156	558	17_29_19_1795970
0.128906	-0.562500	-0.049805	-0.365598	-0.665577	-0.609331	0.457031	0.867188	0.035156	559	17_29_19_1957260
0.134766	-0.559570	-0.049805	-0.365598	-0.665577	-0.609331	0.445313	0.914063	0.011719	560	17_29_19_2118550
0.134766	-0.562500	-0.058594	-0.365598	-0.674951	-0.599956	0.433594	0.890625	0.035156	561	17_29_19_2279840
0.123047	-0.562500	-0.038086	-0.365598	-0.665577	-0.599956	0.480469	0.937500	0.035156	562	17_29_19_2441130
0.128906	-0.562500	-0.049805	-0.374973	-0.674951	-0.599956	0.480469	0.937500	0.000000	563	17_29_19_2602420
0.131836	-0.568359	-0.049805	-0.365598	-0.665577	-0.599956	0.468750	0.925781	0.058594	564	17_29_19_2763710
0.134766	-0.556641	-0.055664	-0.365598	-0.674951	-0.599956	0.433594	0.914063	0.070313	565	17_29_19_2925000
0.128906	-0.559570	-0.046875	-0.365598	-0.674951	-0.599956	0.410156	0.937500	0.035156	566	17_29_19_3086290
0.137695	-0.556641	-0.049805	-0.365598	-0.674951	-0.609331	0.457031	0.890625	0.035156	567	17_29_19_3247580
0.137695	-0.562500	-0.043945	-0.365598	-0.674951	-0.599956	0.832031	0.890625	0.187500	568	17_29_19_3408870
0.120117	-0.568359	-0.055664	-0.365598	-0.665577	-0.609331	0.902344	0.937500	0.222656	569	17_29_19_3570160
0.120117	-0.565430	-0.049805	-0.365598	-0.674951	-0.599956	0.492188	0.925781	0.035156	570	17_29_19_3731450
0.131836	-0.556641	-0.046875	-0.365598	-0.665577	-0.599956	0.503906	0.937500	0.035156	571	17_29_19_3892740
0.134766	-0.562500	-0.052734	-0.365598	-0.674951	-0.599956	0.679688	0.960938	0.468750	572	17_29_19_4054030
0.128906	-0.562500	-0.052734	-0.365598	-0.665577	-0.599956	0.433594	1.007813	-0.011719	573	17_29_19_4215320
0.140625	-0.562500	-0.055664	-0.374973	-0.674951	-0.609331	0.410156	0.949219	-0.058594	574	17_29_19_4376610
0.128906	-0.565430	-0.046875	-0.365598	-0.674951	-0.599956	0.457031	0.902344	-0.046875	575	17_29_19_4537900
0.128906	-0.556641	-0.049805	-0.365598	-0.674951	-0.599956	0.445313	0.890625	-0.011719	576	17_29_19_4699190
0.128906	-0.562500	-0.058594	-0.365598	-0.674951	-0.599956	0.433594	0.890625	0.035156	577	17_29_19_4860480
0.131836	-0.571289	-0.049805	-0.365598	-0.674951	-0.599956	0.445313	0.960938	0.046875	578	17_29_19_5021770
0.128906	-0.562500	-0.058594	-0.365598	-0.674951	-0.599956	0.468750	0.914063	0.023438	579	17_29_19_5183060
0.125977	-0.559570	-0.043945	-0.365598	-0.674951	-0.599956	0.457031	0.890625	0.035156	580	17_29_19_5344350
0.134766	-0.559570	-0.052734	-0.365598	-0.674951	-0.609331	0.457031	0.890625	-0.011719	581	17_29_19_5505640
0.131836	-0.559570	-0.046875	-0.365598	-0.665577	-0.609331	0.492188	0.890625	0.011719	582	17_29_19_5666930
0.131836	-0.556641	-0.046875	-0.365598	-0.674951	-0.609331	0.457031	0.855469	-0.011719	583	17_29_19_5828220
0.128906	-0.565430	-0.041016	-0.365598	-0.674951	-0.599956	0.433594	0.914063	0.000000	584	17_29_19_5989510
0.131836	-0.562500	-0.055664	-0.374973	-0.674951	-0.609331	0.445313	0.902344	0.058594	585	17_29_19_6150800
0.134766	-0.568359	-0.052734	-0.365598	-0.674951	-0.599956	0.433594	0.890625	0.035156	586	17_29_19_6312090
0.140625	-0.565430	-0.046875	-0.365598	-0.674951	-0.599956	0.457031	0.890625	0.000000	587	17_29_19_6473380
0.128906	-0.571289	-0.046875	-0.374973	-0.674951	-0.599956	0.421875	0.890625	0.046875	588	17_29_19_6634670
0.128906	-0.559570	-0.055664	-0.365598	-0.674951	-0.599956	0.492188	0.890625	0.070313	589	17_29_19_6795960
0.134766	-0.559570	-0.052734	-0.365598	-0.674951	-0.599956	0.410156	0.832031	0.000000	590	17_29_19_6957250
0.125977	-0.559570	-0.052734	-0.374973	-0.674951	-0.599956	0.714844	0.878906	0.140625	591	17_29_19_7118540
0.123047	-0.559570	-0.041016	-0.365598	-0.674951	-0.599956	0.960938	0.925781	0.375000	592	17_29_19_7279830
0.123047	-0.550781	-0.049805	-0.365598	-0.674951	-0.599956	0.539063	0.878906	0.445313	593	17_29_19_7441120
0.128906	-0.562500	-0.052734	-0.365598	-0.665577	-0.599956	0.445313	0.867188	0.011719	594	17_29_19_7602410
0.140625	-0.568359	-0.055664	-0.365598	-0.674951	-0.599956	0.421875	0.867188	0.000000	595	17_29_19_7763700
0.134766	-0.556641	-0.046875	-0.365598	-0.674951	-0.609331	0.410156	0.914063	0.011719	596	17_29_19_7924990
0.134766	-0.568359	-0.052734	-0.365598	-0.674951	-0.599956	0.621094	0.960938	0.035156	597	17_29_19_8086280
0.134766	-0.568359	-0.046875	-0.365598	-0.674951	-0.599956	0.492188	0.878906	-0.023438	598	17_29_19_8247570
0.140625	-0.562500	-0.055664	-0.365598	-0.674951	-0.599956	0.468750	0.843750	0.035156	599	17_29_19_8408860
0.146484	-0.562500	-0.043945	-0.365598	-0.665577	-0.599956	0.457031	0.914063	0.082031	600	17_29_19_8570150
0.140625	-0.559570	-0.055664	-0.365598	-0.674951	-0.609331	0.492188	0.914063	0.058594	601	17_29_19_8731440
0.123047	-0.565430	-0.055664	-0.374973	-0.674951	-0.599956	0.445313	0.914063	0.023438	602	17_29_19_8892730
0.123047	-0.559570	-0.049805	-0.365598	-0.674951	-0.599956	0.445313	0.937500	0.046875	603	17_29_19_9054020
0.137695	-0.565430	-0.061523	-0.365598	-0.674951	-0.599956	0.410156	0.890625	0.011719	604	17_29_19_9215310
0.134766	-0.562500	-0.049805	-0.365598	-0.674951	-0.599956	0.433594	0.914063	-0.011719	605	17_29_19_9376600
0.134766	-0.562500	-0.055664	-0.365598	-0.674951	-0.609331	0.492188	0.843750	0.011719	606	17_29_19_9537890
0.123047	-0.574219	-0.049805	-0.365598	-0.665577	-0.599956	0.433594	0.902344	0.023438	607	17_29_19_9699180
0.123047	-0.559570	-0.055664	-0.365598	-0.684325	-0.609331	0.421875	0.937500	0.058594	608	17_29_19_9860470
0.125977	-0.562500	-0.043945	-0.365598	-0.674951	-0.599956	0.457031	0.937500	0.035156	609	17_29_20_0021760
0.131836	-0.565430	-0.046875	-0.365598	-0.674951	-0.599956	0.445313	0.925781	0.000000	610	17_29_20_0183050
0.128906	-0.559570	-0.049805	-0.365598	-0.674951	-0.599956	0.421875	0.925781	0.000000	611	17_29_20_0344340
0.131836	-0.559570	-0.049805	-0.365598	-0.665577	-0.609331	0.445313	0.925781	0.035156	612	17_29_20_0505630
0.128906	-0.562500	-0.049805	-0.365598	-0.674951	-0.599956	0.433594	0.878906	0.035156	613	17_29_20_0666920
0.140625	-0.568359	-0.058594	-0.365598	-0.674951	-0.599956	0.410156	0.914063	0.000000	614	17_29_20_0828210
0.131836	-0.559570	-0.049805	-0.365598	-0.674951	-0.599956	0.410156	0.925781	0.023438	615	17_29_20_0989500
0.131836	-0.565430	-0.049805	-0.365598	-0.674951	-0.599956	0.445313	0.867188	0.000000	616	17_29_20_1150790
0.125977	-0.571289	-0.046875	-0.365598	-0.674951	-0.599956	0.480469	0.878906	-0.011719	617	17_29_20_1312080
0.134766	-0.556641	-0.046875	-0.365598	-0.674951	-0.609331	0.480469	0.890625	0.023438	618	17_29_20_1473370
0.131836	-0.568359	-0.046875	-0.365598	-0.674951	-0.609331	0.457031	0.867188	0.023438	619	17_29_20_1634660
0.134766	-0.568359	-0.046875	-0.365598	-0.684325	-0.599956	0.410156	0.914063	0.035156	620	17_29_20_1795950
0.120117	-0.559570	-0.046875	-0.365598	-0.665577	-0.599956	0.421875	0.925781	0.023438	621	17_29_20_1957240
0.134766	-0.562500	-0.055664	-0.365598	-0.674951	-0.599956	0.433594	0.937500	-0.011719	622	17_29_20_2118530
0.123047	-0.571289	-0.049805	-0.365598	-0.674951	-0.590582	0.433594	0.890625	-0.023438	623	17_29_20_2279820
0.123047	-0.568359	-0.052734	-0.365598	-0.674951	-0.599956	0.468750	0.867188	0.023438	624	17_29_20_2441110
0.123047	-0.585938	-0.058594	-0.365598	-0.674951	-0.609331	0.433594	0.867188	0.492188	625	17_29_20_2602400
0.134766	-0.568359	-0.055664	-0.365598	-0.674951	-0.599956	0.445313	0.902344	-0.011719	626	17_29_20_2763690
0.134766	-0.559570	-0.043945	-0.365598	-0.674951	-0.599956	0.457031	0.890625	-0.011719	627	17_29_20_2924980
0.123047	-0.565430	-0.046875	-0.365598	-0.665577	-0.609331	0.433594	0.867188	0.000000	628	17_29_20_3086270
0.123047	-0.562500	-0.049805	-0.365598	-0.665577	-0.599956	0.468750	0.867188	0.000000	629	17_29_20_3247560
0.123047	-0.559570	-0.043945	-0.365598	-0.674951	-0.599956	0.468750	0.902344	0.011719	630	17_29_20_3408850
0.134766	-0.559570	-0.043945	-0.365598	-0.684325	-0.609331	0.421875	0.890625	0.035156	631	17_29_20_3570140
0.125977	-0.568359	-0.058594	-0.365598	-0.674951	-0.599956	0.468750	0.914063	0.000000	632	17_29_20_3731430
0.134766	-0.571289	-0.052734	-0.365598	-0.674951	-0.599956	0.410156	0.937500	-0.023438	633	17_29_20_3892720
0.140625	-0.565430	-0.055664	-0.365598	-0.665577	-0.599956	0.785156	0.937500	0.386719	634	17_29_20_4054010
0.134766	-0.568359	-0.043945	-0.365598	-0.674951	-0.599956	0.410156	0.902344	0.035156	635	17_29_20_4215300
0.131836	-0.550781	-0.043945	-0.365598	-0.674951	-0.599956	0.550781	0.925781	0.386719	636	17_29_20_4376590
0.117188	-0.565430	-0.049805	-0.365598	-0.665577	-0.599956	0.457031	0.937500	0.000000	637	17_29_20_4537880
0.131836	-0.565430	-0.055664	-0.365598	-0.665577	-0.599956	0.457031	0.878906	0.023438	638	17_29_20_4699170
0.131836	-0.559570	-0.049805	-0.365598	-0.674951	-0.599956	0.433594	0.890625	0.023438	639	17_29_20_4860460
0.120117	-0.559570	-0.038086	-0.374973	-0.674951	-0.599956	0.410156	0.820313	0.046875	640	17_29_20_5021750
0.134766	-0.559570	-0.052734	-0.374973	-0.665577	-0.599956	0.503906	0.867188	0.070313	641	17_29_20_5183040
0.131836	-0.550781	-0.055664	-0.365598	-0.674951	-0.599956	0.410156	0.914063	0.035156	642	17_29_20_5344330
0.134766	-0.562500	-0.055664	-0.365598	-0.684325	-0.590582	0.726563	0.785156	0.140625	643	17_29_20_5505620
0.134766	-0.559570	-0.046875	-0.356224	-0.674951	-0.599956	0.410156	0.773438	0.011719	644	17_29_20_5666910
0.134766	-0.559570	-0.055664	-0.365598	-0.665577	-0.599956	0.410156	0.843750	0.011719	645	17_29_20_5828200
0.131836	-0.565430	-0.052734	-0.365598	-0.665577	-0.599956	0.410156	0.914063	0.035156	646	17_29_20_5989490
0.131836	-0.562500	-0.035156	-0.365598	-0.674951	-0.609331	0.468750	0.914063	0.304688	647	17_29_20_6150780
0.134766	-0.553711	-0.046875	-0.365598	-0.674951	-0.599956	0.457031	0.914063	-0.058594	648	17_29_20_6312070
0.128906	-0.559570	-0.043945	-0.365598	-0.665577	-0.599956	0.410156	0.937500	0.000000	649	17_29_20_6473360
0.137695	-0.562500	-0.049805	-0.365598	-0.674951	-0.599956	0.457031	0.914063	0.070313	650	17_29_20_6634650
0.134766	-0.574219	-0.052734	-0.365598	-0.665577	-0.609331	0.480469	0.878906	0.035156	651	17_29_20_6795940
0.140625	-0.556641	-0.049805	-0.374973	-0.656202	-0.599956	0.433594	0.878906	-0.023438	652	17_29_20_6957230
0.131836	-0.556641	-0.043945	-0.365598	-0.665577	-0.599956	0.410156	0.902344	0.023438	653	17_29_20_7118520
0.128906	-0.562500	-0.058594	-0.365598	-0.674951	-0.599956	0.421875	0.914063	0.000000	654	17_29_20_7279810
0.131836	-0.565430	-0.038086	-0.384347	-0.674951	-0.599956	0.457031	0.925781	-0.035156	655	17_29_20_7441100
0.128906	-0.556641	-0.043945	-0.365598	-0.674951	-0.609331	0.562500	0.914063	0.035156	656	17_29_20_7602390
0.125977	-0.565430	-0.049805	-0.365598	-0.684325	-0.609331	0.445313	0.937500	0.023438	657	17_29_20_7763680
0.128906	-0.559570	-0.052734	-0.365598	-0.665577	-0.599956	0.433594	0.925781	-0.058594	658	17_29_20_7924970
0.131836	-0.559570	-0.046875	-0.365598	-0.674951	-0.599956	0.421875	0.914063	-0.035156	659	17_29_20_8086260
0.114258	-0.559570	-0.052734	-0.365598	-0.674951	-0.590582	0.562500	0.960938	0.035156	660	17_29_20_8247550
0.123047	-0.559570	-0.043945	-0.365598	-0.674951	-0.609331	0.421875	0.937500	0.000000	661	17_29_20_8408840
0.128906	-0.565430	-0.049805	-0.365598	-0.674951	-0.599956	0.867188	0.878906	0.152344	662	17_29_20_8570130
0.134766	-0.562500	-0.049805	-0.365598	-0.674951	-0.609331	0.433594	0.914063	-0.011719	663	17_29_20_8731420
0.123047	-0.568359	-0.052734	-0.365598	-0.674951	-0.599956	0.515625	0.902344	0.011719	664	17_29_20_8892710
0.125977	-0.568359	-0.049805	-0.365598	-0.674951	-0.599956	0.480469	0.890625	0.046875	665	17_29_20_9054000
0.134766	-0.565430	-0.052734	-0.365598	-0.674951	-0.599956	0.410156	0.867188	0.023438	666	17_29_20_9215290
0.137695	-0.562500	-0.046875	-0.365598	-0.674951	-0.599956	0.421875	0.890625	0.023438	667	17_29_20_9376580
0.137695	-0.562500	-0.041016	-0.365598	-0.665577	-0.599956	0.433594	0.902344	-0.011719	668	17_29_20_9537870
0.134766	-0.562500	-0.067383	-0.365598	-0.674951	-0.599956	0.445313	0.949219	0.000000	669	17_29_20_9699160
0.128906	-0.571289	-0.055664	-0.365598	-0.674951	-0.599956	0.433594	0.902344	0.000000	670	17_29_20_9860450
0.140625	-0.553711	-0.043945	-0.374973	-0.674951	-0.609331	0.433594	0.867188	0.023438	671	17_29_21_0021740
0.128906	-0.559570	-0.049805	-0.365598	-0.674951	-0.599956	0.421875	0.855469	0.035156	672	17_29_21_0183030
0.131836	-0.559570	-0.046875	-0.365598	-0.665577	-0.609331	0.949219	0.878906	0.175781	673	17_29_21_0344320
0.128906	-0.559570	-0.043945	-0.365598	-0.674951	-0.599956	0.421875	0.937500	0.023438	674	17_29_21_0505610
0.131836	-0.568359	-0.055664	-0.365598	-0.674951	-0.599956	0.480469	0.878906	0.058594	675	17_29_21_0666900
0.137695	-0.565430	-0.049805	-0.365598	-0.674951	-0.599956	0.445313	0.914063	0.000000	676	17_29_21_0828190
0.131836	-0.562500	-0.046875	-0.374973	-0.674951	-0.599956	0.433594	1.007813	-0.058594	677	17_29_21_0989480
0.131836	-0.568359	-0.046875	-0.365598	-0.674951	-0.599956	0.410156	0.925781	0.011719	678	17_29_21_1150770
0.134766	-0.562500	-0.064453	-0.365598	-0.674951	-0.599956	0.550781	0.855469	0.257813	679	17_29_21_1312060
0.143555	-0.568359	-0.049805	-0.365598	-0.674951	-0.599956	0.410156	0.902344	0.046875	680	17_29_21_1473350
0.128906	-0.568359	-0.058594	-0.365598	-0.674951	-0.599956	0.433594	0.925781	0.035156	681	17_29_21_1634640
0.131836	-0.562500	-0.046875	-0.365598	-0.665577	-0.599956	0.503906	0.949219	0.058594	682	17_29_21_1795930
0.125977	-0.559570	-0.043945	-0.365598	-0.674951	-0.599956	0.445313	0.925781	0.046875	683	17_29_21_1957220
0.125977	-0.562500	-0.049805	-0.365598	-0.665577	-0.609331	0.433594	0.914063	0.035156	684	17_29_21_2118510
0.134766	-0.568359	-0.055664	-0.365598	-0.674951	-0.599956	0.468750	0.855469	0.000000	685	17_29_21_2279800
0.128906	-0.565430	-0.055664	-0.365598	-0.665577	-0.599956	0.492188	0.843750	0.000000	686	17_29_21_2441090
0.123047	-0.565430	-0.049805	-0.365598	-0.674951	-0.599956	0.445313	0.890625	0.046875	687	17_29_21_2602380
0.131836	-0.568359	-0.052734	-0.365598	-0.674951	-0.599956	0.445313	0.878906	-0.011719	688	17_29_21_2763670
0.137695	-0.568359	-0.052734	-0.356224	-0.674951	-0.599956	0.433594	0.867188	-0.023438	689	17_29_21_2924960
0.140625	-0.571289	-0.043945	-0.365598	-0.674951	-0.599956	0.433594	0.937500	0.035156	690	17_29_21_3086250
0.131836	-0.562500	-0.052734	-0.365598	-0.674951	-0.599956	0.445313	0.890625	0.000000	691	17_29_21_3247540
0.131836	-0.565430	-0.055664	-0.365598	-0.674951	-0.609331	0.433594	0.902344	-0.046875	692	17_29_21_3408830
0.120117	-0.565430	-0.046875	-0.365598	-0.674951	-0.599956	0.433594	0.937500	-0.011719	693	17_29_21_3570120
0.128906	-0.562500	-0.055664	-0.365598	-0.674951	-0.599956	0.457031	0.878906	0.035156	694	17_29_21_3731410
0.123047	-0.565430	-0.049805	-0.365598	-0.674951	-0.599956	0.421875	0.902344	0.058594	695	17_29_21_3892700
0.131836	-0.562500	-0.061523	-0.365598	-0.674951	-0.599956	0.878906	0.937500	0.316406	696	17_29_21_4053990
0.125977	-0.565430	-0.049805	-0.365598	-0.665577	-0.599956	0.492188	0.914063	-0.035156	697	17_29_21_4215280
0.120117	-0.559570	-0.046875	-0.365598	-0.674951	-0.599956	0.421875	0.890625	-0.035156	698	17_29_21_4376570
0.131836	-0.562500	-0.055664	-0.356224	-0.674951	-0.599956	0.410156	0.843750	0.011719	699	17_29_21_4537860
0.134766	-0.556641	-0.046875	-0.365598	-0.674951	-0.599956	0.457031	0.820313	0.023438	700	17_29_21_4699150
0.128906	-0.568359	-0.052734	-0.365598	-0.665577	-0.599956	0.433594	0.878906	0.035156	701	17_29_21_4860440
0.128906	-0.568359	-0.052734	-0.365598	-0.674951	-0.599956	0.410156	0.890625	0.046875	702	17_29_21_5021730
0.137695	-0.565430	-0.061523	-0.365598	-0.674951	-0.599956	0.410156	0.937500	0.046875	703	17_29_21_5183020
0.134766	-0.562500	-0.055664	-0.365598	-0.674951	-0.599956	0.421875	0.902344	0.058594	704	17_29_21_5344310
0.137695	-0.556641	-0.052734	-0.365598	-0.665577	-0.609331	0.457031	0.914063	0.093750	705	17_29_21_5505600
0.125977	-0.562500	-0.049805	-0.365598	-0.665577	-0.609331	0.410156	0.937500	0.070313	706	17_29_21_5666890
0.134766	-0.571289	-0.046875	-0.365598	-0.665577	-0.599956	0.457031	0.937500	0.046875	707	17_29_21_5828180
0.134766	-0.556641	-0.055664	-0.365598	-0.665577	-0.609331	0.457031	0.902344	0.480469	708	17_29_21_5989470
0.134766	-0.568359	-0.052734	-0.365598	-0.665577	-0.599956	0.433594	0.937500	0.035156	709	17_29_21_6150760
0.134766	-0.574219	-0.046875	-0.374973	-0.665577	-0.609331	0.468750	0.914063	0.023438	710	17_29_21_6312050
0.134766	-0.568359	-0.055664	-0.374973	-0.674951	-0.599956	0.445313	0.867188	0.046875	711	17_29_21_6473340
0.134766	-0.562500	-0.046875	-0.365598	-0.665577	-0.599956	0.644531	0.867188	0.105469	712	17_29_21_6634630
0.134766	-0.571289	-0.052734	-0.365598	-0.665577	-0.590582	0.421875	0.902344	0.000000	713	17_29_21_6795920
0.131836	-0.571289	-0.052734	-0.356224	-0.665577	-0.599956	0.433594	0.902344	0.046875	714	17_29_21_6957210
0.140625	-0.574219	-0.058594	-0.365598	-0.665577	-0.599956	0.457031	0.972656	0.058594	715	17_29_21_7118500
0.137695	-0.556641	-0.043945	-0.374973	-0.674951	-0.599956	0.457031	0.960938	-0.023438	716	17_29_21_7279790
0.128906	-0.568359	-0.049805	-0.365598	-0.665577	-0.599956	0.492188	0.902344	0.023438	717	17_29_21_7441080
0.125977	-0.559570	-0.055664	-0.365598	-0.665577	-0.609331	0.656250	0.878906	0.539063	718	17_29_21_7602370
0.125977	-0.559570	-0.043945	-0.365598	-0.674951	-0.599956	0.445313	0.855469	0.035156	719	17_29_21_7763660
0.134766	-0.556641	-0.055664	-0.374973	-0.674951	-0.599956	0.421875	0.820313	0.058594	720	17_29_21_7924950
0.123047	-0.553711	-0.055664	-0.365598	-0.674951	-0.609331	0.433594	0.878906	0.117188	721	17_29_21_8086240
0.137695	-0.565430	-0.052734	-0.365598	-0.674951	-0.599956	0.410156	0.867188	0.035156	722	17_29_21_8247530
0.134766	-0.568359	-0.052734	-0.374973	-0.665577	-0.599956	0.445313	0.914063	0.035156	723	17_29_21_8408820
0.137695	-0.565430	-0.046875	-0.365598	-0.665577	-0.609331	0.457031	0.914063	0.035156	724	17_29_21_8570110
0.137695	-0.568359	-0.043945	-0.365598	-0.665577	-0.609331	0.421875	0.925781	0.046875	725	17_29_21_8731400
0.120117	-0.550781	-0.046875	-0.365598	-0.674951	-0.599956	0.445313	0.925781	0.023438	726	17_29_21_8892690
0.131836	-0.556641	-0.052734	-0.365598	-0.665577	-0.599956	0.468750	0.878906	0.000000	727	17_29_21_9053980
0.125977	-0.556641	-0.061523	-0.365598	-0.665577	-0.599956	0.773438	0.937500	0.328125	728	17_29_21_9215270
0.123047	-0.565430	-0.052734	-0.365598	-0.665577	-0.609331	0.445313	0.890625	0.000000	729	17_29_21_9376560
0.123047	-0.568359	-0.049805	-0.365598	-0.665577	-0.609331	0.457031	0.902344	0.023438	730	17_29_21_9537850
0.131836	-0.553711	-0.052734	-0.374973	-0.674951	-0.609331	0.410156	0.949219	0.046875	731	17_29_21_9699140
0.128906	-0.562500	-0.055664	-0.365598	-0.674951	-0.599956	0.621094	0.937500	0.082031	732	17_29_21_9860430
0.140625	-0.568359	-0.046875	-0.365598	-0.674951	-0.599956	0.421875	0.925781	0.023438	733	17_29_22_0021720
0.140625	-0.562500	-0.046875	-0.365598	-0.674951	-0.609331	0.902344	0.925781	0.164063	734	17_29_22_0183010
0.131836	-0.568359	-0.049805	-0.365598	-0.665577	-0.599956	0.468750	0.902344	0.035156	735	17_29_22_0344300
0.131836	-0.565430	-0.043945	-0.365598	-0.665577	-0.599956	0.421875	0.855469	0.058594	736	17_29_22_0505590
0.131836	-0.565430	-0.055664	-0.365598	-0.674951	-0.609331	0.445313	0.855469	0.035156	737	17_29_22_0666880
0.128906	-0.556641	-0.055664	-0.365598	-0.684325	-0.599956	0.445313	0.878906	0.046875	738	17_29_22_0828170
0.134766	-0.559570	-0.058594	-0.374973	-0.674951	-0.599956	0.468750	0.843750	0.011719	739	17_29_22_0989460
0.137695	-0.559570	-0.046875	-0.374973	-0.684325	-0.599956	0.410156	0.867188	-0.023438	740	17_29_22_1150750
0.131836	-0.562500	-0.046875	-0.374973	-0.674951	-0.599956	0.421875	0.867188	0.011719	741	17_29_22_1312040
0.134766	-0.559570	-0.061523	-0.365598	-0.674951	-0.609331	0.445313	0.890625	0.011719	742	17_29_22_1473330
0.123047	-0.562500	-0.055664	-0.374973	-0.674951	-0.599956	0.457031	0.902344	0.000000	743	17_29_22_1634620
0.134766	-0.562500	-0.058594	-0.365598	-0.674951	-0.599956	0.468750	0.890625	0.023438	744	17_29_22_1795910
0.134766	-0.559570	-0.049805	-0.365598	-0.665577	-0.609331	0.433594	0.890625	0.000000	745	17_29_22_1957200
0.131836	-0.565430	-0.052734	-0.365598	-0.674951	-0.599956	0.480469	0.960938	0.023438	746	17_29_22_2118490
0.128906	-0.562500	-0.049805	-0.365598	-0.665577	-0.609331	0.421875	0.925781	0.058594	747	17_29_22_2279780
0.128906	-0.559570	-0.049805	-0.365598	-0.665577	-0.609331	0.468750	0.855469	0.023438	748	17_29_22_2441070
0.128906	-0.556641	-0.046875	-0.365598	-0.674951	-0.599956	0.410156	0.867188	0.023438	749	17_29_22_2602360
0.143555	-0.565430	-0.049805	-0.365598	-0.674951	-0.609331	0.433594	0.914063	0.035156	750	17_29_22_2763650
0.131836	-0.562500	-0.046875	-0.365598	-0.674951	-0.599956	0.445313	0.914063	0.035156	751	17_29_22_2924940
0.137695	-0.571289	-0.052734	-0.365598	-0.674951	-0.599956	0.421875	0.855469	0.222656	752	17_29_22_3086230
0.134766	-0.568359	-0.043945	-0.365598	-0.665577	-0.599956	0.468750	0.902344	0.058594	753	17_29_22_3247520
0.117188	-0.568359	-0.055664	-0.365598	-0.665577	-0.599956	0.480469	0.890625	0.058594	754	17_29_22_3408810
0.128906	-0.571289	-0.049805	-0.365598	-0.674951	-0.599956	0.410156	0.867188	0.082031	755	17_29_22_3570100
0.131836	-0.556641	-0.049805	-0.365598	-0.674951	-0.590582	0.468750	0.902344	0.046875	756	17_29_22_3731390
0.134766	-0.559570	-0.046875	-0.365598	-0.674951	-0.599956	0.433594	0.867188	-0.011719	757	17_29_22_3892680
0.128906	-0.556641	-0.052734	-0.365598	-0.674951	-0.599956	0.539063	0.960938	0.023438	758	17_29_22_4053970
0.134766	-0.565430	-0.061523	-0.365598	-0.674951	-0.590582	0.421875	0.937500	0.105469	759	17_29_22_4215260
0.140625	-0.562500	-0.058594	-0.374973	-0.665577	-0.599956	0.468750	0.914063	0.117188	760	17_29_22_4376550
0.137695	-0.568359	-0.064453	-0.374973	-0.684325	-0.599956	0.433594	0.890625	0.070313	761	17_29_22_4537840
0.134766	-0.562500	-0.055664	-0.365598	-0.674951	-0.609331	0.492188	0.902344	0.046875	762	17_29_22_4699130
0.137695	-0.574219	-0.052734	-0.365598	-0.674951	-0.609331	0.445313	0.937500	0.000000	763	17_29_22_4860420
0.131836	-0.556641	-0.046875	-0.365598	-0.665577	-0.599956	0.457031	0.949219	0.023438	764	17_29_22_5021710
0.125977	-0.568359	-0.055664	-0.365598	-0.674951	-0.599956	0.750000	0.937500	0.199219	765	17_29_22_5183000
0.123047	-0.568359	-0.041016	-0.374973	-0.684325	-0.609331	0.457031	0.902344	0.035156	766	17_29_22_5344290
0.131836	-0.562500	-0.046875	-0.365598	-0.674951	-0.609331	0.925781	0.937500	0.246094	767	17_29_22_5505580
0.134766	-0.574219	-0.055664	-0.365598	-0.665577	-0.599956	0.433594	0.914063	0.082031	768	17_29_22_5666870
0.143555	-0.568359	-0.046875	-0.365598	-0.656202	-0.599956	0.445313	0.925781	0.023438	769	17_29_22_5828160
0.143555	-0.553711	-0.038086	-0.365598	-0.646828	-0.609331	0.445313	0.878906	0.035156	770	17_29_22_5989450
0.146484	-0.565430	-0.055664	-0.356224	-0.618705	-0.609331	0.433594	0.890625	-0.011719	771	17_29_22_6150740
0.143555	-0.568359	-0.058594	-0.365598	-0.609331	-0.618705	0.421875	0.855469	-0.011719	772	17_29_22_6312030
0.128906	-0.550781	-0.046875	-0.374973	-0.581208	-0.618705	0.433594	0.878906	0.011719	773	17_29_22_6473320
0.131836	-0.547852	-0.061523	-0.365598	-0.571833	-0.609331	0.433594	0.914063	-0.011719	774	17_29_22_6634610
0.140625	-0.556641	-0.049805	-0.365598	-0.581208	-0.599956	0.445313	0.890625	0.000000	775	17_29_22_6795900
0.140625	-0.577148	-0.052734	-0.365598	-0.581208	-0.581208	0.445313	0.902344	0.035156	776	17_29_22_6957190
0.146484	-0.565430	-0.049805	-0.374973	-0.571833	-0.590582	0.421875	0.937500	0.000000	777	17_29_22_7118480
0.166992	-0.565430	-0.046875	-0.374973	-0.571833	-0.581208	0.433594	0.960938	-0.023438	778	17_29_22_7279770
0.149414	-0.571289	-0.052734	-0.365598	-0.581208	-0.571833	0.433594	0.937500	-0.011719	779	17_29_22_7441060
0.128906	-0.556641	-0.058594	-0.365598	-0.581208	-0.581208	0.433594	0.914063	0.035156	780	17_29_22_7602350
0.131836	-0.553711	-0.076172	-0.356224	-0.581208	-0.571833	0.457031	0.890625	0.011719	781	17_29_22_7763640
0.158203	-0.568359	-0.055664	-0.356224	-0.590582	-0.562459	0.433594	0.925781	-0.011719	782	17_29_22_7924930
0.169922	-0.559570	-0.052734	-0.346850	-0.590582	-0.571833	0.398438	0.855469	0.011719	783	17_29_22_8086220
0.166992	-0.568359	-0.046875	-0.356224	-0.571833	-0.581208	0.433594	0.855469	0.023438	784	17_29_22_8247510
0.155273	-0.556641	-0.049805	-0.356224	-0.562459	-0.590582	0.421875	0.855469	0.000000	785	17_29_22_8408800
0.143555	-0.571289	-0.055664	-0.356224	-0.562459	-0.581208	0.398438	0.867188	0.000000	786	17_29_22_8570090
0.140625	-0.571289	-0.038086	-0.356224	-0.571833	-0.581208	0.398438	0.867188	0.000000	787	17_29_22_8731380
0.140625	-0.559570	-0.038086	-0.356224	-0.599956	-0.571833	0.433594	0.902344	0.000000	788	17_29_22_8892670
0.123047	-0.565430	-0.038086	-0.356224	-0.618705	-0.571833	0.480469	0.914063	0.011719	789	17_29_22_9053960
0.143555	-0.559570	-0.049805	-0.346850	-0.628079	-0.562459	0.386719	0.855469	0.011719	790	17_29_22_9215250
0.146484	-0.544922	-0.046875	-0.346850	-0.618705	-0.571833	0.421875	0.820313	-0.011719	791	17_29_22_9376540
0.166992	-0.541992	-0.049805	-0.337475	-0.599956	-0.562459	0.421875	0.867188	0.000000	792	17_29_22_9537830
0.178711	-0.562500	-0.061523	-0.337475	-0.590582	-0.571833	0.433594	0.925781	0.058594	793	17_29_22_9699120
0.178711	-0.556641	-0.049805	-0.337475	-0.590582	-0.571833	0.433594	0.949219	0.011719	794	17_29_22_9860410
0.166992	-0.553711	-0.046875	-0.337475	-0.581208	-0.571833	0.386719	0.925781	0.011719	795	17_29_23_0021700
0.152344	-0.550781	-0.055664	-0.337475	-0.581208	-0.571833	0.386719	0.949219	0.035156	796	17_29_23_0182990
0.155273	-0.544922	-0.052734	-0.318727	-0.581208	-0.571833	0.386719	0.890625	0.023438	797	17_29_23_0344280
0.172852	-0.559570	-0.046875	-0.328101	-0.590582	-0.562459	0.433594	0.914063	-0.011719	798	17_29_23_0505570
0.172852	-0.562500	-0.049805	-0.318727	-0.599956	-0.562459	1.019531	0.902344	0.222656	799	17_29_23_0666860
0.161133	-0.550781	-0.061523	-0.318727	-0.609331	-0.553085	0.457031	0.914063	0.058594	800	17_29_23_0828150
0.172852	-0.550781	-0.058594	-0.318727	-0.609331	-0.553085	0.386719	0.937500	-0.011719	801	17_29_23_0989440
0.169922	-0.553711	-0.055664	-0.309353	-0.618705	-0.543711	0.503906	0.937500	0.023438	802	17_29_23_1150730
0.152344	-0.553711	-0.049805	-0.299978	-0.628079	-0.553085	0.421875	0.878906	0.468750	803	17_29_23_1312020
0.149414	-0.544922	-0.076172	-0.299978	-0.646828	-0.553085	0.398438	0.867188	0.046875	804	17_29_23_1473310
0.152344	-0.559570	-0.082031	-0.290604	-0.665577	-0.534336	0.433594	0.949219	0.035156	805	17_29_23_1634600
0.178711	-0.550781	-0.084961	-0.290604	-0.674951	-0.553085	0.632813	0.937500	0.082031	806	17_29_23_1795890
0.208008	-0.533203	-0.096680	-0.271855	-0.656202	-0.553085	0.410156	0.914063	0.000000	807	17_29_23_1957180
0.228516	-0.550781	-0.082031	-0.281230	-0.637454	-0.553085	0.445313	0.855469	0.046875	808	17_29_23_2118470
0.228516	-0.559570	-0.052734	-0.281230	-0.590582	-0.562459	0.667969	0.843750	0.128906	809	17_29_23_2279760
0.210938	-0.556641	-0.049805	-0.290604	-0.553085	-0.571833	0.386719	0.820313	0.046875	810	17_29_23_2441050
0.175781	-0.550781	-0.055664	-0.290604	-0.553085	-0.562459	0.363281	0.820313	0.046875	811	17_29_23_2602340
0.169922	-0.556641	-0.067383	-0.299978	-0.571833	-0.553085	0.386719	0.890625	-0.011719	812	17_29_23_2763630
0.169922	-0.562500	-0.067383	-0.299978	-0.599956	-0.543711	0.375000	0.890625	0.011719	813	17_29_23_2924920
0.178711	-0.562500	-0.061523	-0.318727	-0.618705	-0.534336	0.398438	0.855469	0.035156	814	17_29_23_3086210
0.193359	-0.565430	-0.052734	-0.318727	-0.637454	-0.534336	0.386719	0.843750	0.011719	815	17_29_23_3247500
0.205078	-0.568359	-0.052734	-0.328101	-0.628079	-0.534336	0.375000	0.867188	-0.011719	816	17_29_23_3408790
0.196289	-0.571289	-0.046875	-0.337475	-0.637454	-0.534336	0.421875	0.867188	0.011719	817	17_29_23_3570080
0.187500	-0.580078	-0.043945	-0.356224	-0.637454	-0.534336	0.750000	0.843750	0.128906	818	17_29_23_3731370
0.178711	-0.556641	-0.049805	-0.365598	-0.656202	-0.534336	0.386719	0.832031	0.035156	819	17_29_23_3892660
0.181641	-0.559570	-0.055664	-0.374973	-0.665577	-0.524962	0.410156	0.832031	0.035156	820	17_29_23_4053950
0.178711	-0.559570	-0.043945	-0.393721	-0.703074	-0.515588	0.386719	0.890625	0.011719	821	17_29_23_4215240
0.184570	-0.565430	-0.035156	-0.412470	-0.731197	-0.515588	0.375000	0.843750	0.035156	822	17_29_23_4376530
0.190430	-0.559570	-0.038086	-0.412470	-0.749946	-0.506213	0.410156	0.832031	0.574219	823	17_29_23_4537820
0.205078	-0.550781	-0.046875	-0.431219	-0.768694	-0.506213	0.398438	0.855469	0.058594	824	17_29_23_4699110
0.205078	-0.559570	-0.043945	-0.440593	-0.778068	-0.506213	0.539063	0.890625	0.070313	825	17_29_23_4860400
0.210938	-0.550781	-0.043945	-0.459342	-0.787443	-0.506213	0.445313	0.832031	0.035156	826	17_29_23_5021690
0.225586	-0.533203	-0.043945	-0.459342	-0.787443	-0.515588	0.421875	0.808594	0.023438	827	17_29_23_5182980
0.216797	-0.539063	-0.058594	-0.468716	-0.787443	-0.515588	0.375000	0.843750	-0.011719	828	17_29_23_5344270
0.240234	-0.533203	-0.067383	-0.468716	-0.778068	-0.515588	0.386719	0.867188	-0.011719	829	17_29_23_5505560
0.222656	-0.521484	-0.064453	-0.468716	-0.768694	-0.524962	0.386719	0.914063	0.058594	830	17_29_23_5666850
0.225586	-0.524414	-0.070313	-0.468716	-0.768694	-0.515588	0.386719	0.914063	0.000000	831	17_29_23_5828140
0.228516	-0.521484	-0.064453	-0.468716	-0.768694	-0.515588	0.457031	0.890625	-0.035156	832	17_29_23_5989430
0.228516	-0.515625	-0.076172	-0.449967	-0.778068	-0.524962	0.351563	0.855469	0.000000	833	17_29_23_6150720
0.246094	-0.509766	-0.084961	-0.449967	-0.778068	-0.534336	0.351563	0.867188	0.023438	834	17_29_23_6312010
0.254883	-0.509766	-0.076172	-0.431219	-0.768694	-0.543711	0.492188	0.843750	0.339844	835	17_29_23_6473300
0.263672	-0.503906	-0.073242	-0.421844	-0.749946	-0.553085	0.445313	0.820313	-0.011719	836	17_29_23_6634590
0.263672	-0.503906	-0.070313	-0.421844	-0.731197	-0.562459	0.386719	0.890625	0.035156	837	17_29_23_6795880
0.243164	-0.498047	-0.073242	-0.403096	-0.721823	-0.571833	0.351563	0.890625	0.058594	838	17_29_23_6957170
0.243164	-0.500977	-0.073242	-0.403096	-0.712448	-0.581208	0.386719	0.820313	0.000000	839	17_29_23_7118460
0.240234	-0.503906	-0.073242	-0.393721	-0.712448	-0.590582	0.960938	0.855469	0.246094	840	17_29_23_7279750
0.246094	-0.515625	-0.061523	-0.374973	-0.693700	-0.599956	0.375000	0.914063	0.046875	841	17_29_23_7441040
0.243164	-0.521484	-0.067383	-0.384347	-0.693700	-0.609331	0.421875	0.867188	-0.011719	842	17_29_23_7602330
0.257813	-0.521484	-0.070313	-0.384347	-0.693700	-0.618705	0.386719	0.878906	-0.035156	843	17_29_23_7763620
0.260742	-0.518555	-0.070313	-0.365598	-0.693700	-0.628079	0.375000	0.855469	-0.035156	844	17_29_23_7924910
0.278320	-0.515625	-0.055664	-0.365598	-0.684325	-0.618705	0.386719	0.832031	0.000000	845	17_29_23_8086200
0.269531	-0.521484	-0.058594	-0.356224	-0.684325	-0.618705	0.375000	0.902344	0.035156	846	17_29_23_8247490
0.266602	-0.518555	-0.061523	-0.346850	-0.684325	-0.618705	0.410156	0.890625	0.035156	847	17_29_23_8408780
0.257813	-0.527344	-0.061523	-0.356224	-0.665577	-0.618705	0.410156	0.902344	0.000000	848	17_29_23_8570070
0.251953	-0.524414	-0.058594	-0.337475	-0.665577	-0.618705	0.386719	0.832031	0.011719	849	17_29_23_8731360
0.251953	-0.541992	-0.052734	-0.356224	-0.665577	-0.618705	0.398438	0.808594	0.023438	850	17_29_23_8892650
0.249023	-0.533203	-0.041016	-0.356224	-0.674951	-0.618705	0.363281	0.855469	-0.011719	851	17_29_23_9053940
0.240234	-0.527344	-0.043945	-0.346850	-0.674951	-0.618705	0.398438	0.855469	0.035156	852	17_29_23_9215230
0.243164	-0.533203	-0.038086	-0.346850	-0.674951	-0.628079	0.386719	0.820313	0.105469	853	17_29_23_9376520
0.240234	-0.539063	-0.055664	-0.346850	-0.684325	-0.618705	0.621094	0.820313	0.527344	854	17_29_23_9537810
0.240234	-0.533203	-0.052734	-0.346850	-0.684325	-0.618705	0.363281	0.855469	0.082031	855	17_29_23_9699100
0.246094	-0.539063	-0.046875	-0.356224	-0.684325	-0.618705	0.398438	0.808594	0.035156	856	17_29_23_9860390
0.260742	-0.544922	-0.052734	-0.356224	-0.684325	-0.618705	0.386719	0.878906	0.011719	857	17_29_24_0021680
0.263672	-0.527344	-0.049805	-0.356224	-0.684325	-0.618705	0.386719	0.855469	0.058594	858	17_29_24_0182970
0.257813	-0.536133	-0.055664	-0.356224	-0.674951	-0.618705	0.386719	0.832031	0.011719	859	17_29_24_0344260
0.260742	-0.533203	-0.041016	-0.356224	-0.665577	-0.609331	0.398438	0.867188	0.011719	860	17_29_24_0505550
0.254883	-0.530273	-0.052734	-0.356224	-0.674951	-0.609331	0.386719	0.867188	0.046875	861	17_29_24_0666840
0.246094	-0.530273	-0.058594	-0.356224	-0.674951	-0.609331	0.398438	0.855469	0.023438	862	17_29_24_0828130
0.249023	-0.536133	-0.058594	-0.365598	-0.674951	-0.609331	0.984375	0.867188	0.246094	863	17_29_24_0989420
0.246094	-0.547852	-0.043945	-0.365598	-0.674951	-0.599956	0.386719	0.878906	0.000000	864	17_29_24_1150710
0.240234	-0.533203	-0.055664	-0.374973	-0.674951	-0.599956	0.386719	0.937500	0.046875	865	17_29_24_1312000
0.240234	-0.524414	-0.046875	-0.374973	-0.674951	-0.599956	0.398438	0.937500	0.058594	866	17_29_24_1473290
0.246094	-0.544922	-0.058594	-0.365598	-0.684325	-0.599956	0.386719	0.867188	0.140625	867	17_29_24_1634580
0.243164	-0.544922	-0.052734	-0.374973	-0.684325	-0.599956	0.421875	0.867188	-0.011719	868	17_29_24_1795870
0.254883	-0.536133	-0.067383	-0.374973	-0.674951	-0.590582	0.433594	0.890625	0.023438	869	17_29_24_1957160
0.260742	-0.536133	-0.055664	-0.374973	-0.684325	-0.599956	0.363281	0.855469	0.023438	870	17_29_24_2118450
0.246094	-0.524414	-0.058594	-0.374973	-0.674951	-0.599956	0.421875	0.843750	0.046875	871	17_29_24_2279740
0.260742	-0.524414	-0.049805	-0.374973	-0.665577	-0.599956	0.339844	0.890625	0.046875	872	17_29_24_2441030
0.237305	-0.515625	-0.046875	-0.374973	-0.674951	-0.590582	0.363281	0.867188	-0.023438	873	17_29_24_2602320
0.243164	-0.527344	-0.055664	-0.374973	-0.674951	-0.599956	0.386719	0.902344	-0.046875	874	17_29_24_2763610
0.243164	-0.521484	-0.055664	-0.365598	-0.674951	-0.599956	0.398438	0.820313	0.058594	875	17_29_24_2924900
0.246094	-0.524414	-0.061523	-0.356224	-0.674951	-0.599956	0.480469	0.832031	0.117188	876	17_29_24_3086190
0.240234	-0.536133	-0.055664	-0.356224	-0.665577	-0.599956	0.585938	0.855469	0.316406	877	17_29_24_3247480
0.249023	-0.530273	-0.049805	-0.356224	-0.665577	-0.599956	0.421875	0.878906	0.046875	878	17_29_24_3408770
0.246094	-0.515625	-0.055664	-0.365598	-0.674951	-0.599956	0.597656	0.937500	0.093750	879	17_29_24_3570060
0.234375	-0.527344	-0.049805	-0.356224	-0.674951	-0.609331	0.386719	0.878906	-0.023438	880	17_29_24_3731350
0.243164	-0.527344	-0.052734	-0.356224	-0.684325	-0.609331	0.363281	0.867188	-0.023438	881	17_29_24_3892640
0.243164	-0.521484	-0.055664	-0.356224	-0.674951	-0.609331	0.386719	0.878906	-0.011719	882	17_29_24_4053930
0.249023	-0.536133	-0.043945	-0.356224	-0.674951	-0.609331	1.019531	0.937500	0.222656	883	17_29_24_4215220
0.243164	-0.539063	-0.061523	-0.365598	-0.674951	-0.609331	0.410156	0.937500	0.035156	884	17_29_24_4376510
0.249023	-0.533203	-0.061523	-0.374973	-0.674951	-0.609331	0.421875	0.914063	0.058594	885	17_29_24_4537800
0.240234	-0.536133	-0.055664	-0.365598	-0.665577	-0.599956	0.386719	0.867188	0.046875	886	17_29_24_4699090
0.243164	-0.539063	-0.070313	-0.365598	-0.674951	-0.609331	0.398438	0.867188	0.035156	887	17_29_24_4860380
0.251953	-0.536133	-0.052734	-0.365598	-0.674951	-0.599956	0.410156	0.867188	0.000000	888	17_29_24_5021670
0.249023	-0.539063	-0.052734	-0.365598	-0.674951	-0.609331	0.386719	0.867188	0.000000	889	17_29_24_5182960
0.246094	-0.515625	-0.055664	-0.365598	-0.665577	-0.609331	0.363281	0.890625	-0.011719	890	17_29_24_5344250
0.251953	-0.530273	-0.058594	-0.365598	-0.674951	-0.599956	0.398438	0.867188	0.035156	891	17_29_24_5505540
0.251953	-0.533203	-0.061523	-0.365598	-0.674951	-0.599956	0.421875	0.914063	0.035156	892	17_29_24_5666830
0.246094	-0.533203	-0.055664	-0.365598	-0.674951	-0.599956	0.445313	0.890625	0.023438	893	17_29_24_5828120
0.243164	-0.536133	-0.055664	-0.365598	-0.674951	-0.599956	0.925781	0.867188	0.339844	894	17_29_24_5989410
0.246094	-0.530273	-0.055664	-0.365598	-0.674951	-0.599956	0.386719	0.867188	0.000000	895	17_29_24_6150700
0.257813	-0.530273	-0.058594	-0.365598	-0.674951	-0.599956	0.363281	0.832031	0.046875	896	17_29_24_6311990
0.246094	-0.530273	-0.058594	-0.365598	-0.665577	-0.599956	0.398438	0.843750	0.093750	897	17_29_24_6473280
0.234375	-0.521484	-0.055664	-0.365598	-0.674951	-0.599956	0.386719	0.902344	0.082031	898	17_29_24_6634570
0.240234	-0.521484	-0.049805	-0.365598	-0.674951	-0.599956	0.363281	0.867188	0.035156	899	17_29_24_6795860
0.234375	-0.533203	-0.052734	-0.365598	-0.674951	-0.599956	0.386719	0.890625	0.035156	900	17_29_24_6957150
0.240234	-0.539063	-0.049805	-0.365598	-0.674951	-0.599956	0.398438	0.902344	0.023438	901	17_29_24_7118440
0.260742	-0.536133	-0.052734	-0.365598	-0.684325	-0.599956	0.421875	0.902344	0.058594	902	17_29_24_7279730
0.269531	-0.556641	-0.055664	-0.365598	-0.665577	-0.599956	0.386719	0.914063	0.046875	903	17_29_24_7441020
0.278320	-0.562500	-0.061523	-0.356224	-0.637454	-0.590582	0.386719	0.914063	0.046875	904	17_29_24_7602310
0.295898	-0.574219	-0.058594	-0.356224	-0.637454	-0.581208	0.386719	0.878906	0.082031	905	17_29_24_7763600
0.298828	-0.568359	-0.049805	-0.356224	-0.618705	-0.581208	0.457031	0.820313	0.082031	906	17_29_24_7924890
0.287109	-0.588867	-0.029297	-0.356224	-0.618705	-0.571833	0.421875	0.902344	0.046875	907	17_29_24_8086180
0.263672	-0.600586	-0.032227	-0.365598	-0.609331	-0.562459	0.562500	0.902344	0.328125	908	17_29_24_8247470
0.222656	-0.562500	-0.038086	-0.356224	-0.618705	-0.553085	0.597656	0.949219	0.105469	909	17_29_24_8408760
0.210938	-0.568359	-0.043945	-0.356224	-0.656202	-0.534336	0.410156	0.902344	0.000000	910	17_29_24_8570050
0.199219	-0.547852	-0.049805	-0.346850	-0.693700	-0.515588	0.386719	0.855469	0.023438	911	17_29_24_8731340
0.228516	-0.506836	-0.046875	-0.337475	-0.712448	-0.506213	0.375000	0.843750	-0.011719	912	17_29_24_8892630
0.254883	-0.498047	-0.055664	-0.337475	-0.731197	-0.496839	0.386719	0.890625	0.011719	913	17_29_24_9053920
0.260742	-0.503906	-0.058594	-0.318727	-0.712448	-0.496839	0.679688	0.890625	0.175781	914	17_29_24_9215210
0.272461	-0.509766	-0.043945	-0.337475	-0.684325	-0.524962	0.386719	0.867188	0.058594	915	17_29_24_9376500
0.266602	-0.503906	-0.035156	-0.356224	-0.646828	-0.553085	0.351563	0.890625	0.000000	916	17_29_24_9537790
0.249023	-0.506836	-0.023438	-0.365598	-0.618705	-0.562459	0.398438	0.855469	0.000000	917	17_29_24_9699080
0.234375	-0.500977	-0.020508	-0.374973	-0.599956	-0.571833	0.480469	0.843750	0.082031	918	17_29_24_9860370
0.222656	-0.509766	-0.029297	-0.384347	-0.618705	-0.581208	0.339844	0.843750	0.082031	919	17_29_25_0021660
0.228516	-0.527344	-0.026367	-0.393721	-0.646828	-0.581208	0.421875	0.820313	0.105469	920	17_29_25_0182950
0.222656	-0.533203	-0.026367	-0.393721	-0.674951	-0.581208	0.328125	0.808594	0.035156	921	17_29_25_0344240
0.246094	-0.565430	-0.014648	-0.403096	-0.703074	-0.590582	0.339844	0.808594	-0.035156	922	17_29_25_0505530
0.246094	-0.553711	-0.014648	-0.403096	-0.712448	-0.590582	0.410156	0.808594	-0.023438	923	17_29_25_0666820
0.254883	-0.559570	0.000000	-0.412470	-0.721823	-0.590582	0.445313	0.867188	-0.023438	924	17_29_25_0828110
0.272461	-0.556641	-0.005859	-0.412470	-0.712448	-0.590582	0.375000	0.878906	-0.023438	925	17_29_25_0989400
0.263672	-0.553711	0.002930	-0.431219	-0.721823	-0.590582	0.375000	0.796875	0.035156	926	17_29_25_1150690
0.260742	-0.553711	0.014648	-0.440593	-0.731197	-0.581208	0.445313	0.832031	0.445313	927	17_29_25_1311980
0.263672	-0.550781	0.014648	-0.449967	-0.731197	-0.571833	0.375000	0.914063	0.011719	928	17_29_25_1473270
0.275391	-0.556641	0.038086	-0.468716	-0.731197	-0.571833	0.386719	0.914063	0.246094	929	17_29_25_1634560
0.269531	-0.544922	0.055664	-0.487465	-0.731197	-0.553085	0.410156	0.902344	0.035156	930	17_29_25_1795850
0.260742	-0.539063	0.073242	-0.506213	-0.731197	-0.534336	0.433594	0.878906	0.000000	931	17_29_25_1957140
0.246094	-0.539063	0.058594	-0.515588	-0.759320	-0.515588	0.398438	0.914063	-0.011719	932	17_29_25_2118430
0.243164	-0.500977	0.055664	-0.506213	-0.778068	-0.496839	0.808594	0.890625	0.140625	933	17_29_25_2279720
0.257813	-0.521484	0.038086	-0.524962	-0.806191	-0.478090	0.363281	0.890625	-0.035156	934	17_29_25_2441010
0.275391	-0.533203	0.049805	-0.534336	-0.834314	-0.468716	0.375000	0.867188	-0.046875	935	17_29_25_2602300
0.275391	-0.498047	0.043945	-0.543711	-0.843689	-0.459342	0.398438	0.890625	-0.023438	936	17_29_25_2763590
0.278320	-0.492188	0.046875	-0.534336	-0.843689	-0.440593	0.375000	0.843750	0.011719	937	17_29_25_2924880
0.292969	-0.495117	0.043945	-0.524962	-0.843689	-0.440593	0.503906	0.832031	0.046875	938	17_29_25_3086170
0.281250	-0.486328	0.043945	-0.534336	-0.843689	-0.440593	0.410156	0.914063	0.011719	939	17_29_25_3247460
0.272461	-0.480469	0.055664	-0.515588	-0.853063	-0.421844	0.375000	0.914063	0.000000	940	17_29_25_3408750
0.263672	-0.468750	0.035156	-0.496839	-0.881186	-0.403096	0.363281	0.843750	-0.046875	941	17_29_25_3570040
0.254883	-0.468750	0.035156	-0.468716	-0.928058	-0.384347	0.398438	0.843750	-0.070313	942	17_29_25_3731330
0.251953	-0.451172	0.035156	-0.440593	-0.974929	-0.356224	0.445313	0.820313	-0.058594	943	17_29_25_3892620
0.275391	-0.433594	0.055664	-0.421844	-1.012426	-0.337475	0.386719	0.867188	-0.011719	944	17_29_25_4053910
0.263672	-0.401367	0.043945	-0.393721	-1.049924	-0.318727	0.351563	0.890625	-0.058594	945	17_29_25_4215200
0.246094	-0.380859	0.038086	-0.365598	-1.087421	-0.299978	0.316406	0.902344	-0.082031	946	17_29_25_4376490
0.251953	-0.363281	0.026367	-0.337475	-1.124918	-0.281230	0.351563	0.902344	0.035156	947	17_29_25_4537780
0.281250	-0.357422	0.014648	-0.318727	-1.171790	-0.271855	0.363281	0.914063	0.082031	948	17_29_25_4699070
0.298828	-0.348633	0.002930	-0.299978	-1.199913	-0.262481	0.339844	0.902344	0.011719	949	17_29_25_4860360
0.325195	-0.339844	-0.011719	-0.281230	-1.209287	-0.271855	0.363281	0.914063	-0.011719	950	17_29_25_5021650
0.348633	-0.322266	-0.038086	-0.253107	-1.190539	-0.281230	0.503906	0.867188	0.058594	951	17_29_25_5182940
0.398438	-0.322266	-0.084961	-0.234358	-1.181164	-0.281230	0.433594	0.820313	0.023438	952	17_29_25_5344230
0.462891	-0.357422	-0.114258	-0.243732	-1.162416	-0.290604	0.375000	0.808594	0.035156	953	17_29_25_5505520
0.521484	-0.377930	-0.114258	-0.243732	-1.143667	-0.290604	0.375000	0.855469	0.023438	954	17_29_25_5666810
0.539063	-0.389648	-0.137695	-0.224984	-1.106170	-0.290604	0.363281	0.902344	0.023438	955	17_29_25_5828100
0.536133	-0.395508	-0.149414	-0.234358	-1.068672	-0.299978	0.914063	0.867188	0.234375	956	17_29_25_5989390
0.509766	-0.386719	-0.158203	-0.234358	-1.059298	-0.290604	0.304688	0.796875	0.023438	957	17_29_25_6150680
0.471680	-0.386719	-0.161133	-0.234358	-1.068672	-0.281230	0.410156	0.761719	0.070313	958	17_29_25_6311970
0.462891	-0.375000	-0.178711	-0.215609	-1.087421	-0.281230	0.433594	0.820313	0.105469	959	17_29_25_6473260
0.471680	-0.386719	-0.208008	-0.215609	-1.115544	-0.271855	0.363281	0.843750	0.023438	960	17_29_25_6634550
0.515625	-0.363281	-0.216797	-0.206235	-1.124918	-0.262481	0.339844	0.843750	0.000000	961	17_29_25_6795840
0.580078	-0.336914	-0.234375	-0.206235	-1.106170	-0.262481	0.398438	0.761719	0.035156	962	17_29_25_6957130
0.588867	-0.348633	-0.243164	-0.178112	-1.078047	-0.253107	0.386719	0.773438	0.023438	963	17_29_25_7118420
0.533203	-0.357422	-0.266602	-0.149989	-1.096795	-0.271855	0.339844	0.820313	0.000000	964	17_29_25_7279710
0.451172	-0.345703	-0.313477	-0.112492	-1.106170	-0.309353	0.878906	0.785156	0.117188	965	17_29_25_7441000
0.389648	-0.290039	-0.351563	-0.084369	-1.134293	-0.328101	0.398438	0.726563	0.011719	966	17_29_25_7602290
0.398438	-0.228516	-0.395508	-0.074995	-1.153041	-0.328101	0.375000	0.832031	0.152344	967	17_29_25_7763580
0.448242	-0.172852	-0.427734	-0.084369	-1.162416	-0.346850	0.679688	0.808594	0.457031	968	17_29_25_7924870
0.489258	-0.146484	-0.465820	-0.056246	-1.143667	-0.384347	0.386719	0.796875	0.058594	969	17_29_25_8086160
0.509766	-0.114258	-0.483398	-0.018749	-1.143667	-0.403096	0.386719	0.820313	0.058594	970	17_29_25_8247450
0.483398	-0.155273	-0.533203	0.037497	-1.162416	-0.403096	0.363281	0.796875	0.082031	971	17_29_25_8408740
0.433594	-0.184570	-0.594727	0.056246	-1.171790	-0.412470	0.328125	0.773438	0.046875	972	17_29_25_8570030
0.439453	-0.187500	-0.644531	0.037497	-1.134293	-0.421844	0.339844	0.773438	0.046875	973	17_29_25_8731320
0.489258	-0.146484	-0.706055	0.009374	-1.087421	-0.459342	0.351563	0.726563	0.117188	974	17_29_25_8892610
0.541992	-0.064453	-0.729492	-0.028123	-1.040549	-0.487465	0.410156	0.738281	0.105469	975	17_29_25_9053900
0.547852	-0.023438	-0.741211	-0.037497	-1.021801	-0.506213	0.363281	0.750000	0.105469	976	17_29_25_9215190
0.539063	-0.035156	-0.720703	-0.028123	-0.993678	-0.534336	0.984375	0.738281	0.304688	977	17_29_25_9376480
0.506836	-0.061523	-0.708984	-0.009374	-0.965555	-0.553085	0.867188	0.726563	0.351563	978	17_29_25_9537770
0.521484	-0.082031	-0.720703	0.037497	-0.918683	-0.590582	0.585938	0.726563	0.281250	979	17_29_25_9699060
0.527344	-0.114258	-0.764648	0.074995	-0.881186	-0.609331	0.398438	0.703125	0.070313	980	17_29_25_9860350
0.506836	-0.137695	-0.788086	0.065620	-0.843689	-0.637454	0.398438	0.726563	0.281250	981	17_29_26_0021640
0.503906	-0.123047	-0.752930	0.028123	-0.824940	-0.665577	0.375000	0.703125	0.046875	982	17_29_26_0182930
0.474609	-0.087891	-0.714844	0.000000	-0.806191	-0.693700	0.410156	0.691406	0.128906	983	17_29_26_0344220
0.465820	-0.076172	-0.685547	-0.037497	-0.796817	-0.712448	0.386719	0.679688	0.082031	984	17_29_26_0505510
0.462891	-0.076172	-0.653320	-0.056246	-0.778068	-0.740571	0.386719	0.656250	0.035156	985	17_29_26_0666800
0.465820	-0.064453	-0.647461	-0.065620	-0.759320	-0.759320	0.398438	0.644531	0.070313	986	17_29_26_0828090
0.451172	-0.076172	-0.647461	-0.084369	-0.740571	-0.778068	0.410156	0.703125	0.058594	987	17_29_26_0989380
0.462891	-0.067383	-0.676758	-0.103118	-0.703074	-0.768694	0.410156	0.667969	0.046875	988	17_29_26_1150670
0.465820	-0.076172	-0.679688	-0.140615	-0.684325	-0.815566	0.386719	0.644531	0.070313	989	17_29_26_1311960
0.451172	-0.061523	-0.670898	-0.178112	-0.656202	-0.834314	0.386719	0.632813	0.070313	990	17_29_26_1473250
0.451172	-0.038086	-0.667969	-0.187486	-0.637454	-0.853063	0.410156	0.644531	0.457031	991	17_29_26_1634540
0.439453	-0.029297	-0.665039	-0.206235	-0.637454	-0.871812	0.375000	0.656250	0.070313	992	17_29_26_1795830
0.416016	-0.038086	-0.665039	-0.215609	-0.628079	-0.899935	0.386719	0.644531	0.082031	993	17_29_26_1957120
0.404297	-0.029297	-0.647461	-0.215609	-0.618705	-0.928058	0.539063	0.632813	0.210938	994	17_29_26_2118410
0.389648	-0.046875	-0.632813	-0.215609	-0.618705	-0.956181	0.433594	0.644531	0.164063	995	17_29_26_2279700
0.369141	-0.029297	-0.612305	-0.224984	-0.618705	-0.984304	0.398438	0.667969	0.117188	996	17_29_26_2440990
0.363281	-0.017578	-0.588867	-0.234358	-0.618705	-1.003052	0.667969	0.667969	0.164063	997	17_29_26_2602280
0.345703	-0.014648	-0.568359	-0.234358	-0.599956	-1.021801	0.398438	0.632813	0.128906	998	17_29_26_2763570
0.331055	0.002930	-0.553711	-0.215609	-0.590582	-1.031175	0.796875	0.644531	0.550781	999	17_29_26_2924860
0.328125	0.000000	-0.562500	-0.206235	-0.590582	-1.059298	0.398438	0.656250	0.058594	1000	17_29_26_3086150
0.328125	0.008789	-0.559570	-0.187486	-0.581208	-1.087421	0.386719	0.656250	0.433594	1001	17_29_26_3247440
0.325195	0.014648	-0.550781	-0.168738	-0.562459	-1.115544	0.398438	0.632813	0.058594	1002	17_29_26_3408730
0.333984	0.005859	-0.544922	-0.168738	-0.553085	-1.124918	0.398438	0.667969	0.082031	1003	17_29_26_3570020
0.345703	-0.017578	-0.547852	-0.159363	-0.543711	-1.153041	0.386719	0.644531	0.093750	1004	17_29_26_3731310
0.339844	-0.046875	-0.547852	-0.140615	-0.543711	-1.171790	0.421875	0.632813	0.105469	1005	17_29_26_3892600
0.322266	-0.067383	-0.536133	-0.140615	-0.515588	-1.190539	0.398438	0.644531	0.093750	1006	17_29_26_4053890
0.316406	-0.093750	-0.541992	-0.140615	-0.487465	-1.199913	0.433594	0.644531	0.117188	1007	17_29_26_4215180
0.322266	-0.108398	-0.539063	-0.149989	-0.449967	-1.199913	1.019531	0.679688	0.363281	1008	17_29_26_4376470
0.316406	-0.117188	-0.506836	-0.178112	-0.403096	-1.190539	0.398438	0.632813	0.164063	1009	17_29_26_4537760
0.316406	-0.128906	-0.477539	-0.206235	-0.374973	-1.171790	0.375000	0.609375	0.164063	1010	17_29_26_4699050
0.322266	-0.152344	-0.471680	-0.243732	-0.374973	-1.153041	0.386719	0.621094	0.093750	1011	17_29_26_4860340
0.342773	-0.161133	-0.474609	-0.253107	-0.374973	-1.124918	0.515625	0.644531	0.410156	1012	17_29_26_5021630
0.357422	-0.184570	-0.503906	-0.262481	-0.374973	-1.096795	0.363281	0.667969	0.023438	1013	17_29_26_5182920
0.380859	-0.219727	-0.512695	-0.290604	-0.384347	-1.078047	0.609375	0.632813	0.093750	1014	17_29_26_5344210
0.372070	-0.213867	-0.486328	-0.356224	-0.374973	-1.059298	0.410156	0.656250	0.082031	1015	17_29_26_5505500
0.333984	-0.169922	-0.477539	-0.374973	-0.356224	-1.049924	0.363281	0.679688	0.058594	1016	17_29_26_5666790
0.328125	-0.123047	-0.489258	-0.365598	-0.337475	-1.049924	0.363281	0.667969	0.058594	1017	17_29_26_5828080
0.345703	-0.152344	-0.524414	-0.346850	-0.337475	-1.031175	0.363281	0.656250	0.070313	1018	17_29_26_5989370
0.360352	-0.222656	-0.539063	-0.393721	-0.356224	-1.012426	0.480469	0.714844	0.046875	1019	17_29_26_6150660
0.372070	-0.196289	-0.448242	-0.459342	-0.374973	-1.003052	0.363281	0.714844	0.093750	1020	17_29_26_6311950
0.389648	-0.202148	-0.451172	-0.431219	-0.365598	-0.965555	0.363281	0.726563	0.082031	1021	17_29_26_6473240
0.389648	-0.222656	-0.474609	-0.449967	-0.374973	-0.918683	0.351563	0.750000	0.082031	1022	17_29_26_6634530
0.375000	-0.187500	-0.489258	-0.403096	-0.384347	-0.890560	0.339844	0.738281	0.046875	1023	17_29_26_6795820
0.395508	-0.205078	-0.539063	-0.365598	-0.393721	-0.871812	0.339844	0.750000	0.035156	1024	17_29_26_6957110
0.416016	-0.216797	-0.539063	-0.374973	-0.365598	-0.881186	0.363281	0.726563	0.070313	1025	17_29_26_7118400
0.424805	-0.216797	-0.521484	-0.374973	-0.318727	-0.899935	0.351563	0.714844	0.070313	1026	17_29_26_7279690
0.404297	-0.216797	-0.524414	-0.384347	-0.262481	-0.899935	0.773438	0.703125	0.222656	1027	17_29_26_7440980
0.351563	-0.278320	-0.527344	-0.412470	-0.215609	-0.890560	0.328125	0.761719	0.058594	1028	17_29_26_7602270
0.295898	-0.310547	-0.506836	-0.449967	-0.187486	-0.881186	0.351563	0.773438	0.070313	1029	17_29_26_7763560
0.281250	-0.331055	-0.492188	-0.468716	-0.196861	-0.890560	0.316406	0.738281	0.070313	1030	17_29_26_7924850
0.275391	-0.298828	-0.489258	-0.468716	-0.215609	-0.899935	0.386719	0.738281	0.070313	1031	17_29_26_8086140
0.290039	-0.290039	-0.471680	-0.449967	-0.243732	-0.899935	0.433594	0.773438	0.070313	1032	17_29_26_8247430
0.295898	-0.287109	-0.483398	-0.449967	-0.271855	-0.918683	0.539063	0.785156	0.386719	1033	17_29_26_8408720
0.287109	-0.272461	-0.459961	-0.431219	-0.290604	-0.937432	0.398438	0.761719	0.058594	1034	17_29_26_8570010
0.292969	-0.298828	-0.459961	-0.431219	-0.299978	-0.956181	0.339844	0.750000	0.105469	1035	17_29_26_8731300
0.307617	-0.351563	-0.430664	-0.449967	-0.309353	-0.974929	0.433594	0.750000	0.128906	1036	17_29_26_8892590
0.295898	-0.360352	-0.375000	-0.487465	-0.299978	-0.993678	0.339844	0.796875	0.070313	1037	17_29_26_9053880
0.295898	-0.348633	-0.342773	-0.496839	-0.290604	-1.012426	0.363281	0.773438	0.070313	1038	17_29_26_9215170
0.278320	-0.331055	-0.336914	-0.487465	-0.281230	-1.031175	0.644531	0.761719	0.152344	1039	17_29_26_9376460
0.272461	-0.333984	-0.342773	-0.478090	-0.281230	-1.049924	0.339844	0.761719	0.023438	1040	17_29_26_9537750
0.281250	-0.392578	-0.310547	-0.487465	-0.281230	-1.049924	0.339844	0.773438	0.046875	1041	17_29_26_9699040
0.251953	-0.421875	-0.266602	-0.524962	-0.318727	-1.059298	0.457031	0.761719	0.093750	1042	17_29_26_9860330
0.228516	-0.404297	-0.243164	-0.543711	-0.356224	-1.059298	0.375000	0.785156	0.058594	1043	17_29_27_0021620
0.219727	-0.416016	-0.272461	-0.543711	-0.421844	-1.040549	0.363281	0.808594	0.023438	1044	17_29_27_0182910
0.225586	-0.407227	-0.278320	-0.534336	-0.468716	-1.021801	0.316406	0.820313	0.011719	1045	17_29_27_0344200
0.269531	-0.404297	-0.269531	-0.524962	-0.506213	-1.021801	0.621094	0.796875	0.105469	1046	17_29_27_0505490
0.313477	-0.418945	-0.246094	-0.534336	-0.506213	-1.021801	0.375000	0.796875	0.046875	1047	17_29_27_0666780
0.325195	-0.445313	-0.193359	-0.543711	-0.468716	-1.021801	0.351563	0.855469	0.046875	1048	17_29_27_0828070
0.298828	-0.416016	-0.166992	-0.553085	-0.412470	-0.984304	0.304688	0.843750	0.011719	1049	17_29_27_0989360
0.328125	-0.407227	-0.202148	-0.524962	-0.393721	-0.974929	0.375000	0.867188	-0.011719	1050	17_29_27_1150650
0.322266	-0.398438	-0.208008	-0.515588	-0.374973	-0.946806	0.410156	0.867188	0.000000	1051	17_29_27_1311940
0.325195	-0.418945	-0.202148	-0.487465	-0.356224	-0.937432	0.421875	0.808594	0.035156	1052	17_29_27_1473230
0.316406	-0.442383	-0.205078	-0.478090	-0.318727	-0.928058	0.386719	0.820313	0.000000	1053	17_29_27_1634520
0.298828	-0.445313	-0.178711	-0.478090	-0.271855	-0.909309	0.363281	0.820313	-0.035156	1054	17_29_27_1795810
0.298828	-0.454102	-0.172852	-0.468716	-0.243732	-0.890560	0.550781	0.843750	0.093750	1055	17_29_27_1957100
0.275391	-0.457031	-0.175781	-0.459342	-0.206235	-0.871812	0.375000	0.867188	-0.046875	1056	17_29_27_2118390
0.251953	-0.465820	-0.178711	-0.449967	-0.187486	-0.853063	0.421875	0.890625	-0.035156	1057	17_29_27_2279680
0.246094	-0.492188	-0.172852	-0.440593	-0.178112	-0.853063	0.410156	0.890625	-0.046875	1058	17_29_27_2440970
0.219727	-0.495117	-0.166992	-0.440593	-0.168738	-0.843689	0.386719	0.820313	-0.023438	1059	17_29_27_2602260
0.210938	-0.498047	-0.155273	-0.431219	-0.168738	-0.834314	0.363281	0.843750	-0.011719	1060	17_29_27_2763550
0.184570	-0.509766	-0.143555	-0.421844	-0.168738	-0.815566	0.316406	0.902344	-0.023438	1061	17_29_27_2924840
0.178711	-0.512695	-0.123047	-0.403096	-0.168738	-0.796817	0.726563	0.867188	0.351563	1062	17_29_27_3086130
0.169922	-0.527344	-0.114258	-0.393721	-0.168738	-0.778068	0.363281	0.949219	-0.058594	1063	17_29_27_3247420
0.158203	-0.536133	-0.096680	-0.374973	-0.168738	-0.768694	0.386719	0.914063	0.281250	1064	17_29_27_3408710
0.146484	-0.533203	-0.079102	-0.365598	-0.178112	-0.740571	0.503906	0.867188	0.175781	1065	17_29_27_3570000
0.123047	-0.559570	-0.096680	-0.346850	-0.187486	-0.703074	0.386719	0.867188	-0.082031	1066	17_29_27_3731290
0.123047	-0.591797	-0.111328	-0.346850	-0.187486	-0.674951	0.363281	0.867188	-0.082031	1067	17_29_27_3892580
0.123047	-0.615234	-0.134766	-0.356224	-0.215609	-0.656202	0.421875	0.785156	-0.093750	1068	17_29_27_4053870
0.140625	-0.670898	-0.155273	-0.328101	-0.243732	-0.665577	0.339844	0.796875	-0.093750	1069	17_29_27_4215160
0.166992	-0.676758	-0.143555	-0.318727	-0.243732	-0.684325	0.937500	0.890625	0.164063	1070	17_29_27_4376450
0.213867	-0.650391	-0.117188	-0.299978	-0.224984	-0.684325	0.937500	0.937500	0.117188	1071	17_29_27_4537740
0.275391	-0.547852	-0.102539	-0.271855	-0.196861	-0.693700	0.410156	0.902344	-0.105469	1072	17_29_27_4699030
0.307617	-0.395508	-0.084961	-0.262481	-0.187486	-0.684325	0.398438	0.902344	-0.105469	1073	17_29_27_4860320
0.322266	-0.287109	-0.064453	-0.253107	-0.215609	-0.646828	0.386719	0.902344	-0.082031	1074	17_29_27_5021610
0.307617	-0.254883	-0.061523	-0.234358	-0.262481	-0.618705	0.375000	0.878906	-0.082031	1075	17_29_27_5182900
0.290039	-0.298828	-0.079102	-0.215609	-0.318727	-0.609331	0.468750	0.843750	-0.105469	1076	17_29_27_5344190
0.290039	-0.401367	-0.120117	-0.215609	-0.365598	-0.599956	0.421875	0.878906	-0.187500	1077	17_29_27_5505480
0.295898	-0.498047	-0.143555	-0.215609	-0.384347	-0.637454	0.679688	0.902344	-0.011719	1078	17_29_27_5666770
0.287109	-0.550781	-0.166992	-0.215609	-0.384347	-0.674951	0.433594	0.867188	-0.117188	1079	17_29_27_5828060
0.284180	-0.556641	-0.172852	-0.215609	-0.365598	-0.703074	0.351563	0.855469	-0.140625	1080	17_29_27_5989350
0.278320	-0.521484	-0.143555	-0.215609	-0.356224	-0.712448	0.351563	0.855469	-0.140625	1081	17_29_27_6150640
0.266602	-0.530273	-0.140625	-0.196861	-0.328101	-0.721823	0.363281	0.890625	-0.164063	1082	17_29_27_6311930
0.266602	-0.515625	-0.134766	-0.196861	-0.309353	-0.721823	0.445313	0.902344	-0.152344	1083	17_29_27_6473220
0.251953	-0.521484	-0.114258	-0.196861	-0.290604	-0.731197	0.410156	0.960938	-0.105469	1084	17_29_27_6634510
0.240234	-0.489258	-0.114258	-0.187486	-0.271855	-0.731197	0.363281	0.925781	-0.140625	1085	17_29_27_6795800
0.231445	-0.457031	-0.084961	-0.187486	-0.262481	-0.731197	0.574219	0.878906	-0.082031	1086	17_29_27_6957090
0.240234	-0.439453	-0.055664	-0.178112	-0.243732	-0.731197	0.328125	0.878906	-0.105469	1087	17_29_27_7118380
0.249023	-0.439453	-0.049805	-0.168738	-0.224984	-0.731197	0.386719	0.867188	-0.117188	1088	17_29_27_7279670
0.228516	-0.445313	-0.035156	-0.168738	-0.215609	-0.731197	0.363281	0.867188	-0.105469	1089	17_29_27_7440960
0.210938	-0.439453	-0.023438	-0.168738	-0.206235	-0.721823	0.363281	0.867188	-0.117188	1090	17_29_27_7602250
0.178711	-0.462891	0.002930	-0.168738	-0.215609	-0.703074	0.421875	0.890625	-0.140625	1091	17_29_27_7763540
0.158203	-0.462891	0.008789	-0.159363	-0.224984	-0.684325	0.398438	0.808594	-0.128906	1092	17_29_27_7924830
0.131836	-0.486328	0.008789	-0.159363	-0.253107	-0.656202	0.410156	0.855469	-0.140625	1093	17_29_27_8086120
0.123047	-0.500977	0.002930	-0.168738	-0.290604	-0.637454	0.515625	0.855469	0.093750	1094	17_29_27_8247410
0.105469	-0.530273	0.002930	-0.168738	-0.328101	-0.628079	0.386719	0.914063	-0.140625	1095	17_29_27_8408700
0.096680	-0.527344	0.005859	-0.168738	-0.365598	-0.609331	0.410156	0.890625	-0.140625	1096	17_29_27_8569990
0.111328	-0.524414	0.017578	-0.187486	-0.403096	-0.599956	0.363281	0.902344	-0.128906	1097	17_29_27_8731280
0.114258	-0.521484	0.020508	-0.187486	-0.431219	-0.599956	0.375000	0.914063	-0.117188	1098	17_29_27_8892570
0.102539	-0.550781	0.000000	-0.196861	-0.459342	-0.599956	0.363281	0.890625	-0.128906	1099	17_29_27_9053860
0.087891	-0.577148	0.002930	-0.206235	-0.487465	-0.609331	0.351563	0.867188	-0.152344	1100	17_29_27_9215150
0.099609	-0.600586	-0.002930	-0.215609	-0.524962	-0.618705	0.363281	0.902344	-0.152344	1101	17_29_27_9376440
0.125977	-0.618164	-0.023438	-0.224984	-0.553085	-0.628079	0.410156	0.960938	-0.152344	1102	17_29_27_9537730
0.140625	-0.621094	-0.014648	-0.224984	-0.581208	-0.637454	0.386719	0.937500	-0.152344	1103	17_29_27_9699020
0.152344	-0.624023	-0.023438	-0.224984	-0.581208	-0.637454	0.433594	0.890625	-0.164063	1104	17_29_27_9860310
0.134766	-0.670898	-0.017578	-0.224984	-0.581208	-0.628079	0.375000	0.855469	-0.164063	1105	17_29_28_0021600
0.111328	-0.814453	-0.082031	-0.224984	-0.571833	-0.637454	0.375000	0.785156	-0.175781	1106	17_29_28_0182890
0.084961	-0.861328	-0.205078	-0.290604	-0.637454	-0.674951	0.375000	0.820313	-0.140625	1107	17_29_28_0344180
0.146484	-0.791016	-0.240234	-0.365598	-0.778068	-0.693700	0.539063	0.890625	-0.117188	1108	17_29_28_0505470
0.260742	-0.706055	-0.234375	-0.374973	-0.899935	-0.703074	0.351563	0.867188	-0.152344	1109	17_29_28_0666760
0.363281	-0.644531	-0.184570	-0.393721	-0.899935	-0.703074	0.421875	0.843750	-0.128906	1110	17_29_28_0828050
0.427734	-0.591797	-0.114258	-0.412470	-0.834314	-0.712448	0.421875	0.867188	-0.128906	1111	17_29_28_0989340
0.424805	-0.527344	-0.079102	-0.421844	-0.749946	-0.712448	0.386719	0.878906	-0.105469	1112	17_29_28_1150630
0.342773	-0.468750	-0.079102	-0.449967	-0.712448	-0.693700	0.398438	0.855469	-0.128906	1113	17_29_28_1311920
0.254883	-0.457031	-0.108398	-0.468716	-0.712448	-0.674951	0.703125	0.914063	0.000000	1114	17_29_28_1473210
0.166992	-0.495117	-0.166992	-0.506213	-0.749946	-0.637454	0.492188	0.820313	-0.152344	1115	17_29_28_1634500
0.096680	-0.550781	-0.213867	-0.562459	-0.834314	-0.618705	0.421875	0.855469	-0.164063	1116	17_29_28_1795790
0.084961	-0.585938	-0.246094	-0.618705	-0.937432	-0.609331	0.457031	0.914063	0.046875	1117	17_29_28_1957080
