sensor_ID	000666015715
Accel_X	Accel_Y	Accel_Z	Roll	Pitch	Yaw	Mag_X	Mag_Y	Mag_Z	Count	SysTime
-0.181641	-0.676758	-0.161133	-0.187486	0.224984	-0.187486	0.750000	1.078125	0.632813	0	17_29_10_0856150
-0.178711	-0.673828	-0.164063	-0.196861	0.234358	-0.178112	0.738281	0.925781	0.515625	1	17_29_10_1017440
-0.187500	-0.685547	-0.164063	-0.187486	0.234358	-0.178112	0.750000	0.867188	0.492188	2	17_29_10_1178730
-0.172852	-0.688477	-0.161133	-0.196861	0.234358	-0.178112	0.761719	0.960938	0.515625	3	17_29_10_1340020
-0.181641	-0.673828	-0.152344	-0.187486	0.234358	-0.178112	0.761719	0.925781	0.515625	4	17_29_10_1501310
-0.178711	-0.676758	-0.161133	-0.196861	0.224984	-0.178112	0.726563	0.820313	0.515625	5	17_29_10_1662600
-0.181641	-0.673828	-0.158203	-0.196861	0.224984	-0.178112	0.750000	0.808594	0.562500	6	17_29_10_1823890
-0.172852	-0.676758	-0.155273	-0.196861	0.224984	-0.178112	0.714844	0.808594	0.550781	7	17_29_10_1985180
-0.181641	-0.676758	-0.166992	-0.206235	0.224984	-0.178112	0.750000	0.796875	0.539063	8	17_29_10_2146470
-0.178711	-0.665039	-0.155273	-0.196861	0.224984	-0.178112	0.773438	0.914063	0.562500	9	17_29_10_2307760
-0.166992	-0.676758	-0.158203	-0.196861	0.234358	-0.178112	0.750000	0.902344	0.527344	10	17_29_10_2469050
-0.184570	-0.676758	-0.161133	-0.196861	0.224984	-0.178112	0.785156	0.855469	0.515625	11	17_29_10_2630340
-0.187500	-0.676758	-0.161133	-0.187486	0.234358	-0.178112	0.761719	0.796875	0.527344	12	17_29_10_2791630
-0.181641	-0.685547	-0.152344	-0.196861	0.215609	-0.178112	0.761719	0.808594	0.562500	13	17_29_10_2952920
-0.184570	-0.676758	-0.155273	-0.196861	0.224984	-0.178112	0.773438	0.914063	0.515625	14	17_29_10_3114210
-0.172852	-0.673828	-0.166992	-0.196861	0.224984	-0.178112	0.750000	0.914063	0.480469	15	17_29_10_3275500
-0.164063	-0.676758	-0.166992	-0.196861	0.224984	-0.178112	0.750000	0.949219	0.515625	16	17_29_10_3436790
-0.169922	-0.673828	-0.161133	-0.196861	0.224984	-0.178112	0.750000	0.914063	0.527344	17	17_29_10_3598080
-0.166992	-0.670898	-0.164063	-0.196861	0.234358	-0.178112	0.761719	0.843750	0.515625	18	17_29_10_3759370
-0.184570	-0.670898	-0.155273	-0.196861	0.234358	-0.178112	0.773438	0.843750	0.503906	19	17_29_10_3920660
-0.190430	-0.673828	-0.158203	-0.187486	0.224984	-0.178112	0.750000	0.949219	0.503906	20	17_29_10_4081950
-0.184570	-0.676758	-0.161133	-0.196861	0.224984	-0.178112	0.761719	0.890625	0.527344	21	17_29_10_4243240
-0.184570	-0.676758	-0.161133	-0.196861	0.224984	-0.178112	0.714844	0.855469	0.503906	22	17_29_10_4404530
-0.175781	-0.667969	-0.164063	-0.196861	0.224984	-0.178112	0.773438	0.902344	0.480469	23	17_29_10_4565820
-0.175781	-0.685547	-0.149414	-0.196861	0.224984	-0.178112	0.679688	0.890625	0.515625	24	17_29_10_4727110
-0.175781	-0.670898	-0.161133	-0.196861	0.224984	-0.187486	0.726563	0.855469	0.515625	25	17_29_10_4888400
-0.184570	-0.685547	-0.155273	-0.196861	0.224984	-0.178112	0.750000	0.914063	0.527344	26	17_29_10_5049690
-0.181641	-0.691406	-0.155273	-0.196861	0.234358	-0.178112	0.750000	0.972656	0.550781	27	17_29_10_5210980
-0.178711	-0.676758	-0.158203	-0.187486	0.234358	-0.178112	0.761719	0.867188	0.550781	28	17_29_10_5372270
-0.178711	-0.679688	-0.155273	-0.196861	0.224984	-0.178112	0.726563	0.867188	0.527344	29	17_29_10_5533560
-0.169922	-0.676758	-0.161133	-0.196861	0.224984	-0.178112	0.750000	0.902344	0.515625	30	17_29_10_5694850
-0.181641	-0.685547	-0.152344	-0.196861	0.224984	-0.178112	0.761719	0.902344	0.539063	31	17_29_10_5856140
-0.184570	-0.679688	-0.164063	-0.196861	0.224984	-0.178112	0.773438	0.902344	0.515625	32	17_29_10_6017430
-0.169922	-0.679688	-0.155273	-0.196861	0.224984	-0.178112	0.738281	0.785156	0.480469	33	17_29_10_6178720
-0.172852	-0.673828	-0.149414	-0.187486	0.206235	-0.178112	0.796875	0.890625	0.515625	34	17_29_10_6340010
-0.169922	-0.676758	-0.161133	-0.187486	0.224984	-0.187486	0.761719	0.949219	0.539063	35	17_29_10_6501300
-0.169922	-0.667969	-0.152344	-0.196861	0.224984	-0.178112	0.691406	0.878906	0.515625	36	17_29_10_6662590
-0.178711	-0.679688	-0.152344	-0.196861	0.234358	-0.178112	0.773438	0.878906	0.527344	37	17_29_10_6823880
-0.175781	-0.679688	-0.155273	-0.196861	0.234358	-0.178112	0.761719	0.867188	0.539063	38	17_29_10_6985170
-0.172852	-0.679688	-0.158203	-0.196861	0.224984	-0.178112	0.738281	0.820313	0.550781	39	17_29_10_7146460
-0.181641	-0.685547	-0.158203	-0.196861	0.224984	-0.187486	0.726563	0.855469	0.562500	40	17_29_10_7307750
-0.178711	-0.670898	-0.155273	-0.196861	0.224984	-0.178112	0.761719	0.937500	0.574219	41	17_29_10_7469040
-0.169922	-0.685547	-0.143555	-0.187486	0.224984	-0.178112	0.750000	0.925781	0.562500	42	17_29_10_7630330
-0.181641	-0.679688	-0.155273	-0.196861	0.224984	-0.178112	0.773438	0.925781	0.539063	43	17_29_10_7791620
-0.166992	-0.679688	-0.152344	-0.196861	0.224984	-0.187486	0.726563	0.914063	0.503906	44	17_29_10_7952910
-0.169922	-0.676758	-0.158203	-0.196861	0.224984	-0.187486	0.726563	0.867188	0.492188	45	17_29_10_8114200
-0.172852	-0.682617	-0.166992	-0.196861	0.224984	-0.178112	0.761719	0.820313	0.515625	46	17_29_10_8275490
-0.181641	-0.682617	-0.152344	-0.196861	0.234358	-0.187486	0.750000	0.820313	0.515625	47	17_29_10_8436780
-0.178711	-0.688477	-0.158203	-0.196861	0.234358	-0.187486	0.714844	0.726563	0.480469	48	17_29_10_8598070
-0.184570	-0.679688	-0.164063	-0.196861	0.234358	-0.187486	0.761719	0.832031	0.492188	49	17_29_10_8759360
-0.178711	-0.676758	-0.161133	-0.196861	0.234358	-0.178112	0.750000	0.878906	0.539063	50	17_29_10_8920650
-0.172852	-0.676758	-0.155273	-0.196861	0.234358	-0.178112	0.750000	0.949219	0.515625	51	17_29_10_9081940
-0.172852	-0.670898	-0.158203	-0.187486	0.224984	-0.178112	0.761719	0.867188	0.503906	52	17_29_10_9243230
-0.172852	-0.665039	-0.149414	-0.196861	0.224984	-0.178112	0.761719	0.867188	0.550781	53	17_29_10_9404520
-0.178711	-0.676758	-0.146484	-0.196861	0.234358	-0.178112	0.750000	0.925781	0.562500	54	17_29_10_9565810
-0.175781	-0.667969	-0.158203	-0.187486	0.234358	-0.178112	0.761719	0.855469	0.527344	55	17_29_10_9727100
-0.175781	-0.673828	-0.155273	-0.196861	0.224984	-0.178112	0.750000	0.773438	0.527344	56	17_29_10_9888390
-0.184570	-0.673828	-0.164063	-0.196861	0.224984	-0.178112	0.761719	0.867188	0.550781	57	17_29_11_0049680
-0.187500	-0.673828	-0.152344	-0.196861	0.224984	-0.178112	0.750000	0.914063	0.539063	58	17_29_11_0210970
-0.187500	-0.679688	-0.161133	-0.187486	0.224984	-0.178112	0.750000	0.914063	0.515625	59	17_29_11_0372260
-0.175781	-0.673828	-0.152344	-0.196861	0.234358	-0.178112	0.761719	0.925781	0.503906	60	17_29_11_0533550
-0.172852	-0.667969	-0.161133	-0.196861	0.224984	-0.178112	0.726563	0.832031	0.503906	61	17_29_11_0694840
-0.172852	-0.679688	-0.146484	-0.187486	0.224984	-0.178112	0.761719	0.855469	0.503906	62	17_29_11_0856130
-0.175781	-0.676758	-0.155273	-0.196861	0.234358	-0.187486	0.761719	0.902344	0.503906	63	17_29_11_1017420
-0.172852	-0.673828	-0.161133	-0.196861	0.224984	-0.187486	0.761719	0.867188	0.515625	64	17_29_11_1178710
-0.181641	-0.673828	-0.152344	-0.196861	0.234358	-0.187486	0.726563	0.878906	0.515625	65	17_29_11_1340000
-0.184570	-0.667969	-0.158203	-0.196861	0.234358	-0.187486	0.738281	0.867188	0.515625	66	17_29_11_1501290
-0.169922	-0.667969	-0.155273	-0.196861	0.234358	-0.187486	0.738281	0.867188	0.492188	67	17_29_11_1662580
-0.193359	-0.676758	-0.164063	-0.196861	0.224984	-0.178112	0.761719	0.855469	0.515625	68	17_29_11_1823870
-0.184570	-0.673828	-0.155273	-0.196861	0.224984	-0.178112	0.750000	0.855469	0.539063	69	17_29_11_1985160
-0.181641	-0.673828	-0.149414	-0.196861	0.234358	-0.187486	0.761719	0.902344	0.515625	70	17_29_11_2146450
-0.172852	-0.676758	-0.155273	-0.187486	0.234358	-0.187486	0.761719	0.914063	0.515625	71	17_29_11_2307740
-0.181641	-0.676758	-0.152344	-0.196861	0.234358	-0.178112	0.761719	0.867188	0.539063	72	17_29_11_2469030
-0.175781	-0.670898	-0.161133	-0.196861	0.234358	-0.187486	0.750000	0.878906	0.527344	73	17_29_11_2630320
-0.184570	-0.676758	-0.152344	-0.187486	0.234358	-0.187486	0.773438	0.902344	0.539063	74	17_29_11_2791610
-0.190430	-0.676758	-0.158203	-0.187486	0.234358	-0.178112	0.750000	0.843750	0.550781	75	17_29_11_2952900
-0.178711	-0.679688	-0.161133	-0.196861	0.234358	-0.178112	0.761719	0.808594	0.539063	76	17_29_11_3114190
-0.187500	-0.679688	-0.161133	-0.196861	0.224984	-0.187486	0.761719	0.785156	0.515625	77	17_29_11_3275480
-0.175781	-0.667969	-0.158203	-0.196861	0.234358	-0.178112	0.714844	0.843750	0.503906	78	17_29_11_3436770
-0.181641	-0.676758	-0.155273	-0.187486	0.234358	-0.178112	0.750000	0.890625	0.503906	79	17_29_11_3598060
-0.178711	-0.673828	-0.152344	-0.196861	0.224984	-0.178112	0.750000	0.796875	0.492188	80	17_29_11_3759350
-0.161133	-0.673828	-0.152344	-0.196861	0.234358	-0.178112	0.656250	0.832031	0.550781	81	17_29_11_3920640
-0.172852	-0.682617	-0.158203	-0.196861	0.224984	-0.187486	0.726563	0.867188	0.550781	82	17_29_11_4081930
-0.175781	-0.685547	-0.155273	-0.196861	0.234358	-0.178112	0.761719	0.890625	0.503906	83	17_29_11_4243220
-0.196289	-0.676758	-0.161133	-0.196861	0.234358	-0.187486	0.761719	0.808594	0.539063	84	17_29_11_4404510
-0.187500	-0.676758	-0.161133	-0.196861	0.224984	-0.178112	0.750000	0.796875	0.515625	85	17_29_11_4565800
-0.184570	-0.679688	-0.158203	-0.187486	0.234358	-0.178112	0.750000	0.773438	0.492188	86	17_29_11_4727090
-0.187500	-0.673828	-0.155273	-0.187486	0.234358	-0.178112	0.832031	0.925781	0.527344	87	17_29_11_4888380
-0.169922	-0.679688	-0.161133	-0.196861	0.234358	-0.178112	0.761719	0.808594	0.527344	88	17_29_11_5049670
-0.172852	-0.673828	-0.155273	-0.187486	0.234358	-0.187486	0.738281	0.925781	0.515625	89	17_29_11_5210960
-0.181641	-0.673828	-0.161133	-0.187486	0.234358	-0.187486	0.738281	0.937500	0.527344	90	17_29_11_5372250
-0.178711	-0.679688	-0.158203	-0.187486	0.234358	-0.187486	0.726563	0.796875	0.562500	91	17_29_11_5533540
-0.187500	-0.682617	-0.158203	-0.187486	0.234358	-0.178112	0.726563	0.843750	0.550781	92	17_29_11_5694830
-0.172852	-0.676758	-0.161133	-0.187486	0.234358	-0.187486	0.761719	0.925781	0.503906	93	17_29_11_5856120
-0.178711	-0.685547	-0.161133	-0.196861	0.234358	-0.178112	0.726563	0.960938	0.492188	94	17_29_11_6017410
-0.175781	-0.670898	-0.152344	-0.196861	0.234358	-0.187486	0.773438	0.867188	0.492188	95	17_29_11_6178700
-0.172852	-0.673828	-0.164063	-0.196861	0.234358	-0.178112	0.750000	0.867188	0.503906	96	17_29_11_6339990
-0.169922	-0.682617	-0.161133	-0.196861	0.234358	-0.178112	0.785156	0.937500	0.515625	97	17_29_11_6501280
-0.181641	-0.673828	-0.161133	-0.196861	0.234358	-0.178112	0.785156	0.890625	0.539063	98	17_29_11_6662570
-0.169922	-0.673828	-0.164063	-0.196861	0.234358	-0.178112	0.773438	0.750000	0.550781	99	17_29_11_6823860
-0.169922	-0.662109	-0.164063	-0.196861	0.234358	-0.187486	0.750000	0.785156	0.539063	100	17_29_11_6985150
-0.184570	-0.682617	-0.155273	-0.187486	0.234358	-0.178112	0.761719	0.937500	0.574219	101	17_29_11_7146440
-0.169922	-0.673828	-0.155273	-0.187486	0.234358	-0.178112	0.714844	0.867188	0.503906	102	17_29_11_7307730
-0.169922	-0.676758	-0.164063	-0.187486	0.234358	-0.178112	0.750000	0.867188	0.457031	103	17_29_11_7469020
-0.184570	-0.673828	-0.149414	-0.187486	0.234358	-0.178112	0.761719	0.867188	0.515625	104	17_29_11_7630310
-0.181641	-0.673828	-0.166992	-0.196861	0.224984	-0.178112	0.761719	0.855469	0.503906	105	17_29_11_7791600
-0.172852	-0.679688	-0.158203	-0.196861	0.234358	-0.178112	0.738281	0.878906	0.480469	106	17_29_11_7952890
-0.181641	-0.682617	-0.158203	-0.196861	0.224984	-0.187486	0.761719	0.855469	0.492188	107	17_29_11_8114180
-0.166992	-0.688477	-0.166992	-0.187486	0.224984	-0.178112	0.796875	0.914063	0.492188	108	17_29_11_8275470
-0.169922	-0.673828	-0.149414	-0.196861	0.234358	-0.187486	0.738281	0.855469	0.492188	109	17_29_11_8436760
-0.181641	-0.667969	-0.166992	-0.196861	0.224984	-0.187486	0.773438	0.843750	0.468750	110	17_29_11_8598050
-0.175781	-0.688477	-0.166992	-0.196861	0.234358	-0.187486	0.750000	0.867188	0.457031	111	17_29_11_8759340
-0.181641	-0.685547	-0.164063	-0.196861	0.234358	-0.187486	0.761719	0.878906	0.492188	112	17_29_11_8920630
-0.181641	-0.667969	-0.161133	-0.196861	0.224984	-0.178112	0.714844	0.867188	0.492188	113	17_29_11_9081920
-0.187500	-0.679688	-0.161133	-0.196861	0.234358	-0.178112	0.750000	0.867188	0.503906	114	17_29_11_9243210
-0.190430	-0.670898	-0.146484	-0.187486	0.234358	-0.178112	0.750000	0.867188	0.527344	115	17_29_11_9404500
-0.175781	-0.682617	-0.152344	-0.196861	0.234358	-0.187486	0.750000	0.832031	0.539063	116	17_29_11_9565790
-0.175781	-0.676758	-0.164063	-0.196861	0.224984	-0.178112	0.750000	0.820313	0.515625	117	17_29_11_9727080
-0.184570	-0.685547	-0.155273	-0.187486	0.224984	-0.178112	0.714844	0.773438	0.527344	118	17_29_11_9888370
-0.181641	-0.673828	-0.166992	-0.187486	0.234358	-0.187486	0.679688	0.832031	0.562500	119	17_29_12_0049660
-0.184570	-0.676758	-0.161133	-0.196861	0.234358	-0.187486	0.796875	1.031250	0.550781	120	17_29_12_0210950
-0.166992	-0.679688	-0.158203	-0.196861	0.234358	-0.178112	0.773438	0.820313	0.503906	121	17_29_12_0372240
-0.172852	-0.679688	-0.161133	-0.206235	0.234358	-0.178112	0.761719	0.750000	0.503906	122	17_29_12_0533530
-0.184570	-0.673828	-0.164063	-0.196861	0.224984	-0.178112	0.808594	0.937500	0.515625	123	17_29_12_0694820
-0.190430	-0.670898	-0.161133	-0.196861	0.234358	-0.178112	0.761719	0.914063	0.515625	124	17_29_12_0856110
-0.184570	-0.676758	-0.164063	-0.187486	0.234358	-0.187486	0.738281	0.726563	0.527344	125	17_29_12_1017400
-0.184570	-0.673828	-0.161133	-0.196861	0.234358	-0.178112	0.750000	0.761719	0.515625	126	17_29_12_1178690
-0.187500	-0.679688	-0.155273	-0.196861	0.224984	-0.178112	0.761719	0.890625	0.492188	127	17_29_12_1339980
-0.172852	-0.676758	-0.161133	-0.196861	0.234358	-0.178112	0.761719	0.914063	0.527344	128	17_29_12_1501270
-0.172852	-0.673828	-0.158203	-0.187486	0.234358	-0.178112	0.867188	1.195313	0.574219	129	17_29_12_1662560
-0.181641	-0.673828	-0.169922	-0.196861	0.234358	-0.178112	0.785156	0.960938	0.527344	130	17_29_12_1823850
-0.178711	-0.670898	-0.149414	-0.196861	0.234358	-0.178112	0.761719	0.867188	0.515625	131	17_29_12_1985140
-0.181641	-0.673828	-0.152344	-0.196861	0.224984	-0.178112	0.738281	0.960938	0.503906	132	17_29_12_2146430
-0.187500	-0.682617	-0.164063	-0.196861	0.234358	-0.178112	0.726563	0.937500	0.515625	133	17_29_12_2307720
-0.172852	-0.676758	-0.161133	-0.196861	0.234358	-0.187486	0.750000	0.937500	0.539063	134	17_29_12_2469010
-0.181641	-0.676758	-0.158203	-0.196861	0.234358	-0.187486	0.761719	0.960938	0.515625	135	17_29_12_2630300
-0.178711	-0.679688	-0.158203	-0.196861	0.224984	-0.178112	0.761719	0.914063	0.527344	136	17_29_12_2791590
-0.169922	-0.673828	-0.166992	-0.196861	0.234358	-0.178112	0.738281	0.820313	0.527344	137	17_29_12_2952880
-0.181641	-0.673828	-0.161133	-0.196861	0.234358	-0.187486	0.773438	0.843750	0.492188	138	17_29_12_3114170
-0.178711	-0.673828	-0.169922	-0.187486	0.234358	-0.178112	0.761719	0.832031	0.503906	139	17_29_12_3275460
-0.169922	-0.665039	-0.158203	-0.196861	0.234358	-0.187486	0.750000	0.855469	0.503906	140	17_29_12_3436750
-0.187500	-0.682617	-0.166992	-0.196861	0.224984	-0.187486	0.714844	0.937500	0.503906	141	17_29_12_3598040
-0.175781	-0.670898	-0.161133	-0.196861	0.224984	-0.178112	0.773438	0.925781	0.515625	142	17_29_12_3759330
-0.181641	-0.665039	-0.158203	-0.196861	0.234358	-0.178112	0.796875	0.914063	0.527344	143	17_29_12_3920620
-0.178711	-0.673828	-0.152344	-0.196861	0.234358	-0.178112	0.761719	0.925781	0.515625	144	17_29_12_4081910
-0.184570	-0.691406	-0.152344	-0.187486	0.234358	-0.178112	0.750000	0.902344	0.527344	145	17_29_12_4243200
-0.181641	-0.673828	-0.161133	-0.196861	0.234358	-0.178112	0.750000	0.820313	0.515625	146	17_29_12_4404490
-0.190430	-0.676758	-0.155273	-0.187486	0.234358	-0.178112	0.761719	0.785156	0.527344	147	17_29_12_4565780
-0.181641	-0.679688	-0.152344	-0.196861	0.234358	-0.187486	0.738281	0.843750	0.550781	148	17_29_12_4727070
-0.175781	-0.682617	-0.152344	-0.187486	0.234358	-0.187486	0.937500	1.265625	0.574219	149	17_29_12_4888360
-0.178711	-0.685547	-0.152344	-0.196861	0.234358	-0.178112	0.750000	0.878906	0.527344	150	17_29_12_5049650
-0.178711	-0.685547	-0.152344	-0.196861	0.234358	-0.178112	0.761719	0.820313	0.515625	151	17_29_12_5210940
-0.184570	-0.676758	-0.155273	-0.196861	0.224984	-0.178112	0.761719	0.832031	0.492188	152	17_29_12_5372230
-0.178711	-0.679688	-0.161133	-0.196861	0.224984	-0.178112	0.726563	0.949219	0.503906	153	17_29_12_5533520
-0.169922	-0.673828	-0.161133	-0.187486	0.224984	-0.187486	0.750000	0.902344	0.503906	154	17_29_12_5694810
-0.190430	-0.673828	-0.164063	-0.196861	0.234358	-0.178112	0.750000	0.867188	0.503906	155	17_29_12_5856100
-0.181641	-0.682617	-0.155273	-0.196861	0.234358	-0.178112	0.750000	0.855469	0.527344	156	17_29_12_6017390
-0.172852	-0.682617	-0.155273	-0.196861	0.234358	-0.178112	0.750000	0.914063	0.527344	157	17_29_12_6178680
-0.181641	-0.676758	-0.155273	-0.196861	0.224984	-0.178112	0.726563	0.937500	0.492188	158	17_29_12_6339970
-0.184570	-0.673828	-0.164063	-0.187486	0.234358	-0.187486	0.738281	0.867188	0.503906	159	17_29_12_6501260
-0.175781	-0.673828	-0.155273	-0.196861	0.224984	-0.178112	0.761719	0.843750	0.527344	160	17_29_12_6662550
-0.169922	-0.667969	-0.155273	-0.187486	0.234358	-0.178112	0.796875	1.183594	0.550781	161	17_29_12_6823840
-0.190430	-0.682617	-0.155273	-0.187486	0.234358	-0.178112	0.726563	0.914063	0.492188	162	17_29_12_6985130
-0.187500	-0.676758	-0.158203	-0.187486	0.234358	-0.187486	0.773438	0.914063	0.468750	163	17_29_12_7146420
-0.175781	-0.673828	-0.152344	-0.196861	0.234358	-0.178112	0.773438	0.890625	0.480469	164	17_29_12_7307710
-0.184570	-0.673828	-0.161133	-0.196861	0.224984	-0.178112	0.750000	0.867188	0.503906	165	17_29_12_7469000
-0.178711	-0.667969	-0.158203	-0.196861	0.234358	-0.178112	0.714844	0.878906	0.527344	166	17_29_12_7630290
-0.178711	-0.662109	-0.164063	-0.196861	0.234358	-0.178112	0.750000	0.925781	0.539063	167	17_29_12_7791580
-0.187500	-0.679688	-0.161133	-0.196861	0.224984	-0.178112	0.761719	0.890625	0.527344	168	17_29_12_7952870
-0.178711	-0.679688	-0.149414	-0.196861	0.234358	-0.178112	0.796875	0.890625	0.550781	169	17_29_12_8114160
-0.181641	-0.676758	-0.166992	-0.196861	0.224984	-0.178112	0.761719	0.843750	0.550781	170	17_29_12_8275450
-0.184570	-0.673828	-0.158203	-0.196861	0.224984	-0.187486	0.750000	0.925781	0.515625	171	17_29_12_8436740
-0.178711	-0.676758	-0.161133	-0.196861	0.234358	-0.178112	0.761719	0.984375	0.503906	172	17_29_12_8598030
-0.178711	-0.676758	-0.164063	-0.206235	0.224984	-0.178112	0.750000	0.855469	0.480469	173	17_29_12_8759320
-0.175781	-0.670898	-0.155273	-0.187486	0.234358	-0.178112	0.726563	0.878906	0.503906	174	17_29_12_8920610
-0.175781	-0.665039	-0.166992	-0.196861	0.234358	-0.178112	0.750000	0.878906	0.515625	175	17_29_12_9081900
-0.178711	-0.685547	-0.149414	-0.196861	0.224984	-0.178112	0.761719	0.867188	0.515625	176	17_29_12_9243190
-0.175781	-0.679688	-0.152344	-0.196861	0.224984	-0.178112	0.750000	0.796875	0.492188	177	17_29_12_9404480
-0.178711	-0.682617	-0.158203	-0.196861	0.224984	-0.178112	0.714844	0.914063	0.492188	178	17_29_12_9565770
-0.172852	-0.676758	-0.149414	-0.196861	0.234358	-0.178112	0.726563	0.937500	0.527344	179	17_29_12_9727060
-0.169922	-0.662109	-0.155273	-0.196861	0.224984	-0.178112	0.714844	0.925781	0.515625	180	17_29_12_9888350
-0.178711	-0.673828	-0.169922	-0.196861	0.234358	-0.178112	0.855469	0.960938	0.503906	181	17_29_13_0049640
-0.181641	-0.682617	-0.158203	-0.196861	0.234358	-0.178112	0.785156	0.867188	0.492188	182	17_29_13_0210930
-0.172852	-0.662109	-0.155273	-0.187486	0.224984	-0.178112	0.761719	0.855469	0.503906	183	17_29_13_0372220
-0.181641	-0.691406	-0.152344	-0.196861	0.234358	-0.178112	0.761719	0.808594	0.515625	184	17_29_13_0533510
-0.178711	-0.673828	-0.158203	-0.196861	0.224984	-0.187486	0.726563	0.843750	0.515625	185	17_29_13_0694800
-0.187500	-0.679688	-0.158203	-0.196861	0.224984	-0.178112	0.750000	0.855469	0.527344	186	17_29_13_0856090
-0.184570	-0.673828	-0.155273	-0.196861	0.234358	-0.178112	0.750000	0.867188	0.527344	187	17_29_13_1017380
-0.178711	-0.682617	-0.169922	-0.196861	0.224984	-0.178112	0.750000	0.878906	0.539063	188	17_29_13_1178670
-0.184570	-0.673828	-0.155273	-0.196861	0.224984	-0.178112	0.750000	0.796875	0.550781	189	17_29_13_1339960
-0.181641	-0.673828	-0.164063	-0.196861	0.234358	-0.178112	0.808594	0.855469	0.503906	190	17_29_13_1501250
-0.172852	-0.670898	-0.161133	-0.196861	0.224984	-0.178112	0.750000	0.832031	0.492188	191	17_29_13_1662540
-0.181641	-0.659180	-0.155273	-0.187486	0.234358	-0.178112	0.714844	0.796875	0.539063	192	17_29_13_1823830
-0.184570	-0.676758	-0.158203	-0.196861	0.224984	-0.178112	0.750000	0.867188	0.539063	193	17_29_13_1985120
-0.184570	-0.670898	-0.155273	-0.196861	0.224984	-0.178112	0.714844	0.832031	0.503906	194	17_29_13_2146410
-0.187500	-0.688477	-0.155273	-0.196861	0.234358	-0.178112	0.714844	0.773438	0.515625	195	17_29_13_2307700
-0.184570	-0.685547	-0.155273	-0.187486	0.224984	-0.187486	0.761719	0.855469	0.527344	196	17_29_13_2468990
-0.190430	-0.673828	-0.152344	-0.187486	0.224984	-0.178112	0.750000	0.914063	0.539063	197	17_29_13_2630280
-0.184570	-0.670898	-0.161133	-0.196861	0.224984	-0.178112	0.750000	0.855469	0.550781	198	17_29_13_2791570
-0.184570	-0.665039	-0.158203	-0.196861	0.224984	-0.178112	0.750000	0.937500	0.539063	199	17_29_13_2952860
-0.169922	-0.676758	-0.152344	-0.196861	0.224984	-0.178112	0.750000	0.855469	0.503906	200	17_29_13_3114150
-0.172852	-0.665039	-0.152344	-0.196861	0.234358	-0.187486	0.761719	0.855469	0.515625	201	17_29_13_3275440
-0.172852	-0.673828	-0.155273	-0.196861	0.224984	-0.178112	0.785156	0.949219	0.539063	202	17_29_13_3436730
-0.181641	-0.673828	-0.152344	-0.196861	0.234358	-0.178112	0.726563	0.867188	0.515625	203	17_29_13_3598020
-0.184570	-0.673828	-0.161133	-0.196861	0.234358	-0.178112	0.761719	0.820313	0.492188	204	17_29_13_3759310
-0.175781	-0.673828	-0.155273	-0.196861	0.224984	-0.178112	0.761719	0.820313	0.492188	205	17_29_13_3920600
-0.184570	-0.676758	-0.149414	-0.196861	0.224984	-0.178112	0.773438	0.890625	0.515625	206	17_29_13_4081890
-0.187500	-0.673828	-0.155273	-0.187486	0.234358	-0.178112	0.761719	0.902344	0.527344	207	17_29_13_4243180
-0.181641	-0.673828	-0.149414	-0.187486	0.234358	-0.187486	0.867188	1.007813	0.527344	208	17_29_13_4404470
-0.181641	-0.679688	-0.155273	-0.187486	0.234358	-0.178112	0.761719	0.890625	0.503906	209	17_29_13_4565760
-0.181641	-0.676758	-0.152344	-0.187486	0.224984	-0.178112	0.773438	0.867188	0.503906	210	17_29_13_4727050
-0.187500	-0.670898	-0.164063	-0.196861	0.224984	-0.178112	0.750000	0.855469	0.527344	211	17_29_13_4888340
-0.181641	-0.670898	-0.164063	-0.196861	0.224984	-0.187486	0.761719	0.796875	0.527344	212	17_29_13_5049630
-0.175781	-0.667969	-0.161133	-0.196861	0.234358	-0.178112	0.761719	0.855469	0.503906	213	17_29_13_5210920
-0.190430	-0.673828	-0.155273	-0.196861	0.234358	-0.178112	0.761719	0.902344	0.480469	214	17_29_13_5372210
-0.184570	-0.673828	-0.166992	-0.196861	0.234358	-0.178112	0.691406	0.890625	0.492188	215	17_29_13_5533500
-0.169922	-0.673828	-0.158203	-0.196861	0.224984	-0.178112	0.761719	0.867188	0.480469	216	17_29_13_5694790
-0.178711	-0.676758	-0.149414	-0.196861	0.224984	-0.178112	0.726563	0.843750	0.515625	217	17_29_13_5856080
-0.175781	-0.667969	-0.161133	-0.196861	0.224984	-0.178112	0.750000	0.925781	0.503906	218	17_29_13_6017370
-0.187500	-0.673828	-0.149414	-0.196861	0.224984	-0.178112	0.750000	0.902344	0.480469	219	17_29_13_6178660
-0.169922	-0.682617	-0.152344	-0.196861	0.234358	-0.178112	0.726563	0.867188	0.515625	220	17_29_13_6339950
-0.184570	-0.676758	-0.152344	-0.196861	0.234358	-0.187486	0.750000	0.843750	0.527344	221	17_29_13_6501240
-0.181641	-0.673828	-0.152344	-0.196861	0.234358	-0.178112	0.761719	0.902344	0.503906	222	17_29_13_6662530
-0.190430	-0.685547	-0.155273	-0.206235	0.234358	-0.178112	0.750000	0.937500	0.492188	223	17_29_13_6823820
-0.175781	-0.679688	-0.164063	-0.196861	0.234358	-0.178112	0.761719	0.984375	0.480469	224	17_29_13_6985110
-0.181641	-0.667969	-0.161133	-0.196861	0.234358	-0.178112	0.773438	1.042969	0.550781	225	17_29_13_7146400
-0.175781	-0.665039	-0.158203	-0.196861	0.234358	-0.178112	0.761719	0.867188	0.527344	226	17_29_13_7307690
-0.181641	-0.685547	-0.161133	-0.196861	0.224984	-0.178112	0.750000	0.832031	0.480469	227	17_29_13_7468980
-0.181641	-0.673828	-0.155273	-0.187486	0.224984	-0.178112	0.738281	0.890625	0.480469	228	17_29_13_7630270
-0.181641	-0.670898	-0.155273	-0.196861	0.234358	-0.178112	0.750000	0.855469	0.492188	229	17_29_13_7791560
-0.178711	-0.682617	-0.158203	-0.187486	0.234358	-0.187486	0.750000	0.937500	0.503906	230	17_29_13_7952850
-0.184570	-0.694336	-0.161133	-0.187486	0.234358	-0.178112	0.726563	0.878906	0.527344	231	17_29_13_8114140
-0.172852	-0.682617	-0.155273	-0.187486	0.234358	-0.187486	0.750000	0.855469	0.503906	232	17_29_13_8275430
-0.190430	-0.679688	-0.146484	-0.196861	0.234358	-0.178112	0.773438	0.867188	0.492188	233	17_29_13_8436720
-0.184570	-0.667969	-0.143555	-0.187486	0.234358	-0.178112	0.750000	0.937500	0.515625	234	17_29_13_8598010
-0.190430	-0.679688	-0.158203	-0.196861	0.234358	-0.178112	0.738281	0.890625	0.515625	235	17_29_13_8759300
-0.175781	-0.676758	-0.155273	-0.196861	0.234358	-0.187486	0.726563	0.796875	0.515625	236	17_29_13_8920590
-0.184570	-0.667969	-0.158203	-0.196861	0.234358	-0.178112	0.750000	0.878906	0.492188	237	17_29_13_9081880
-0.172852	-0.673828	-0.158203	-0.196861	0.234358	-0.187486	0.726563	0.878906	0.503906	238	17_29_13_9243170
-0.187500	-0.673828	-0.161133	-0.187486	0.234358	-0.187486	0.750000	0.855469	0.527344	239	17_29_13_9404460
-0.172852	-0.676758	-0.158203	-0.196861	0.234358	-0.178112	0.761719	0.890625	0.527344	240	17_29_13_9565750
-0.184570	-0.679688	-0.158203	-0.196861	0.234358	-0.178112	0.796875	0.902344	0.539063	241	17_29_13_9727040
-0.181641	-0.679688	-0.155273	-0.187486	0.224984	-0.178112	0.761719	0.832031	0.550781	242	17_29_13_9888330
-0.184570	-0.679688	-0.158203	-0.187486	0.234358	-0.178112	0.878906	1.183594	0.609375	243	17_29_14_0049620
-0.184570	-0.676758	-0.152344	-0.187486	0.234358	-0.178112	0.750000	0.867188	0.527344	244	17_29_14_0210910
-0.175781	-0.673828	-0.158203	-0.187486	0.224984	-0.178112	0.750000	0.867188	0.503906	245	17_29_14_0372200
-0.164063	-0.676758	-0.152344	-0.196861	0.234358	-0.178112	0.750000	0.878906	0.527344	246	17_29_14_0533490
-0.169922	-0.676758	-0.155273	-0.187486	0.224984	-0.178112	0.761719	0.902344	0.480469	247	17_29_14_0694780
-0.178711	-0.688477	-0.155273	-0.187486	0.234358	-0.187486	0.750000	0.937500	0.503906	248	17_29_14_0856070
-0.178711	-0.673828	-0.161133	-0.187486	0.234358	-0.187486	0.773438	0.960938	0.492188	249	17_29_14_1017360
-0.181641	-0.679688	-0.161133	-0.187486	0.234358	-0.178112	0.750000	0.925781	0.480469	250	17_29_14_1178650
-0.193359	-0.676758	-0.164063	-0.196861	0.234358	-0.187486	0.761719	0.972656	0.503906	251	17_29_14_1339940
-0.187500	-0.676758	-0.155273	-0.196861	0.224984	-0.178112	0.714844	0.867188	0.503906	252	17_29_14_1501230
-0.184570	-0.670898	-0.158203	-0.196861	0.224984	-0.178112	0.761719	0.785156	0.492188	253	17_29_14_1662520
-0.169922	-0.685547	-0.152344	-0.196861	0.224984	-0.178112	0.738281	0.937500	0.492188	254	17_29_14_1823810
-0.169922	-0.670898	-0.158203	-0.187486	0.234358	-0.178112	0.750000	0.843750	0.503906	255	17_29_14_1985100
-0.181641	-0.667969	-0.155273	-0.196861	0.234358	-0.187486	0.714844	0.855469	0.468750	256	17_29_14_2146390
-0.184570	-0.676758	-0.161133	-0.196861	0.234358	-0.178112	0.750000	0.890625	0.468750	257	17_29_14_2307680
-0.181641	-0.673828	-0.146484	-0.196861	0.234358	-0.178112	0.738281	0.890625	0.492188	258	17_29_14_2468970
-0.190430	-0.676758	-0.155273	-0.196861	0.234358	-0.178112	0.750000	0.867188	0.503906	259	17_29_14_2630260
-0.181641	-0.676758	-0.152344	-0.187486	0.234358	-0.187486	0.761719	0.867188	0.539063	260	17_29_14_2791550
-0.184570	-0.676758	-0.164063	-0.196861	0.234358	-0.187486	0.761719	0.843750	0.550781	261	17_29_14_2952840
-0.178711	-0.673828	-0.158203	-0.196861	0.234358	-0.187486	0.773438	0.960938	0.539063	262	17_29_14_3114130
-0.184570	-0.685547	-0.161133	-0.196861	0.224984	-0.187486	0.738281	0.878906	0.480469	263	17_29_14_3275420
-0.181641	-0.673828	-0.152344	-0.196861	0.224984	-0.187486	0.750000	0.843750	0.515625	264	17_29_14_3436710
-0.181641	-0.673828	-0.149414	-0.187486	0.234358	-0.187486	0.750000	0.855469	0.527344	265	17_29_14_3598000
-0.166992	-0.679688	-0.158203	-0.196861	0.234358	-0.187486	0.750000	0.761719	0.515625	266	17_29_14_3759290
-0.190430	-0.665039	-0.155273	-0.196861	0.234358	-0.187486	0.750000	0.878906	0.527344	267	17_29_14_3920580
-0.181641	-0.685547	-0.149414	-0.187486	0.234358	-0.187486	0.738281	0.867188	0.503906	268	17_29_14_4081870
-0.184570	-0.676758	-0.161133	-0.196861	0.234358	-0.187486	0.750000	0.878906	0.515625	269	17_29_14_4243160
-0.181641	-0.667969	-0.158203	-0.187486	0.224984	-0.178112	0.761719	0.890625	0.503906	270	17_29_14_4404450
-0.184570	-0.679688	-0.152344	-0.196861	0.224984	-0.178112	0.726563	0.820313	0.492188	271	17_29_14_4565740
-0.172852	-0.670898	-0.161133	-0.196861	0.234358	-0.187486	0.738281	0.843750	0.492188	272	17_29_14_4727030
-0.178711	-0.673828	-0.164063	-0.196861	0.234358	-0.178112	0.761719	0.843750	0.480469	273	17_29_14_4888320
-0.187500	-0.676758	-0.143555	-0.187486	0.234358	-0.178112	0.750000	0.796875	0.503906	274	17_29_14_5049610
-0.178711	-0.679688	-0.166992	-0.196861	0.234358	-0.178112	0.761719	0.808594	0.503906	275	17_29_14_5210900
-0.172852	-0.676758	-0.155273	-0.187486	0.234358	-0.178112	0.726563	0.820313	0.539063	276	17_29_14_5372190
-0.172852	-0.676758	-0.149414	-0.187486	0.234358	-0.187486	0.750000	0.878906	0.550781	277	17_29_14_5533480
-0.181641	-0.676758	-0.158203	-0.187486	0.234358	-0.187486	0.726563	0.867188	0.527344	278	17_29_14_5694770
-0.196289	-0.682617	-0.158203	-0.187486	0.234358	-0.187486	0.750000	0.796875	0.515625	279	17_29_14_5856060
-0.181641	-0.682617	-0.152344	-0.196861	0.234358	-0.187486	0.750000	0.820313	0.515625	280	17_29_14_6017350
-0.187500	-0.676758	-0.169922	-0.187486	0.234358	-0.187486	0.738281	0.890625	0.515625	281	17_29_14_6178640
-0.193359	-0.673828	-0.155273	-0.187486	0.224984	-0.178112	0.726563	0.785156	0.527344	282	17_29_14_6339930
-0.175781	-0.682617	-0.161133	-0.187486	0.234358	-0.178112	0.738281	0.773438	0.539063	283	17_29_14_6501220
-0.181641	-0.676758	-0.169922	-0.187486	0.234358	-0.178112	0.750000	0.890625	0.515625	284	17_29_14_6662510
-0.164063	-0.679688	-0.158203	-0.196861	0.234358	-0.178112	0.726563	0.796875	0.515625	285	17_29_14_6823800
-0.190430	-0.673828	-0.155273	-0.196861	0.234358	-0.178112	0.726563	0.796875	0.515625	286	17_29_14_6985090
-0.181641	-0.673828	-0.152344	-0.196861	0.234358	-0.178112	0.750000	0.890625	0.527344	287	17_29_14_7146380
-0.178711	-0.673828	-0.164063	-0.196861	0.234358	-0.178112	0.773438	0.878906	0.527344	288	17_29_14_7307670
-0.184570	-0.679688	-0.164063	-0.196861	0.234358	-0.178112	0.773438	0.855469	0.527344	289	17_29_14_7468960
-0.178711	-0.673828	-0.149414	-0.196861	0.234358	-0.187486	0.750000	0.773438	0.515625	290	17_29_14_7630250
-0.184570	-0.679688	-0.152344	-0.196861	0.234358	-0.178112	0.761719	0.855469	0.480469	291	17_29_14_7791540
-0.190430	-0.676758	-0.161133	-0.196861	0.234358	-0.187486	0.738281	0.937500	0.480469	292	17_29_14_7952830
-0.178711	-0.685547	-0.155273	-0.187486	0.224984	-0.178112	0.750000	0.843750	0.457031	293	17_29_14_8114120
-0.175781	-0.676758	-0.155273	-0.187486	0.234358	-0.178112	0.738281	0.902344	0.515625	294	17_29_14_8275410
-0.172852	-0.676758	-0.164063	-0.196861	0.224984	-0.178112	0.785156	0.855469	0.562500	295	17_29_14_8436700
-0.184570	-0.682617	-0.155273	-0.187486	0.234358	-0.178112	0.726563	0.855469	0.515625	296	17_29_14_8597990
-0.172852	-0.673828	-0.161133	-0.196861	0.234358	-0.187486	0.761719	0.878906	0.503906	297	17_29_14_8759280
-0.184570	-0.685547	-0.158203	-0.187486	0.234358	-0.187486	0.773438	0.867188	0.527344	298	17_29_14_8920570
-0.187500	-0.685547	-0.158203	-0.187486	0.234358	-0.178112	0.726563	0.867188	0.527344	299	17_29_14_9081860
-0.181641	-0.679688	-0.161133	-0.187486	0.234358	-0.178112	0.750000	0.773438	0.503906	300	17_29_14_9243150
-0.184570	-0.667969	-0.158203	-0.196861	0.224984	-0.178112	0.761719	0.750000	0.503906	301	17_29_14_9404440
-0.172852	-0.673828	-0.161133	-0.196861	0.224984	-0.178112	0.714844	0.843750	0.515625	302	17_29_14_9565730
-0.172852	-0.676758	-0.155273	-0.196861	0.234358	-0.187486	0.750000	0.890625	0.515625	303	17_29_14_9727020
-0.184570	-0.676758	-0.158203	-0.196861	0.234358	-0.187486	0.738281	0.937500	0.480469	304	17_29_14_9888310
-0.172852	-0.685547	-0.155273	-0.196861	0.234358	-0.187486	0.750000	0.832031	0.492188	305	17_29_15_0049600
-0.184570	-0.676758	-0.158203	-0.196861	0.234358	-0.187486	0.726563	0.843750	0.503906	306	17_29_15_0210890
-0.178711	-0.667969	-0.161133	-0.196861	0.224984	-0.178112	0.773438	0.808594	0.492188	307	17_29_15_0372180
-0.187500	-0.665039	-0.164063	-0.196861	0.224984	-0.178112	0.750000	0.855469	0.515625	308	17_29_15_0533470
-0.169922	-0.670898	-0.164063	-0.187486	0.224984	-0.178112	0.750000	0.878906	0.539063	309	17_29_15_0694760
-0.178711	-0.679688	-0.161133	-0.196861	0.224984	-0.178112	0.761719	0.902344	0.550781	310	17_29_15_0856050
-0.178711	-0.679688	-0.155273	-0.187486	0.234358	-0.178112	0.773438	0.890625	0.515625	311	17_29_15_1017340
-0.181641	-0.667969	-0.155273	-0.196861	0.234358	-0.178112	0.714844	0.855469	0.492188	312	17_29_15_1178630
-0.187500	-0.676758	-0.155273	-0.196861	0.234358	-0.178112	0.761719	0.925781	0.480469	313	17_29_15_1339920
-0.184570	-0.670898	-0.155273	-0.196861	0.224984	-0.187486	0.761719	0.855469	0.480469	314	17_29_15_1501210
-0.184570	-0.676758	-0.152344	-0.187486	0.234358	-0.187486	0.738281	0.832031	0.503906	315	17_29_15_1662500
-0.181641	-0.673828	-0.158203	-0.196861	0.234358	-0.187486	0.773438	0.902344	0.527344	316	17_29_15_1823790
-0.184570	-0.673828	-0.149414	-0.196861	0.234358	-0.178112	0.750000	0.878906	0.539063	317	17_29_15_1985080
-0.181641	-0.673828	-0.146484	-0.196861	0.224984	-0.178112	0.761719	0.878906	0.515625	318	17_29_15_2146370
-0.184570	-0.676758	-0.155273	-0.196861	0.224984	-0.178112	0.750000	0.855469	0.503906	319	17_29_15_2307660
-0.172852	-0.673828	-0.155273	-0.187486	0.234358	-0.178112	0.738281	0.843750	0.515625	320	17_29_15_2468950
-0.172852	-0.667969	-0.161133	-0.187486	0.234358	-0.178112	0.750000	0.914063	0.515625	321	17_29_15_2630240
-0.169922	-0.676758	-0.155273	-0.187486	0.234358	-0.178112	0.750000	0.832031	0.503906	322	17_29_15_2791530
-0.178711	-0.676758	-0.161133	-0.196861	0.234358	-0.178112	0.714844	0.773438	0.515625	323	17_29_15_2952820
-0.184570	-0.676758	-0.152344	-0.187486	0.234358	-0.178112	0.750000	0.890625	0.503906	324	17_29_15_3114110
-0.181641	-0.682617	-0.158203	-0.187486	0.234358	-0.187486	0.726563	0.890625	0.457031	325	17_29_15_3275400
-0.178711	-0.673828	-0.161133	-0.196861	0.234358	-0.178112	0.750000	0.867188	0.503906	326	17_29_15_3436690
-0.184570	-0.667969	-0.164063	-0.196861	0.234358	-0.178112	0.750000	0.937500	0.574219	327	17_29_15_3597980
-0.175781	-0.673828	-0.164063	-0.206235	0.234358	-0.178112	0.714844	0.914063	0.539063	328	17_29_15_3759270
-0.187500	-0.673828	-0.146484	-0.196861	0.234358	-0.178112	0.750000	0.855469	0.503906	329	17_29_15_3920560
-0.178711	-0.673828	-0.155273	-0.187486	0.224984	-0.178112	0.761719	0.867188	0.539063	330	17_29_15_4081850
-0.161133	-0.679688	-0.158203	-0.187486	0.234358	-0.187486	0.761719	0.867188	0.562500	331	17_29_15_4243140
-0.184570	-0.676758	-0.158203	-0.187486	0.234358	-0.187486	0.750000	0.890625	0.550781	332	17_29_15_4404430
-0.184570	-0.688477	-0.164063	-0.196861	0.234358	-0.178112	0.750000	0.773438	0.503906	333	17_29_15_4565720
-0.187500	-0.673828	-0.155273	-0.196861	0.234358	-0.178112	0.714844	0.820313	0.503906	334	17_29_15_4727010
-0.175781	-0.679688	-0.161133	-0.187486	0.234358	-0.178112	0.796875	0.914063	0.515625	335	17_29_15_4888300
-0.172852	-0.670898	-0.155273	-0.196861	0.234358	-0.187486	0.761719	0.937500	0.503906	336	17_29_15_5049590
-0.181641	-0.673828	-0.164063	-0.187486	0.234358	-0.178112	0.738281	0.890625	0.515625	337	17_29_15_5210880
-0.178711	-0.676758	-0.161133	-0.196861	0.234358	-0.178112	0.750000	0.925781	0.503906	338	17_29_15_5372170
-0.175781	-0.667969	-0.158203	-0.196861	0.234358	-0.178112	0.750000	0.855469	0.503906	339	17_29_15_5533460
-0.178711	-0.673828	-0.152344	-0.187486	0.234358	-0.178112	0.750000	0.808594	0.527344	340	17_29_15_5694750
-0.175781	-0.676758	-0.161133	-0.196861	0.234358	-0.178112	0.750000	0.902344	0.527344	341	17_29_15_5856040
-0.175781	-0.676758	-0.164063	-0.187486	0.224984	-0.178112	0.738281	0.902344	0.527344	342	17_29_15_6017330
-0.178711	-0.673828	-0.155273	-0.196861	0.234358	-0.187486	0.761719	0.878906	0.550781	343	17_29_15_6178620
-0.187500	-0.673828	-0.155273	-0.187486	0.234358	-0.178112	0.761719	0.796875	0.550781	344	17_29_15_6339910
-0.187500	-0.676758	-0.155273	-0.187486	0.234358	-0.178112	0.761719	0.832031	0.527344	345	17_29_15_6501200
-0.193359	-0.685547	-0.164063	-0.187486	0.234358	-0.178112	0.761719	0.949219	0.539063	346	17_29_15_6662490
-0.166992	-0.676758	-0.155273	-0.196861	0.234358	-0.187486	0.761719	0.855469	0.562500	347	17_29_15_6823780
-0.181641	-0.662109	-0.149414	-0.187486	0.234358	-0.178112	0.773438	0.960938	0.539063	348	17_29_15_6985070
-0.169922	-0.679688	-0.155273	-0.196861	0.234358	-0.187486	0.714844	0.820313	0.503906	349	17_29_15_7146360
-0.190430	-0.676758	-0.161133	-0.196861	0.234358	-0.187486	0.750000	0.902344	0.503906	350	17_29_15_7307650
-0.172852	-0.679688	-0.152344	-0.187486	0.234358	-0.187486	0.761719	0.914063	0.539063	351	17_29_15_7468940
-0.190430	-0.679688	-0.155273	-0.187486	0.234358	-0.178112	0.750000	0.914063	0.515625	352	17_29_15_7630230
-0.187500	-0.673828	-0.164063	-0.196861	0.234358	-0.178112	0.761719	0.843750	0.515625	353	17_29_15_7791520
-0.169922	-0.656250	-0.172852	-0.196861	0.234358	-0.178112	0.750000	0.902344	0.527344	354	17_29_15_7952810
-0.181641	-0.670898	-0.161133	-0.196861	0.234358	-0.178112	0.761719	0.937500	0.527344	355	17_29_15_8114100
-0.184570	-0.685547	-0.161133	-0.196861	0.234358	-0.187486	0.761719	0.820313	0.515625	356	17_29_15_8275390
-0.178711	-0.676758	-0.152344	-0.187486	0.234358	-0.178112	0.914063	1.125000	0.527344	357	17_29_15_8436680
-0.187500	-0.691406	-0.161133	-0.196861	0.234358	-0.187486	0.773438	0.832031	0.503906	358	17_29_15_8597970
-0.187500	-0.676758	-0.152344	-0.187486	0.224984	-0.178112	0.750000	0.843750	0.503906	359	17_29_15_8759260
-0.172852	-0.673828	-0.155273	-0.196861	0.224984	-0.178112	0.714844	0.773438	0.539063	360	17_29_15_8920550
-0.172852	-0.667969	-0.161133	-0.187486	0.224984	-0.178112	0.750000	0.902344	0.539063	361	17_29_15_9081840
-0.172852	-0.670898	-0.164063	-0.196861	0.234358	-0.178112	0.714844	0.925781	0.503906	362	17_29_15_9243130
-0.175781	-0.673828	-0.161133	-0.187486	0.224984	-0.178112	0.726563	0.832031	0.480469	363	17_29_15_9404420
-0.175781	-0.679688	-0.158203	-0.196861	0.224984	-0.178112	0.750000	0.773438	0.503906	364	17_29_15_9565710
-0.178711	-0.676758	-0.155273	-0.196861	0.234358	-0.178112	0.750000	0.890625	0.527344	365	17_29_15_9727000
-0.181641	-0.667969	-0.158203	-0.187486	0.234358	-0.178112	0.750000	0.902344	0.503906	366	17_29_15_9888290
-0.184570	-0.665039	-0.161133	-0.196861	0.224984	-0.178112	0.761719	0.890625	0.503906	367	17_29_16_0049580
-0.181641	-0.679688	-0.158203	-0.187486	0.234358	-0.196861	0.750000	0.785156	0.515625	368	17_29_16_0210870
-0.190430	-0.676758	-0.155273	-0.196861	0.234358	-0.178112	0.761719	0.796875	0.515625	369	17_29_16_0372160
-0.184570	-0.679688	-0.158203	-0.196861	0.224984	-0.178112	0.750000	0.914063	0.539063	370	17_29_16_0533450
-0.184570	-0.673828	-0.155273	-0.196861	0.234358	-0.178112	0.703125	0.902344	0.515625	371	17_29_16_0694740
-0.184570	-0.673828	-0.155273	-0.196861	0.234358	-0.178112	0.750000	0.890625	0.503906	372	17_29_16_0856030
-0.172852	-0.665039	-0.152344	-0.196861	0.234358	-0.178112	0.761719	0.796875	0.515625	373	17_29_16_1017320
-0.181641	-0.676758	-0.149414	-0.187486	0.224984	-0.178112	0.703125	0.796875	0.550781	374	17_29_16_1178610
-0.178711	-0.673828	-0.161133	-0.196861	0.224984	-0.178112	0.785156	0.914063	0.562500	375	17_29_16_1339900
-0.184570	-0.679688	-0.161133	-0.196861	0.234358	-0.187486	0.703125	0.808594	0.527344	376	17_29_16_1501190
-0.193359	-0.688477	-0.166992	-0.187486	0.234358	-0.178112	0.750000	0.761719	0.480469	377	17_29_16_1662480
-0.184570	-0.670898	-0.155273	-0.196861	0.224984	-0.178112	0.750000	0.843750	0.492188	378	17_29_16_1823770
-0.181641	-0.667969	-0.164063	-0.196861	0.224984	-0.178112	0.750000	0.843750	0.515625	379	17_29_16_1985060
-0.178711	-0.673828	-0.152344	-0.196861	0.234358	-0.178112	0.738281	0.996094	0.503906	380	17_29_16_2146350
-0.184570	-0.679688	-0.155273	-0.196861	0.224984	-0.178112	0.714844	0.902344	0.480469	381	17_29_16_2307640
-0.178711	-0.673828	-0.149414	-0.196861	0.224984	-0.178112	0.726563	0.878906	0.492188	382	17_29_16_2468930
-0.172852	-0.679688	-0.155273	-0.187486	0.224984	-0.178112	0.738281	0.855469	0.527344	383	17_29_16_2630220
-0.184570	-0.670898	-0.161133	-0.196861	0.234358	-0.178112	0.773438	0.796875	0.585938	384	17_29_16_2791510
-0.175781	-0.679688	-0.149414	-0.196861	0.224984	-0.187486	0.773438	0.878906	0.574219	385	17_29_16_2952800
-0.178711	-0.694336	-0.166992	-0.196861	0.234358	-0.178112	0.761719	0.843750	0.503906	386	17_29_16_3114090
-0.181641	-0.679688	-0.161133	-0.196861	0.234358	-0.178112	0.761719	0.761719	0.480469	387	17_29_16_3275380
-0.196289	-0.691406	-0.164063	-0.196861	0.234358	-0.178112	0.750000	0.761719	0.445313	388	17_29_16_3436670
-0.196289	-0.667969	-0.164063	-0.196861	0.234358	-0.187486	0.761719	0.820313	0.480469	389	17_29_16_3597960
-0.184570	-0.670898	-0.152344	-0.206235	0.224984	-0.178112	0.761719	0.808594	0.527344	390	17_29_16_3759250
-0.175781	-0.670898	-0.155273	-0.196861	0.224984	-0.178112	0.773438	0.902344	0.539063	391	17_29_16_3920540
-0.166992	-0.673828	-0.155273	-0.196861	0.234358	-0.178112	0.750000	0.890625	0.503906	392	17_29_16_4081830
-0.178711	-0.682617	-0.152344	-0.196861	0.234358	-0.178112	0.750000	0.785156	0.515625	393	17_29_16_4243120
-0.184570	-0.673828	-0.158203	-0.196861	0.234358	-0.178112	0.773438	0.878906	0.515625	394	17_29_16_4404410
-0.193359	-0.673828	-0.158203	-0.196861	0.234358	-0.178112	0.738281	0.878906	0.550781	395	17_29_16_4565700
-0.175781	-0.673828	-0.149414	-0.196861	0.224984	-0.178112	0.750000	0.937500	0.574219	396	17_29_16_4726990
-0.172852	-0.667969	-0.158203	-0.196861	0.234358	-0.178112	0.750000	0.960938	0.550781	397	17_29_16_4888280
-0.190430	-0.667969	-0.158203	-0.187486	0.224984	-0.178112	0.761719	0.937500	0.527344	398	17_29_16_5049570
-0.172852	-0.679688	-0.161133	-0.187486	0.234358	-0.178112	0.855469	1.007813	0.503906	399	17_29_16_5210860
-0.184570	-0.676758	-0.161133	-0.196861	0.224984	-0.178112	0.761719	0.878906	0.503906	400	17_29_16_5372150
-0.187500	-0.679688	-0.149414	-0.187486	0.224984	-0.178112	0.750000	0.867188	0.515625	401	17_29_16_5533440
-0.166992	-0.673828	-0.161133	-0.196861	0.224984	-0.178112	0.750000	0.808594	0.492188	402	17_29_16_5694730
-0.169922	-0.673828	-0.152344	-0.196861	0.234358	-0.187486	0.726563	0.843750	0.468750	403	17_29_16_5856020
-0.166992	-0.685547	-0.158203	-0.196861	0.234358	-0.178112	0.761719	0.867188	0.480469	404	17_29_16_6017310
-0.184570	-0.685547	-0.155273	-0.187486	0.234358	-0.187486	0.726563	0.867188	0.527344	405	17_29_16_6178600
-0.181641	-0.679688	-0.155273	-0.196861	0.234358	-0.178112	0.750000	0.843750	0.515625	406	17_29_16_6339890
-0.181641	-0.685547	-0.158203	-0.196861	0.224984	-0.178112	0.738281	0.914063	0.492188	407	17_29_16_6501180
-0.181641	-0.679688	-0.155273	-0.206235	0.224984	-0.178112	0.761719	0.843750	0.527344	408	17_29_16_6662470
-0.190430	-0.682617	-0.166992	-0.206235	0.224984	-0.178112	0.750000	0.867188	0.527344	409	17_29_16_6823760
-0.181641	-0.676758	-0.155273	-0.206235	0.234358	-0.178112	0.738281	0.867188	0.492188	410	17_29_16_6985050
-0.181641	-0.685547	-0.155273	-0.206235	0.224984	-0.178112	0.761719	0.890625	0.480469	411	17_29_16_7146340
-0.190430	-0.676758	-0.161133	-0.206235	0.224984	-0.178112	0.750000	0.855469	0.527344	412	17_29_16_7307630
-0.172852	-0.685547	-0.158203	-0.206235	0.224984	-0.178112	0.750000	0.914063	0.515625	413	17_29_16_7468920
-0.181641	-0.682617	-0.164063	-0.206235	0.234358	-0.178112	0.773438	0.925781	0.480469	414	17_29_16_7630210
-0.181641	-0.667969	-0.149414	-0.206235	0.234358	-0.178112	0.761719	0.890625	0.503906	415	17_29_16_7791500
-0.175781	-0.665039	-0.152344	-0.206235	0.234358	-0.178112	0.750000	0.796875	0.515625	416	17_29_16_7952790
-0.181641	-0.679688	-0.149414	-0.196861	0.234358	-0.178112	0.714844	0.855469	0.527344	417	17_29_16_8114080
-0.184570	-0.665039	-0.152344	-0.206235	0.224984	-0.178112	0.714844	0.902344	0.539063	418	17_29_16_8275370
-0.181641	-0.676758	-0.164063	-0.196861	0.224984	-0.178112	0.726563	0.890625	0.550781	419	17_29_16_8436660
-0.175781	-0.679688	-0.161133	-0.196861	0.224984	-0.168738	0.703125	0.878906	0.527344	420	17_29_16_8597950
-0.166992	-0.676758	-0.155273	-0.196861	0.224984	-0.178112	0.761719	0.808594	0.527344	421	17_29_16_8759240
-0.193359	-0.676758	-0.149414	-0.196861	0.234358	-0.178112	0.761719	0.855469	0.527344	422	17_29_16_8920530
-0.181641	-0.679688	-0.155273	-0.206235	0.234358	-0.178112	0.761719	0.820313	0.515625	423	17_29_16_9081820
-0.169922	-0.679688	-0.149414	-0.187486	0.224984	-0.178112	0.761719	0.890625	0.527344	424	17_29_16_9243110
-0.181641	-0.676758	-0.149414	-0.196861	0.234358	-0.178112	0.750000	0.878906	0.527344	425	17_29_16_9404400
-0.169922	-0.673828	-0.146484	-0.187486	0.224984	-0.178112	0.714844	0.796875	0.515625	426	17_29_16_9565690
-0.175781	-0.670898	-0.152344	-0.187486	0.234358	-0.178112	0.750000	0.867188	0.503906	427	17_29_16_9726980
-0.172852	-0.685547	-0.149414	-0.196861	0.234358	-0.178112	0.750000	0.820313	0.515625	428	17_29_16_9888270
-0.181641	-0.682617	-0.146484	-0.187486	0.234358	-0.178112	0.714844	0.843750	0.539063	429	17_29_17_0049560
-0.187500	-0.679688	-0.152344	-0.187486	0.234358	-0.178112	0.750000	0.855469	0.539063	430	17_29_17_0210850
-0.181641	-0.691406	-0.152344	-0.196861	0.234358	-0.178112	0.808594	1.007813	0.562500	431	17_29_17_0372140
-0.184570	-0.676758	-0.152344	-0.196861	0.234358	-0.178112	0.750000	0.890625	0.539063	432	17_29_17_0533430
-0.175781	-0.682617	-0.149414	-0.187486	0.234358	-0.178112	0.750000	0.878906	0.503906	433	17_29_17_0694720
-0.175781	-0.673828	-0.143555	-0.196861	0.224984	-0.178112	0.750000	0.855469	0.527344	434	17_29_17_0856010
-0.181641	-0.673828	-0.146484	-0.196861	0.234358	-0.178112	0.726563	0.855469	0.550781	435	17_29_17_1017300
-0.181641	-0.676758	-0.152344	-0.187486	0.234358	-0.178112	0.750000	0.902344	0.527344	436	17_29_17_1178590
-0.178711	-0.673828	-0.152344	-0.187486	0.234358	-0.187486	0.761719	0.867188	0.492188	437	17_29_17_1339880
-0.184570	-0.679688	-0.155273	-0.187486	0.234358	-0.187486	0.761719	0.820313	0.492188	438	17_29_17_1501170
-0.187500	-0.691406	-0.152344	-0.196861	0.234358	-0.187486	0.750000	0.761719	0.527344	439	17_29_17_1662460
-0.190430	-0.679688	-0.155273	-0.187486	0.234358	-0.187486	0.703125	0.843750	0.550781	440	17_29_17_1823750
-0.175781	-0.676758	-0.158203	-0.196861	0.234358	-0.187486	0.750000	0.855469	0.515625	441	17_29_17_1985040
-0.172852	-0.676758	-0.152344	-0.187486	0.224984	-0.187486	0.750000	0.867188	0.515625	442	17_29_17_2146330
-0.181641	-0.673828	-0.146484	-0.187486	0.234358	-0.178112	0.785156	0.925781	0.539063	443	17_29_17_2307620
-0.184570	-0.688477	-0.155273	-0.187486	0.224984	-0.178112	0.761719	0.914063	0.550781	444	17_29_17_2468910
-0.172852	-0.673828	-0.149414	-0.187486	0.243732	-0.178112	0.750000	0.867188	0.539063	445	17_29_17_2630200
-0.181641	-0.673828	-0.155273	-0.187486	0.234358	-0.187486	0.773438	0.937500	0.539063	446	17_29_17_2791490
-0.190430	-0.673828	-0.155273	-0.196861	0.234358	-0.178112	0.714844	0.843750	0.527344	447	17_29_17_2952780
-0.175781	-0.688477	-0.166992	-0.196861	0.234358	-0.178112	0.761719	0.820313	0.515625	448	17_29_17_3114070
-0.181641	-0.688477	-0.155273	-0.187486	0.234358	-0.178112	0.773438	0.785156	0.503906	449	17_29_17_3275360
-0.175781	-0.679688	-0.164063	-0.187486	0.234358	-0.178112	0.750000	0.761719	0.503906	450	17_29_17_3436650
-0.184570	-0.676758	-0.155273	-0.187486	0.234358	-0.178112	0.785156	0.808594	0.539063	451	17_29_17_3597940
-0.193359	-0.670898	-0.161133	-0.196861	0.234358	-0.178112	0.761719	0.890625	0.550781	452	17_29_17_3759230
-0.166992	-0.670898	-0.146484	-0.187486	0.234358	-0.178112	0.785156	0.878906	0.550781	453	17_29_17_3920520
-0.172852	-0.688477	-0.149414	-0.196861	0.234358	-0.178112	0.761719	0.820313	0.480469	454	17_29_17_4081810
-0.181641	-0.679688	-0.149414	-0.206235	0.234358	-0.178112	0.761719	0.750000	0.457031	455	17_29_17_4243100
-0.166992	-0.670898	-0.158203	-0.187486	0.234358	-0.178112	0.761719	0.855469	0.492188	456	17_29_17_4404390
-0.181641	-0.688477	-0.146484	-0.187486	0.243732	-0.187486	0.773438	0.843750	0.503906	457	17_29_17_4565680
-0.181641	-0.679688	-0.155273	-0.196861	0.243732	-0.187486	0.761719	0.855469	0.503906	458	17_29_17_4726970
-0.187500	-0.676758	-0.158203	-0.187486	0.234358	-0.178112	0.773438	0.820313	0.468750	459	17_29_17_4888260
-0.184570	-0.676758	-0.152344	-0.187486	0.234358	-0.187486	0.796875	0.878906	0.480469	460	17_29_17_5049550
-0.172852	-0.679688	-0.158203	-0.196861	0.234358	-0.178112	0.808594	0.878906	0.503906	461	17_29_17_5210840
-0.181641	-0.685547	-0.166992	-0.187486	0.234358	-0.178112	0.750000	0.878906	0.527344	462	17_29_17_5372130
-0.178711	-0.676758	-0.158203	-0.187486	0.234358	-0.178112	0.750000	0.925781	0.562500	463	17_29_17_5533420
-0.181641	-0.679688	-0.149414	-0.196861	0.234358	-0.178112	0.750000	0.937500	0.562500	464	17_29_17_5694710
-0.172852	-0.673828	-0.152344	-0.196861	0.234358	-0.178112	0.750000	0.878906	0.515625	465	17_29_17_5856000
-0.190430	-0.676758	-0.161133	-0.187486	0.224984	-0.187486	0.738281	0.960938	0.539063	466	17_29_17_6017290
-0.178711	-0.676758	-0.149414	-0.196861	0.234358	-0.178112	0.750000	0.914063	0.527344	467	17_29_17_6178580
-0.184570	-0.676758	-0.155273	-0.196861	0.234358	-0.187486	0.761719	0.867188	0.457031	468	17_29_17_6339870
-0.175781	-0.673828	-0.149414	-0.196861	0.243732	-0.187486	0.761719	0.843750	0.457031	469	17_29_17_6501160
-0.172852	-0.682617	-0.158203	-0.196861	0.234358	-0.187486	0.750000	0.820313	0.480469	470	17_29_17_6662450
-0.181641	-0.665039	-0.155273	-0.187486	0.234358	-0.187486	0.738281	0.785156	0.480469	471	17_29_17_6823740
-0.184570	-0.685547	-0.158203	-0.187486	0.234358	-0.187486	0.714844	0.855469	0.457031	472	17_29_17_6985030
-0.187500	-0.673828	-0.155273	-0.187486	0.234358	-0.178112	0.726563	0.820313	0.503906	473	17_29_17_7146320
-0.184570	-0.673828	-0.155273	-0.196861	0.234358	-0.178112	0.750000	0.820313	0.527344	474	17_29_17_7307610
-0.175781	-0.685547	-0.158203	-0.187486	0.234358	-0.187486	0.714844	0.773438	0.527344	475	17_29_17_7468900
-0.178711	-0.676758	-0.155273	-0.187486	0.234358	-0.187486	0.750000	0.878906	0.527344	476	17_29_17_7630190
-0.187500	-0.673828	-0.161133	-0.196861	0.234358	-0.187486	0.714844	0.902344	0.445313	477	17_29_17_7791480
-0.190430	-0.682617	-0.161133	-0.187486	0.234358	-0.187486	0.714844	0.878906	0.457031	478	17_29_17_7952770
-0.190430	-0.673828	-0.155273	-0.196861	0.234358	-0.178112	0.761719	0.914063	0.527344	479	17_29_17_8114060
-0.178711	-0.676758	-0.158203	-0.196861	0.234358	-0.178112	0.738281	0.937500	0.539063	480	17_29_17_8275350
-0.175781	-0.670898	-0.161133	-0.196861	0.234358	-0.187486	0.761719	0.867188	0.503906	481	17_29_17_8436640
-0.181641	-0.676758	-0.152344	-0.196861	0.234358	-0.178112	0.750000	0.867188	0.503906	482	17_29_17_8597930
-0.172852	-0.679688	-0.149414	-0.196861	0.234358	-0.178112	0.750000	0.949219	0.550781	483	17_29_17_8759220
-0.184570	-0.659180	-0.155273	-0.187486	0.234358	-0.178112	0.714844	0.984375	0.574219	484	17_29_17_8920510
-0.178711	-0.670898	-0.155273	-0.196861	0.234358	-0.187486	0.750000	0.843750	0.527344	485	17_29_17_9081800
-0.175781	-0.670898	-0.155273	-0.187486	0.224984	-0.178112	0.785156	0.832031	0.550781	486	17_29_17_9243090
-0.190430	-0.682617	-0.161133	-0.187486	0.234358	-0.178112	0.738281	0.867188	0.515625	487	17_29_17_9404380
-0.175781	-0.673828	-0.161133	-0.187486	0.234358	-0.178112	0.761719	0.902344	0.503906	488	17_29_17_9565670
-0.190430	-0.685547	-0.158203	-0.187486	0.234358	-0.178112	0.714844	0.972656	0.539063	489	17_29_17_9726960
-0.187500	-0.673828	-0.161133	-0.196861	0.234358	-0.178112	0.773438	0.925781	0.550781	490	17_29_17_9888250
-0.190430	-0.676758	-0.146484	-0.196861	0.234358	-0.178112	0.761719	0.796875	0.574219	491	17_29_18_0049540
-0.175781	-0.676758	-0.152344	-0.187486	0.224984	-0.178112	0.750000	0.890625	0.539063	492	17_29_18_0210830
-0.175781	-0.685547	-0.152344	-0.196861	0.234358	-0.178112	0.714844	0.925781	0.515625	493	17_29_18_0372120
-0.175781	-0.679688	-0.158203	-0.196861	0.234358	-0.187486	0.750000	0.867188	0.527344	494	17_29_18_0533410
-0.187500	-0.685547	-0.155273	-0.196861	0.234358	-0.178112	0.761719	0.867188	0.527344	495	17_29_18_0694700
-0.181641	-0.685547	-0.155273	-0.187486	0.234358	-0.178112	0.785156	0.925781	0.515625	496	17_29_18_0855990
-0.178711	-0.676758	-0.169922	-0.187486	0.234358	-0.178112	0.761719	0.832031	0.515625	497	17_29_18_1017280
-0.175781	-0.670898	-0.161133	-0.187486	0.234358	-0.187486	0.761719	0.855469	0.503906	498	17_29_18_1178570
-0.181641	-0.673828	-0.161133	-0.196861	0.234358	-0.178112	0.750000	0.867188	0.492188	499	17_29_18_1339860
-0.175781	-0.679688	-0.166992	-0.196861	0.234358	-0.178112	0.750000	0.878906	0.492188	500	17_29_18_1501150
-0.178711	-0.685547	-0.161133	-0.196861	0.234358	-0.178112	0.761719	0.820313	0.515625	501	17_29_18_1662440
-0.184570	-0.685547	-0.164063	-0.196861	0.234358	-0.178112	0.761719	0.855469	0.515625	502	17_29_18_1823730
-0.184570	-0.676758	-0.155273	-0.196861	0.224984	-0.187486	0.773438	0.878906	0.515625	503	17_29_18_1985020
-0.172852	-0.676758	-0.166992	-0.196861	0.234358	-0.178112	0.750000	0.820313	0.527344	504	17_29_18_2146310
-0.172852	-0.673828	-0.152344	-0.196861	0.234358	-0.178112	0.761719	0.902344	0.527344	505	17_29_18_2307600
-0.181641	-0.670898	-0.164063	-0.187486	0.234358	-0.187486	0.761719	0.914063	0.527344	506	17_29_18_2468890
-0.181641	-0.679688	-0.161133	-0.196861	0.234358	-0.178112	0.761719	0.890625	0.527344	507	17_29_18_2630180
-0.181641	-0.667969	-0.164063	-0.187486	0.234358	-0.178112	0.761719	0.878906	0.503906	508	17_29_18_2791470
-0.181641	-0.691406	-0.155273	-0.196861	0.234358	-0.178112	0.750000	0.855469	0.515625	509	17_29_18_2952760
-0.175781	-0.662109	-0.155273	-0.196861	0.234358	-0.178112	0.726563	0.820313	0.562500	510	17_29_18_3114050
-0.181641	-0.679688	-0.152344	-0.196861	0.234358	-0.178112	0.726563	0.867188	0.574219	511	17_29_18_3275340
-0.181641	-0.688477	-0.149414	-0.187486	0.243732	-0.178112	0.714844	0.867188	0.539063	512	17_29_18_3436630
-0.181641	-0.673828	-0.158203	-0.187486	0.234358	-0.178112	0.750000	0.902344	0.527344	513	17_29_18_3597920
-0.181641	-0.685547	-0.164063	-0.187486	0.234358	-0.178112	0.750000	0.867188	0.527344	514	17_29_18_3759210
-0.193359	-0.682617	-0.166992	-0.187486	0.234358	-0.178112	0.750000	0.867188	0.550781	515	17_29_18_3920500
-0.178711	-0.679688	-0.164063	-0.196861	0.234358	-0.178112	0.750000	0.996094	0.550781	516	17_29_18_4081790
-0.196289	-0.682617	-0.155273	-0.206235	0.234358	-0.178112	0.750000	0.914063	0.503906	517	17_29_18_4243080
-0.175781	-0.662109	-0.155273	-0.187486	0.234358	-0.187486	0.761719	0.855469	0.527344	518	17_29_18_4404370
-0.184570	-0.676758	-0.164063	-0.187486	0.234358	-0.178112	0.750000	0.902344	0.515625	519	17_29_18_4565660
-0.181641	-0.685547	-0.166992	-0.187486	0.234358	-0.178112	0.750000	0.890625	0.539063	520	17_29_18_4726950
-0.184570	-0.676758	-0.161133	-0.196861	0.234358	-0.178112	0.703125	0.855469	0.574219	521	17_29_18_4888240
-0.178711	-0.682617	-0.158203	-0.187486	0.234358	-0.187486	0.714844	0.890625	0.539063	522	17_29_18_5049530
-0.184570	-0.667969	-0.155273	-0.196861	0.234358	-0.178112	0.750000	0.925781	0.515625	523	17_29_18_5210820
-0.181641	-0.691406	-0.161133	-0.196861	0.234358	-0.178112	0.750000	0.890625	0.503906	524	17_29_18_5372110
-0.181641	-0.673828	-0.161133	-0.196861	0.234358	-0.178112	0.750000	0.867188	0.515625	525	17_29_18_5533400
-0.184570	-0.682617	-0.161133	-0.196861	0.234358	-0.178112	0.726563	0.878906	0.492188	526	17_29_18_5694690
-0.181641	-0.679688	-0.152344	-0.206235	0.234358	-0.178112	0.691406	0.855469	0.503906	527	17_29_18_5855980
-0.181641	-0.685547	-0.149414	-0.187486	0.234358	-0.178112	0.726563	0.808594	0.550781	528	17_29_18_6017270
-0.178711	-0.670898	-0.155273	-0.187486	0.234358	-0.178112	0.726563	0.914063	0.562500	529	17_29_18_6178560
-0.178711	-0.673828	-0.155273	-0.187486	0.234358	-0.178112	0.761719	0.902344	0.527344	530	17_29_18_6339850
-0.175781	-0.676758	-0.152344	-0.196861	0.234358	-0.178112	0.726563	0.796875	0.515625	531	17_29_18_6501140
-0.181641	-0.665039	-0.164063	-0.196861	0.234358	-0.178112	0.750000	0.808594	0.515625	532	17_29_18_6662430
-0.178711	-0.673828	-0.158203	-0.196861	0.234358	-0.187486	0.761719	0.855469	0.515625	533	17_29_18_6823720
-0.181641	-0.667969	-0.155273	-0.196861	0.234358	-0.178112	0.750000	0.902344	0.480469	534	17_29_18_6985010
-0.181641	-0.676758	-0.158203	-0.187486	0.234358	-0.178112	0.738281	0.808594	0.457031	535	17_29_18_7146300
-0.181641	-0.682617	-0.164063	-0.187486	0.234358	-0.178112	0.761719	0.855469	0.468750	536	17_29_18_7307590
-0.181641	-0.679688	-0.158203	-0.196861	0.234358	-0.187486	0.750000	0.937500	0.492188	537	17_29_18_7468880
-0.175781	-0.676758	-0.161133	-0.196861	0.234358	-0.187486	0.750000	0.949219	0.539063	538	17_29_18_7630170
-0.184570	-0.673828	-0.149414	-0.196861	0.234358	-0.187486	0.761719	0.914063	0.527344	539	17_29_18_7791460
-0.172852	-0.673828	-0.164063	-0.196861	0.234358	-0.178112	0.761719	0.867188	0.539063	540	17_29_18_7952750
-0.166992	-0.685547	-0.158203	-0.196861	0.234358	-0.178112	0.750000	0.808594	0.574219	541	17_29_18_8114040
-0.181641	-0.667969	-0.158203	-0.196861	0.224984	-0.178112	0.761719	0.796875	0.515625	542	17_29_18_8275330
-0.169922	-0.673828	-0.155273	-0.196861	0.234358	-0.178112	0.761719	0.820313	0.503906	543	17_29_18_8436620
-0.175781	-0.676758	-0.152344	-0.196861	0.234358	-0.178112	0.761719	0.867188	0.503906	544	17_29_18_8597910
-0.175781	-0.676758	-0.155273	-0.187486	0.234358	-0.178112	0.796875	0.984375	0.539063	545	17_29_18_8759200
-0.172852	-0.688477	-0.161133	-0.196861	0.234358	-0.178112	0.773438	0.972656	0.550781	546	17_29_18_8920490
-0.184570	-0.673828	-0.155273	-0.187486	0.234358	-0.187486	0.750000	0.925781	0.492188	547	17_29_18_9081780
-0.181641	-0.676758	-0.164063	-0.196861	0.234358	-0.187486	0.714844	0.867188	0.492188	548	17_29_18_9243070
-0.181641	-0.673828	-0.152344	-0.187486	0.234358	-0.187486	0.726563	0.890625	0.515625	549	17_29_18_9404360
-0.184570	-0.679688	-0.161133	-0.196861	0.234358	-0.178112	0.750000	0.832031	0.503906	550	17_29_18_9565650
-0.181641	-0.682617	-0.161133	-0.196861	0.234358	-0.178112	0.750000	0.714844	0.468750	551	17_29_18_9726940
-0.172852	-0.685547	-0.158203	-0.196861	0.234358	-0.178112	0.738281	0.914063	0.468750	552	17_29_18_9888230
-0.187500	-0.676758	-0.152344	-0.196861	0.224984	-0.178112	0.761719	0.914063	0.503906	553	17_29_19_0049520
-0.175781	-0.676758	-0.166992	-0.196861	0.234358	-0.178112	0.761719	0.925781	0.539063	554	17_29_19_0210810
-0.181641	-0.673828	-0.161133	-0.196861	0.234358	-0.178112	0.750000	0.867188	0.515625	555	17_29_19_0372100
-0.178711	-0.679688	-0.155273	-0.187486	0.234358	-0.178112	0.691406	0.808594	0.492188	556	17_29_19_0533390
-0.175781	-0.676758	-0.161133	-0.196861	0.234358	-0.178112	0.750000	0.843750	0.527344	557	17_29_19_0694680
-0.181641	-0.682617	-0.149414	-0.196861	0.234358	-0.187486	0.761719	0.867188	0.515625	558	17_29_19_0855970
-0.181641	-0.670898	-0.155273	-0.196861	0.224984	-0.178112	0.761719	0.914063	0.515625	559	17_29_19_1017260
-0.169922	-0.676758	-0.158203	-0.187486	0.234358	-0.187486	0.750000	0.867188	0.492188	560	17_29_19_1178550
-0.169922	-0.685547	-0.158203	-0.196861	0.234358	-0.178112	0.738281	0.832031	0.468750	561	17_29_19_1339840
-0.181641	-0.682617	-0.158203	-0.196861	0.234358	-0.178112	0.750000	0.878906	0.503906	562	17_29_19_1501130
-0.181641	-0.673828	-0.161133	-0.187486	0.234358	-0.178112	0.750000	0.890625	0.492188	563	17_29_19_1662420
-0.184570	-0.676758	-0.169922	-0.196861	0.234358	-0.178112	0.761719	0.855469	0.480469	564	17_29_19_1823710
-0.184570	-0.673828	-0.161133	-0.196861	0.234358	-0.178112	0.761719	0.820313	0.468750	565	17_29_19_1985000
-0.181641	-0.679688	-0.146484	-0.196861	0.234358	-0.178112	0.773438	0.843750	0.515625	566	17_29_19_2146290
-0.181641	-0.673828	-0.155273	-0.196861	0.234358	-0.187486	0.726563	0.914063	0.539063	567	17_29_19_2307580
-0.178711	-0.685547	-0.158203	-0.196861	0.234358	-0.187486	0.738281	0.937500	0.492188	568	17_29_19_2468870
-0.181641	-0.667969	-0.149414	-0.206235	0.234358	-0.178112	0.738281	0.878906	0.468750	569	17_29_19_2630160
-0.175781	-0.673828	-0.155273	-0.196861	0.224984	-0.178112	0.773438	0.867188	0.468750	570	17_29_19_2791450
-0.172852	-0.679688	-0.164063	-0.187486	0.234358	-0.178112	0.750000	0.890625	0.468750	571	17_29_19_2952740
-0.169922	-0.673828	-0.158203	-0.196861	0.234358	-0.168738	0.750000	0.878906	0.503906	572	17_29_19_3114030
-0.172852	-0.679688	-0.164063	-0.196861	0.234358	-0.178112	0.761719	0.832031	0.515625	573	17_29_19_3275320
-0.181641	-0.676758	-0.161133	-0.196861	0.234358	-0.187486	0.726563	0.855469	0.480469	574	17_29_19_3436610
-0.184570	-0.676758	-0.155273	-0.196861	0.234358	-0.178112	0.808594	0.996094	0.492188	575	17_29_19_3597900
-0.178711	-0.676758	-0.155273	-0.187486	0.234358	-0.178112	0.761719	0.843750	0.480469	576	17_29_19_3759190
-0.181641	-0.685547	-0.158203	-0.187486	0.224984	-0.178112	0.738281	0.890625	0.503906	577	17_29_19_3920480
-0.184570	-0.679688	-0.152344	-0.196861	0.234358	-0.178112	0.761719	0.960938	0.527344	578	17_29_19_4081770
-0.193359	-0.665039	-0.161133	-0.196861	0.224984	-0.178112	0.714844	0.890625	0.539063	579	17_29_19_4243060
-0.169922	-0.673828	-0.152344	-0.196861	0.234358	-0.178112	0.726563	0.855469	0.527344	580	17_29_19_4404350
-0.175781	-0.676758	-0.152344	-0.196861	0.234358	-0.178112	0.761719	0.878906	0.492188	581	17_29_19_4565640
-0.169922	-0.673828	-0.155273	-0.187486	0.234358	-0.178112	0.750000	0.843750	0.515625	582	17_29_19_4726930
-0.184570	-0.673828	-0.149414	-0.196861	0.224984	-0.178112	0.691406	0.796875	0.515625	583	17_29_19_4888220
-0.187500	-0.685547	-0.155273	-0.187486	0.234358	-0.178112	0.714844	0.843750	0.515625	584	17_29_19_5049510
-0.184570	-0.697266	-0.164063	-0.196861	0.234358	-0.187486	0.738281	0.890625	0.539063	585	17_29_19_5210800
-0.190430	-0.676758	-0.155273	-0.196861	0.234358	-0.178112	0.750000	0.902344	0.503906	586	17_29_19_5372090
-0.178711	-0.676758	-0.155273	-0.196861	0.234358	-0.178112	0.761719	0.855469	0.492188	587	17_29_19_5533380
-0.187500	-0.673828	-0.152344	-0.206235	0.224984	-0.178112	0.750000	0.855469	0.503906	588	17_29_19_5694670
-0.178711	-0.682617	-0.149414	-0.196861	0.224984	-0.178112	0.738281	0.914063	0.539063	589	17_29_19_5855960
-0.181641	-0.673828	-0.161133	-0.196861	0.234358	-0.178112	0.750000	0.855469	0.562500	590	17_29_19_6017250
-0.181641	-0.685547	-0.143555	-0.196861	0.234358	-0.178112	0.761719	0.890625	0.550781	591	17_29_19_6178540
-0.175781	-0.667969	-0.155273	-0.196861	0.234358	-0.178112	0.750000	0.843750	0.503906	592	17_29_19_6339830
-0.175781	-0.676758	-0.158203	-0.196861	0.234358	-0.178112	0.750000	0.832031	0.527344	593	17_29_19_6501120
-0.178711	-0.673828	-0.155273	-0.196861	0.224984	-0.178112	0.714844	0.843750	0.550781	594	17_29_19_6662410
-0.184570	-0.673828	-0.155273	-0.196861	0.234358	-0.178112	0.714844	0.855469	0.527344	595	17_29_19_6823700
-0.196289	-0.676758	-0.161133	-0.196861	0.234358	-0.178112	0.761719	1.007813	0.527344	596	17_29_19_6984990
-0.166992	-0.673828	-0.161133	-0.187486	0.224984	-0.178112	0.761719	0.843750	0.515625	597	17_29_19_7146280
-0.181641	-0.676758	-0.155273	-0.187486	0.224984	-0.178112	0.714844	0.820313	0.503906	598	17_29_19_7307570
-0.169922	-0.679688	-0.158203	-0.187486	0.215609	-0.168738	0.761719	0.937500	0.480469	599	17_29_19_7468860
-0.172852	-0.673828	-0.155273	-0.196861	0.234358	-0.178112	0.750000	0.914063	0.503906	600	17_29_19_7630150
-0.178711	-0.667969	-0.152344	-0.196861	0.224984	-0.178112	0.750000	0.890625	0.539063	601	17_29_19_7791440
-0.181641	-0.676758	-0.149414	-0.196861	0.234358	-0.178112	0.761719	0.832031	0.550781	602	17_29_19_7952730
-0.178711	-0.679688	-0.143555	-0.187486	0.234358	-0.178112	0.773438	0.890625	0.550781	603	17_29_19_8114020
-0.184570	-0.676758	-0.155273	-0.196861	0.234358	-0.178112	0.761719	0.937500	0.539063	604	17_29_19_8275310
-0.193359	-0.667969	-0.149414	-0.196861	0.224984	-0.178112	0.750000	0.902344	0.515625	605	17_29_19_8436600
-0.181641	-0.676758	-0.152344	-0.196861	0.224984	-0.178112	0.750000	0.855469	0.515625	606	17_29_19_8597890
-0.172852	-0.676758	-0.143555	-0.196861	0.224984	-0.178112	0.714844	0.890625	0.503906	607	17_29_19_8759180
-0.175781	-0.673828	-0.158203	-0.187486	0.234358	-0.178112	0.773438	0.937500	0.527344	608	17_29_19_8920470
-0.181641	-0.685547	-0.155273	-0.187486	0.234358	-0.178112	0.761719	0.960938	0.515625	609	17_29_19_9081760
-0.178711	-0.679688	-0.161133	-0.196861	0.234358	-0.178112	0.726563	0.937500	0.527344	610	17_29_19_9243050
-0.184570	-0.676758	-0.155273	-0.187486	0.234358	-0.178112	0.761719	0.890625	0.515625	611	17_29_19_9404340
-0.175781	-0.676758	-0.152344	-0.206235	0.224984	-0.178112	0.750000	0.867188	0.527344	612	17_29_19_9565630
-0.184570	-0.673828	-0.152344	-0.196861	0.234358	-0.178112	0.738281	0.890625	0.515625	613	17_29_19_9726920
-0.184570	-0.673828	-0.155273	-0.196861	0.234358	-0.187486	0.738281	0.890625	0.480469	614	17_29_19_9888210
-0.187500	-0.673828	-0.152344	-0.196861	0.234358	-0.178112	0.761719	0.890625	0.480469	615	17_29_20_0049500
-0.187500	-0.673828	-0.152344	-0.196861	0.224984	-0.178112	0.761719	0.796875	0.480469	616	17_29_20_0210790
-0.178711	-0.673828	-0.161133	-0.196861	0.234358	-0.178112	0.714844	0.808594	0.480469	617	17_29_20_0372080
-0.172852	-0.682617	-0.155273	-0.196861	0.234358	-0.178112	0.761719	0.820313	0.527344	618	17_29_20_0533370
-0.181641	-0.679688	-0.155273	-0.187486	0.234358	-0.178112	0.761719	0.773438	0.515625	619	17_29_20_0694660
-0.178711	-0.673828	-0.149414	-0.196861	0.234358	-0.178112	0.785156	0.890625	0.503906	620	17_29_20_0855950
-0.178711	-0.679688	-0.158203	-0.196861	0.234358	-0.187486	0.773438	0.890625	0.492188	621	17_29_20_1017240
-0.181641	-0.667969	-0.149414	-0.196861	0.234358	-0.178112	0.738281	0.914063	0.492188	622	17_29_20_1178530
-0.172852	-0.667969	-0.161133	-0.196861	0.234358	-0.178112	0.761719	0.867188	0.503906	623	17_29_20_1339820
-0.190430	-0.673828	-0.155273	-0.196861	0.234358	-0.178112	0.714844	0.890625	0.492188	624	17_29_20_1501110
-0.169922	-0.679688	-0.152344	-0.196861	0.234358	-0.178112	0.714844	0.867188	0.480469	625	17_29_20_1662400
-0.178711	-0.667969	-0.146484	-0.187486	0.234358	-0.178112	0.761719	0.796875	0.515625	626	17_29_20_1823690
-0.169922	-0.676758	-0.146484	-0.187486	0.234358	-0.178112	0.738281	0.867188	0.527344	627	17_29_20_1984980
-0.169922	-0.673828	-0.152344	-0.196861	0.234358	-0.178112	0.773438	0.867188	0.527344	628	17_29_20_2146270
-0.181641	-0.691406	-0.155273	-0.187486	0.234358	-0.178112	0.738281	0.914063	0.515625	629	17_29_20_2307560
-0.181641	-0.685547	-0.166992	-0.187486	0.234358	-0.178112	0.761719	0.914063	0.515625	630	17_29_20_2468850
-0.181641	-0.682617	-0.164063	-0.187486	0.234358	-0.178112	0.761719	0.937500	0.527344	631	17_29_20_2630140
-0.184570	-0.673828	-0.155273	-0.187486	0.234358	-0.178112	0.738281	0.878906	0.480469	632	17_29_20_2791430
-0.181641	-0.662109	-0.158203	-0.196861	0.234358	-0.178112	0.750000	0.867188	0.492188	633	17_29_20_2952720
-0.178711	-0.673828	-0.161133	-0.196861	0.234358	-0.178112	0.714844	0.925781	0.515625	634	17_29_20_3114010
-0.181641	-0.673828	-0.161133	-0.196861	0.234358	-0.178112	0.714844	0.937500	0.503906	635	17_29_20_3275300
-0.184570	-0.667969	-0.149414	-0.187486	0.234358	-0.178112	0.750000	0.902344	0.503906	636	17_29_20_3436590
-0.178711	-0.679688	-0.158203	-0.187486	0.234358	-0.178112	0.750000	0.820313	0.527344	637	17_29_20_3597880
-0.193359	-0.679688	-0.149414	-0.187486	0.234358	-0.196861	0.761719	0.855469	0.515625	638	17_29_20_3759170
-0.184570	-0.676758	-0.155273	-0.187486	0.234358	-0.178112	0.761719	0.949219	0.480469	639	17_29_20_3920460
-0.184570	-0.665039	-0.158203	-0.187486	0.234358	-0.178112	0.761719	0.914063	0.503906	640	17_29_20_4081750
-0.181641	-0.676758	-0.161133	-0.187486	0.234358	-0.178112	0.750000	0.914063	0.527344	641	17_29_20_4243040
-0.178711	-0.688477	-0.161133	-0.187486	0.234358	-0.178112	0.761719	0.843750	0.527344	642	17_29_20_4404330
-0.184570	-0.676758	-0.158203	-0.196861	0.234358	-0.178112	0.750000	0.867188	0.527344	643	17_29_20_4565620
-0.181641	-0.673828	-0.155273	-0.196861	0.234358	-0.178112	0.750000	0.902344	0.539063	644	17_29_20_4726910
-0.184570	-0.673828	-0.152344	-0.196861	0.234358	-0.178112	0.703125	0.914063	0.527344	645	17_29_20_4888200
-0.178711	-0.682617	-0.149414	-0.196861	0.234358	-0.187486	0.761719	0.890625	0.527344	646	17_29_20_5049490
-0.175781	-0.679688	-0.166992	-0.196861	0.234358	-0.178112	0.750000	0.843750	0.527344	647	17_29_20_5210780
-0.184570	-0.685547	-0.152344	-0.187486	0.234358	-0.187486	0.855469	1.066406	0.550781	648	17_29_20_5372070
-0.175781	-0.682617	-0.149414	-0.196861	0.234358	-0.187486	0.750000	0.937500	0.539063	649	17_29_20_5533360
-0.187500	-0.667969	-0.164063	-0.196861	0.234358	-0.178112	0.750000	0.878906	0.539063	650	17_29_20_5694650
-0.181641	-0.667969	-0.164063	-0.196861	0.234358	-0.178112	0.761719	0.902344	0.527344	651	17_29_20_5855940
-0.172852	-0.673828	-0.158203	-0.196861	0.234358	-0.178112	0.773438	0.867188	0.515625	652	17_29_20_6017230
-0.187500	-0.673828	-0.152344	-0.187486	0.234358	-0.178112	0.750000	0.902344	0.539063	653	17_29_20_6178520
-0.181641	-0.676758	-0.143555	-0.187486	0.234358	-0.178112	0.750000	0.867188	0.550781	654	17_29_20_6339810
-0.184570	-0.673828	-0.161133	-0.187486	0.234358	-0.178112	0.738281	0.902344	0.527344	655	17_29_20_6501100
-0.184570	-0.682617	-0.161133	-0.187486	0.224984	-0.178112	0.714844	0.890625	0.527344	656	17_29_20_6662390
-0.187500	-0.670898	-0.146484	-0.196861	0.234358	-0.178112	0.714844	0.855469	0.539063	657	17_29_20_6823680
-0.175781	-0.676758	-0.152344	-0.196861	0.234358	-0.178112	0.726563	0.832031	0.527344	658	17_29_20_6984970
-0.187500	-0.673828	-0.158203	-0.196861	0.234358	-0.178112	0.773438	0.890625	0.468750	659	17_29_20_7146260
-0.187500	-0.679688	-0.155273	-0.196861	0.234358	-0.178112	0.750000	0.867188	0.468750	660	17_29_20_7307550
-0.181641	-0.667969	-0.166992	-0.196861	0.234358	-0.178112	0.750000	0.925781	0.527344	661	17_29_20_7468840
-0.187500	-0.688477	-0.161133	-0.196861	0.234358	-0.187486	0.738281	0.855469	0.527344	662	17_29_20_7630130
-0.184570	-0.667969	-0.149414	-0.196861	0.234358	-0.187486	0.714844	0.843750	0.468750	663	17_29_20_7791420
-0.178711	-0.676758	-0.155273	-0.196861	0.234358	-0.178112	0.750000	0.832031	0.468750	664	17_29_20_7952710
-0.175781	-0.673828	-0.158203	-0.196861	0.234358	-0.187486	0.761719	0.832031	0.503906	665	17_29_20_8114000
-0.172852	-0.679688	-0.161133	-0.196861	0.234358	-0.178112	0.761719	0.867188	0.503906	666	17_29_20_8275290
-0.184570	-0.667969	-0.155273	-0.196861	0.234358	-0.178112	0.750000	0.867188	0.527344	667	17_29_20_8436580
-0.187500	-0.685547	-0.155273	-0.196861	0.234358	-0.178112	0.761719	0.832031	0.574219	668	17_29_20_8597870
-0.181641	-0.679688	-0.155273	-0.196861	0.224984	-0.178112	0.750000	0.960938	0.574219	669	17_29_20_8759160
-0.175781	-0.673828	-0.152344	-0.187486	0.234358	-0.178112	0.773438	0.914063	0.503906	670	17_29_20_8920450
-0.178711	-0.673828	-0.152344	-0.187486	0.224984	-0.178112	0.714844	0.832031	0.468750	671	17_29_20_9081740
-0.178711	-0.670898	-0.155273	-0.187486	0.234358	-0.178112	0.750000	0.843750	0.527344	672	17_29_20_9243030
-0.178711	-0.667969	-0.152344	-0.187486	0.224984	-0.178112	0.738281	0.914063	0.539063	673	17_29_20_9404320
-0.184570	-0.688477	-0.161133	-0.187486	0.234358	-0.187486	0.750000	0.773438	0.539063	674	17_29_20_9565610
-0.187500	-0.685547	-0.155273	-0.187486	0.234358	-0.178112	0.761719	0.820313	0.574219	675	17_29_20_9726900
-0.187500	-0.685547	-0.161133	-0.187486	0.243732	-0.187486	0.714844	0.972656	0.550781	676	17_29_20_9888190
-0.184570	-0.673828	-0.164063	-0.196861	0.234358	-0.178112	0.761719	0.890625	0.492188	677	17_29_21_0049480
-0.184570	-0.673828	-0.155273	-0.196861	0.234358	-0.178112	0.761719	0.878906	0.503906	678	17_29_21_0210770
-0.190430	-0.673828	-0.155273	-0.196861	0.234358	-0.178112	0.750000	0.843750	0.527344	679	17_29_21_0372060
-0.172852	-0.676758	-0.161133	-0.196861	0.224984	-0.178112	0.750000	0.843750	0.515625	680	17_29_21_0533350
-0.181641	-0.685547	-0.161133	-0.196861	0.234358	-0.178112	0.785156	0.914063	0.480469	681	17_29_21_0694640
-0.169922	-0.667969	-0.155273	-0.196861	0.243732	-0.178112	0.738281	0.890625	0.527344	682	17_29_21_0855930
-0.175781	-0.676758	-0.155273	-0.196861	0.234358	-0.178112	0.726563	0.855469	0.515625	683	17_29_21_1017220
-0.184570	-0.667969	-0.161133	-0.187486	0.234358	-0.178112	0.750000	0.867188	0.503906	684	17_29_21_1178510
-0.172852	-0.673828	-0.164063	-0.196861	0.234358	-0.178112	0.750000	0.914063	0.515625	685	17_29_21_1339800
-0.181641	-0.679688	-0.161133	-0.187486	0.234358	-0.187486	0.750000	0.843750	0.515625	686	17_29_21_1501090
-0.187500	-0.679688	-0.158203	-0.187486	0.234358	-0.178112	0.714844	0.867188	0.503906	687	17_29_21_1662380
-0.175781	-0.679688	-0.161133	-0.187486	0.234358	-0.178112	0.761719	0.832031	0.503906	688	17_29_21_1823670
-0.181641	-0.682617	-0.158203	-0.187486	0.234358	-0.178112	0.726563	0.937500	0.503906	689	17_29_21_1984960
-0.172852	-0.688477	-0.152344	-0.196861	0.234358	-0.187486	0.761719	0.902344	0.527344	690	17_29_21_2146250
-0.175781	-0.685547	-0.155273	-0.196861	0.234358	-0.178112	0.750000	0.773438	0.550781	691	17_29_21_2307540
-0.178711	-0.679688	-0.158203	-0.196861	0.234358	-0.178112	0.773438	0.691406	0.527344	692	17_29_21_2468830
-0.181641	-0.685547	-0.158203	-0.196861	0.234358	-0.178112	0.726563	0.726563	0.492188	693	17_29_21_2630120
-0.184570	-0.673828	-0.169922	-0.187486	0.234358	-0.178112	0.750000	0.867188	0.492188	694	17_29_21_2791410
-0.181641	-0.679688	-0.166992	-0.196861	0.224984	-0.178112	0.750000	0.914063	0.503906	695	17_29_21_2952700
-0.169922	-0.679688	-0.164063	-0.196861	0.234358	-0.178112	0.761719	0.949219	0.515625	696	17_29_21_3113990
-0.184570	-0.676758	-0.164063	-0.196861	0.234358	-0.178112	0.726563	0.984375	0.550781	697	17_29_21_3275280
-0.178711	-0.676758	-0.158203	-0.196861	0.234358	-0.178112	0.750000	0.949219	0.550781	698	17_29_21_3436570
-0.178711	-0.673828	-0.158203	-0.196861	0.234358	-0.178112	0.750000	0.960938	0.503906	699	17_29_21_3597860
-0.181641	-0.670898	-0.169922	-0.187486	0.234358	-0.178112	0.750000	0.914063	0.515625	700	17_29_21_3759150
-0.184570	-0.679688	-0.161133	-0.196861	0.234358	-0.178112	0.761719	0.867188	0.539063	701	17_29_21_3920440
-0.175781	-0.673828	-0.149414	-0.196861	0.234358	-0.187486	0.726563	0.902344	0.527344	702	17_29_21_4081730
-0.178711	-0.676758	-0.155273	-0.196861	0.234358	-0.178112	0.703125	0.878906	0.503906	703	17_29_21_4243020
-0.184570	-0.673828	-0.155273	-0.196861	0.234358	-0.178112	0.738281	0.867188	0.527344	704	17_29_21_4404310
-0.178711	-0.676758	-0.155273	-0.196861	0.234358	-0.178112	0.726563	0.925781	0.539063	705	17_29_21_4565600
-0.184570	-0.667969	-0.155273	-0.196861	0.234358	-0.178112	0.750000	0.890625	0.550781	706	17_29_21_4726890
-0.181641	-0.667969	-0.164063	-0.196861	0.234358	-0.187486	0.761719	0.867188	0.527344	707	17_29_21_4888180
-0.175781	-0.676758	-0.169922	-0.196861	0.234358	-0.178112	0.761719	0.878906	0.527344	708	17_29_21_5049470
-0.175781	-0.670898	-0.152344	-0.187486	0.234358	-0.178112	0.761719	0.890625	0.527344	709	17_29_21_5210760
-0.169922	-0.679688	-0.152344	-0.196861	0.234358	-0.178112	0.761719	0.867188	0.503906	710	17_29_21_5372050
-0.175781	-0.679688	-0.166992	-0.196861	0.234358	-0.187486	0.785156	0.914063	0.503906	711	17_29_21_5533340
-0.181641	-0.673828	-0.158203	-0.196861	0.234358	-0.178112	0.761719	0.867188	0.480469	712	17_29_21_5694630
-0.187500	-0.673828	-0.155273	-0.196861	0.234358	-0.178112	0.761719	0.914063	0.492188	713	17_29_21_5855920
-0.178711	-0.673828	-0.155273	-0.196861	0.234358	-0.178112	0.761719	0.890625	0.539063	714	17_29_21_6017210
-0.181641	-0.676758	-0.158203	-0.196861	0.234358	-0.178112	0.714844	0.832031	0.527344	715	17_29_21_6178500
-0.190430	-0.670898	-0.161133	-0.196861	0.224984	-0.178112	0.714844	0.890625	0.527344	716	17_29_21_6339790
-0.175781	-0.665039	-0.155273	-0.196861	0.234358	-0.178112	0.714844	0.949219	0.539063	717	17_29_21_6501080
-0.169922	-0.676758	-0.152344	-0.187486	0.234358	-0.178112	0.785156	0.949219	0.527344	718	17_29_21_6662370
-0.181641	-0.679688	-0.158203	-0.187486	0.234358	-0.178112	0.750000	0.820313	0.503906	719	17_29_21_6823660
-0.181641	-0.691406	-0.155273	-0.196861	0.234358	-0.178112	0.750000	0.949219	0.503906	720	17_29_21_6984950
-0.181641	-0.673828	-0.155273	-0.187486	0.234358	-0.178112	0.750000	0.832031	0.503906	721	17_29_21_7146240
-0.184570	-0.679688	-0.161133	-0.187486	0.234358	-0.178112	0.761719	0.855469	0.503906	722	17_29_21_7307530
-0.187500	-0.662109	-0.164063	-0.196861	0.234358	-0.178112	0.750000	0.867188	0.539063	723	17_29_21_7468820
-0.181641	-0.670898	-0.152344	-0.187486	0.234358	-0.178112	0.761719	0.820313	0.550781	724	17_29_21_7630110
-0.181641	-0.665039	-0.158203	-0.196861	0.234358	-0.178112	0.750000	0.773438	0.539063	725	17_29_21_7791400
-0.175781	-0.676758	-0.155273	-0.196861	0.234358	-0.178112	0.761719	0.750000	0.550781	726	17_29_21_7952690
-0.178711	-0.667969	-0.152344	-0.187486	0.234358	-0.178112	0.773438	0.914063	0.539063	727	17_29_21_8113980
-0.178711	-0.685547	-0.158203	-0.196861	0.234358	-0.178112	0.750000	0.914063	0.503906	728	17_29_21_8275270
-0.184570	-0.676758	-0.161133	-0.196861	0.234358	-0.178112	0.761719	0.773438	0.457031	729	17_29_21_8436560
-0.181641	-0.676758	-0.166992	-0.196861	0.234358	-0.178112	0.750000	0.820313	0.492188	730	17_29_21_8597850
-0.181641	-0.673828	-0.152344	-0.187486	0.234358	-0.178112	0.761719	0.867188	0.492188	731	17_29_21_8759140
-0.178711	-0.673828	-0.166992	-0.196861	0.224984	-0.178112	0.773438	0.796875	0.492188	732	17_29_21_8920430
-0.181641	-0.673828	-0.161133	-0.196861	0.224984	-0.178112	0.738281	0.750000	0.515625	733	17_29_21_9081720
-0.178711	-0.673828	-0.166992	-0.196861	0.224984	-0.178112	0.726563	0.914063	0.515625	734	17_29_21_9243010
-0.172852	-0.676758	-0.155273	-0.187486	0.224984	-0.178112	0.703125	0.925781	0.503906	735	17_29_21_9404300
-0.172852	-0.673828	-0.158203	-0.196861	0.234358	-0.178112	0.750000	0.867188	0.503906	736	17_29_21_9565590
-0.169922	-0.676758	-0.149414	-0.196861	0.234358	-0.178112	0.750000	0.925781	0.527344	737	17_29_21_9726880
-0.172852	-0.676758	-0.158203	-0.187486	0.224984	-0.187486	0.750000	0.878906	0.480469	738	17_29_21_9888170
-0.193359	-0.679688	-0.152344	-0.196861	0.234358	-0.178112	0.750000	0.855469	0.503906	739	17_29_22_0049460
-0.181641	-0.679688	-0.161133	-0.196861	0.234358	-0.178112	0.726563	0.867188	0.515625	740	17_29_22_0210750
-0.184570	-0.670898	-0.164063	-0.196861	0.234358	-0.178112	0.726563	0.855469	0.503906	741	17_29_22_0372040
-0.187500	-0.673828	-0.166992	-0.196861	0.224984	-0.178112	0.761719	0.960938	0.503906	742	17_29_22_0533330
-0.181641	-0.673828	-0.155273	-0.196861	0.224984	-0.178112	0.761719	0.925781	0.503906	743	17_29_22_0694620
-0.187500	-0.673828	-0.158203	-0.196861	0.234358	-0.178112	0.750000	0.796875	0.503906	744	17_29_22_0855910
-0.178711	-0.676758	-0.152344	-0.196861	0.224984	-0.178112	0.750000	0.855469	0.503906	745	17_29_22_1017200
-0.193359	-0.685547	-0.152344	-0.196861	0.234358	-0.178112	0.761719	0.937500	0.527344	746	17_29_22_1178490
-0.178711	-0.682617	-0.155273	-0.196861	0.224984	-0.178112	0.773438	0.855469	0.527344	747	17_29_22_1339780
-0.169922	-0.673828	-0.161133	-0.196861	0.224984	-0.178112	0.750000	0.867188	0.539063	748	17_29_22_1501070
-0.190430	-0.665039	-0.158203	-0.196861	0.234358	-0.178112	0.726563	0.890625	0.539063	749	17_29_22_1662360
-0.178711	-0.670898	-0.149414	-0.196861	0.234358	-0.178112	0.796875	1.007813	0.527344	750	17_29_22_1823650
-0.172852	-0.676758	-0.152344	-0.196861	0.224984	-0.178112	0.761719	0.855469	0.527344	751	17_29_22_1984940
-0.181641	-0.682617	-0.155273	-0.196861	0.224984	-0.178112	0.750000	0.855469	0.539063	752	17_29_22_2146230
-0.190430	-0.673828	-0.161133	-0.187486	0.224984	-0.178112	0.738281	0.855469	0.550781	753	17_29_22_2307520
-0.169922	-0.673828	-0.146484	-0.196861	0.224984	-0.178112	0.761719	0.878906	0.515625	754	17_29_22_2468810
-0.169922	-0.679688	-0.155273	-0.196861	0.224984	-0.178112	0.656250	0.843750	0.539063	755	17_29_22_2630100
-0.187500	-0.676758	-0.146484	-0.187486	0.234358	-0.178112	0.750000	0.867188	0.539063	756	17_29_22_2791390
-0.181641	-0.673828	-0.146484	-0.196861	0.234358	-0.178112	0.714844	0.937500	0.492188	757	17_29_22_2952680
-0.193359	-0.673828	-0.149414	-0.196861	0.234358	-0.178112	0.750000	0.914063	0.539063	758	17_29_22_3113970
-0.181641	-0.665039	-0.152344	-0.187486	0.234358	-0.178112	0.726563	0.937500	0.539063	759	17_29_22_3275260
-0.166992	-0.679688	-0.158203	-0.187486	0.224984	-0.178112	0.761719	0.867188	0.503906	760	17_29_22_3436550
-0.190430	-0.691406	-0.158203	-0.187486	0.224984	-0.178112	0.726563	0.949219	0.539063	761	17_29_22_3597840
-0.178711	-0.676758	-0.166992	-0.187486	0.224984	-0.187486	0.750000	0.972656	0.550781	762	17_29_22_3759130
-0.172852	-0.673828	-0.166992	-0.196861	0.234358	-0.178112	0.750000	0.890625	0.503906	763	17_29_22_3920420
-0.181641	-0.673828	-0.152344	-0.196861	0.234358	-0.178112	0.703125	0.855469	0.492188	764	17_29_22_4081710
-0.172852	-0.673828	-0.155273	-0.196861	0.234358	-0.178112	0.750000	0.902344	0.515625	765	17_29_22_4243000
-0.184570	-0.676758	-0.164063	-0.187486	0.234358	-0.178112	0.726563	0.890625	0.550781	766	17_29_22_4404290
-0.190430	-0.673828	-0.155273	-0.196861	0.234358	-0.178112	0.761719	0.867188	0.515625	767	17_29_22_4565580
-0.193359	-0.667969	-0.161133	-0.196861	0.224984	-0.178112	0.750000	0.820313	0.527344	768	17_29_22_4726870
-0.181641	-0.688477	-0.152344	-0.196861	0.234358	-0.178112	0.738281	0.808594	0.527344	769	17_29_22_4888160
-0.184570	-0.665039	-0.155273	-0.196861	0.224984	-0.178112	0.761719	0.855469	0.457031	770	17_29_22_5049450
-0.175781	-0.673828	-0.166992	-0.196861	0.224984	-0.178112	0.750000	0.843750	0.457031	771	17_29_22_5210740
-0.169922	-0.685547	-0.166992	-0.196861	0.234358	-0.168738	0.703125	0.808594	0.527344	772	17_29_22_5372030
-0.175781	-0.667969	-0.158203	-0.187486	0.234358	-0.178112	0.750000	0.890625	0.527344	773	17_29_22_5533320
-0.172852	-0.673828	-0.161133	-0.196861	0.224984	-0.178112	0.808594	0.937500	0.527344	774	17_29_22_5694610
-0.175781	-0.685547	-0.155273	-0.187486	0.234358	-0.178112	0.750000	0.914063	0.527344	775	17_29_22_5855900
-0.181641	-0.685547	-0.149414	-0.196861	0.224984	-0.178112	0.750000	0.902344	0.550781	776	17_29_22_6017190
-0.187500	-0.679688	-0.166992	-0.196861	0.224984	-0.178112	0.750000	0.949219	0.550781	777	17_29_22_6178480
-0.181641	-0.673828	-0.155273	-0.196861	0.206235	-0.168738	0.750000	0.937500	0.550781	778	17_29_22_6339770
-0.169922	-0.673828	-0.149414	-0.196861	0.206235	-0.159363	0.750000	0.890625	0.539063	779	17_29_22_6501060
-0.172852	-0.673828	-0.158203	-0.196861	0.206235	-0.149989	0.738281	0.890625	0.527344	780	17_29_22_6662350
-0.164063	-0.673828	-0.137695	-0.187486	0.215609	-0.149989	0.714844	0.855469	0.550781	781	17_29_22_6823640
-0.149414	-0.667969	-0.137695	-0.168738	0.234358	-0.159363	0.761719	0.867188	0.550781	782	17_29_22_6984930
-0.149414	-0.676758	-0.155273	-0.159363	0.243732	-0.187486	0.738281	0.867188	0.527344	783	17_29_22_7146220
-0.178711	-0.676758	-0.172852	-0.168738	0.262481	-0.215609	0.750000	0.820313	0.515625	784	17_29_22_7307510
-0.231445	-0.691406	-0.158203	-0.187486	0.243732	-0.224984	0.738281	0.820313	0.515625	785	17_29_22_7468800
-0.216797	-0.685547	-0.155273	-0.187486	0.206235	-0.206235	0.761719	0.820313	0.527344	786	17_29_22_7630090
-0.172852	-0.679688	-0.169922	-0.187486	0.178112	-0.196861	0.750000	0.785156	0.492188	787	17_29_22_7791380
-0.164063	-0.662109	-0.161133	-0.187486	0.168738	-0.215609	0.714844	0.738281	0.468750	788	17_29_22_7952670
-0.169922	-0.662109	-0.155273	-0.178112	0.187486	-0.215609	0.750000	0.843750	0.492188	789	17_29_22_8113960
-0.190430	-0.656250	-0.166992	-0.168738	0.206235	-0.215609	0.761719	0.832031	0.527344	790	17_29_22_8275250
-0.216797	-0.667969	-0.164063	-0.168738	0.206235	-0.206235	0.773438	0.878906	0.527344	791	17_29_22_8436540
-0.213867	-0.679688	-0.172852	-0.168738	0.187486	-0.187486	0.761719	0.890625	0.527344	792	17_29_22_8597830
-0.193359	-0.676758	-0.178711	-0.178112	0.168738	-0.178112	0.761719	0.820313	0.527344	793	17_29_22_8759120
-0.210938	-0.665039	-0.166992	-0.168738	0.149989	-0.178112	0.714844	0.843750	0.492188	794	17_29_22_8920410
-0.196289	-0.653320	-0.146484	-0.159363	0.149989	-0.178112	0.761719	0.843750	0.527344	795	17_29_22_9081700
-0.199219	-0.665039	-0.164063	-0.149989	0.149989	-0.178112	0.761719	0.890625	0.527344	796	17_29_22_9242990
-0.208008	-0.670898	-0.166992	-0.149989	0.140615	-0.178112	0.761719	0.832031	0.539063	797	17_29_22_9404280
-0.202148	-0.673828	-0.172852	-0.140615	0.131240	-0.187486	0.714844	0.878906	0.562500	798	17_29_22_9565570
-0.205078	-0.667969	-0.178711	-0.149989	0.131240	-0.187486	0.738281	0.867188	0.550781	799	17_29_22_9726860
-0.208008	-0.662109	-0.164063	-0.140615	0.121866	-0.187486	0.785156	0.902344	0.515625	800	17_29_22_9888150
-0.210938	-0.659180	-0.161133	-0.140615	0.121866	-0.187486	0.761719	0.914063	0.457031	801	17_29_23_0049440
-0.199219	-0.667969	-0.164063	-0.140615	0.121866	-0.187486	0.785156	0.855469	0.480469	802	17_29_23_0210730
-0.199219	-0.679688	-0.169922	-0.140615	0.112492	-0.187486	0.738281	0.820313	0.515625	803	17_29_23_0372020
-0.187500	-0.667969	-0.164063	-0.140615	0.112492	-0.187486	0.714844	0.761719	0.527344	804	17_29_23_0533310
-0.210938	-0.676758	-0.166992	-0.149989	0.112492	-0.196861	0.773438	0.867188	0.527344	805	17_29_23_0694600
-0.205078	-0.673828	-0.190430	-0.149989	0.112492	-0.187486	0.773438	0.937500	0.492188	806	17_29_23_0855890
-0.208008	-0.665039	-0.161133	-0.149989	0.112492	-0.196861	0.761719	0.773438	0.515625	807	17_29_23_1017180
-0.193359	-0.670898	-0.166992	-0.149989	0.112492	-0.187486	0.750000	0.796875	0.574219	808	17_29_23_1178470
-0.208008	-0.673828	-0.169922	-0.149989	0.112492	-0.196861	0.750000	0.867188	0.539063	809	17_29_23_1339760
-0.199219	-0.682617	-0.166992	-0.159363	0.112492	-0.196861	0.785156	0.902344	0.515625	810	17_29_23_1501050
-0.199219	-0.673828	-0.164063	-0.159363	0.121866	-0.196861	0.750000	0.867188	0.503906	811	17_29_23_1662340
-0.210938	-0.662109	-0.152344	-0.168738	0.131240	-0.196861	0.738281	0.820313	0.527344	812	17_29_23_1823630
-0.216797	-0.676758	-0.155273	-0.168738	0.131240	-0.206235	0.750000	0.902344	0.539063	813	17_29_23_1984920
-0.205078	-0.685547	-0.161133	-0.168738	0.131240	-0.215609	0.785156	0.914063	0.539063	814	17_29_23_2146210
-0.216797	-0.676758	-0.161133	-0.178112	0.140615	-0.215609	0.773438	0.878906	0.527344	815	17_29_23_2307500
-0.228516	-0.662109	-0.155273	-0.178112	0.140615	-0.224984	0.785156	0.996094	0.503906	816	17_29_23_2468790
-0.216797	-0.676758	-0.166992	-0.187486	0.149989	-0.224984	0.773438	0.914063	0.515625	817	17_29_23_2630080
-0.231445	-0.667969	-0.155273	-0.187486	0.149989	-0.224984	0.761719	0.878906	0.574219	818	17_29_23_2791370
-0.216797	-0.670898	-0.158203	-0.196861	0.159363	-0.224984	0.761719	0.890625	0.515625	819	17_29_23_2952660
-0.205078	-0.670898	-0.158203	-0.196861	0.168738	-0.224984	0.785156	0.984375	0.515625	820	17_29_23_3113950
-0.213867	-0.662109	-0.155273	-0.206235	0.178112	-0.234358	0.796875	0.914063	0.503906	821	17_29_23_3275240
-0.225586	-0.665039	-0.149414	-0.206235	0.187486	-0.224984	0.796875	0.960938	0.503906	822	17_29_23_3436530
-0.222656	-0.656250	-0.149414	-0.206235	0.187486	-0.224984	0.785156	0.855469	0.527344	823	17_29_23_3597820
-0.219727	-0.644531	-0.152344	-0.206235	0.187486	-0.224984	0.726563	0.867188	0.515625	824	17_29_23_3759110
-0.208008	-0.650391	-0.152344	-0.206235	0.196861	-0.224984	0.738281	0.796875	0.515625	825	17_29_23_3920400
-0.216797	-0.659180	-0.149414	-0.206235	0.215609	-0.224984	0.796875	0.890625	0.539063	826	17_29_23_4081690
-0.210938	-0.665039	-0.146484	-0.206235	0.234358	-0.224984	0.796875	0.890625	0.503906	827	17_29_23_4242980
-0.213867	-0.673828	-0.149414	-0.206235	0.243732	-0.234358	0.773438	0.832031	0.492188	828	17_29_23_4404270
-0.222656	-0.694336	-0.137695	-0.224984	0.262481	-0.234358	0.738281	0.914063	0.515625	829	17_29_23_4565560
-0.243164	-0.685547	-0.143555	-0.234358	0.281230	-0.243732	0.785156	0.937500	0.527344	830	17_29_23_4726850
-0.240234	-0.673828	-0.137695	-0.243732	0.290604	-0.243732	0.808594	0.832031	0.503906	831	17_29_23_4888140
-0.222656	-0.667969	-0.146484	-0.253107	0.290604	-0.253107	0.773438	0.796875	0.527344	832	17_29_23_5049430
-0.234375	-0.644531	-0.161133	-0.253107	0.299978	-0.262481	0.808594	0.867188	0.503906	833	17_29_23_5210720
-0.254883	-0.626953	-0.149414	-0.243732	0.299978	-0.262481	0.750000	0.878906	0.445313	834	17_29_23_5372010
-0.246094	-0.618164	-0.161133	-0.224984	0.299978	-0.253107	0.808594	0.867188	0.492188	835	17_29_23_5533300
-0.266602	-0.626953	-0.166992	-0.215609	0.290604	-0.234358	0.750000	0.855469	0.503906	836	17_29_23_5694590
-0.287109	-0.632813	-0.172852	-0.206235	0.271855	-0.215609	0.808594	0.785156	0.492188	837	17_29_23_5855880
-0.281250	-0.644531	-0.166992	-0.196861	0.243732	-0.206235	0.750000	0.867188	0.515625	838	17_29_23_6017170
-0.269531	-0.644531	-0.166992	-0.196861	0.234358	-0.196861	0.808594	0.984375	0.550781	839	17_29_23_6178460
-0.260742	-0.629883	-0.161133	-0.178112	0.224984	-0.178112	0.761719	0.972656	0.515625	840	17_29_23_6339750
-0.263672	-0.638672	-0.166992	-0.168738	0.215609	-0.178112	0.773438	0.890625	0.492188	841	17_29_23_6501040
-0.269531	-0.632813	-0.155273	-0.159363	0.215609	-0.178112	0.808594	0.832031	0.480469	842	17_29_23_6662330
-0.278320	-0.641602	-0.149414	-0.168738	0.206235	-0.178112	0.820313	0.914063	0.492188	843	17_29_23_6823620
-0.275391	-0.650391	-0.158203	-0.168738	0.206235	-0.168738	0.773438	0.949219	0.480469	844	17_29_23_6984910
-0.260742	-0.670898	-0.152344	-0.168738	0.206235	-0.168738	0.914063	1.101563	0.503906	845	17_29_23_7146200
-0.240234	-0.673828	-0.152344	-0.178112	0.206235	-0.159363	0.808594	0.843750	0.515625	846	17_29_23_7307490
-0.246094	-0.673828	-0.140625	-0.178112	0.224984	-0.159363	0.796875	0.820313	0.550781	847	17_29_23_7468780
-0.228516	-0.673828	-0.134766	-0.187486	0.234358	-0.168738	0.738281	0.832031	0.503906	848	17_29_23_7630070
-0.234375	-0.670898	-0.146484	-0.196861	0.243732	-0.178112	0.773438	0.832031	0.468750	849	17_29_23_7791360
-0.257813	-0.653320	-0.134766	-0.187486	0.253107	-0.187486	0.808594	0.855469	0.480469	850	17_29_23_7952650
-0.272461	-0.673828	-0.166992	-0.187486	0.262481	-0.187486	0.761719	0.855469	0.492188	851	17_29_23_8113940
-0.266602	-0.656250	-0.140625	-0.206235	0.253107	-0.187486	0.750000	0.890625	0.457031	852	17_29_23_8275230
-0.263672	-0.650391	-0.152344	-0.206235	0.243732	-0.187486	0.808594	0.843750	0.468750	853	17_29_23_8436520
-0.260742	-0.653320	-0.152344	-0.196861	0.243732	-0.187486	0.761719	0.808594	0.527344	854	17_29_23_8597810
-0.263672	-0.644531	-0.152344	-0.187486	0.215609	-0.187486	0.773438	0.773438	0.539063	855	17_29_23_8759100
-0.257813	-0.650391	-0.152344	-0.196861	0.243732	-0.178112	0.820313	0.761719	0.527344	856	17_29_23_8920390
-0.263672	-0.644531	-0.149414	-0.196861	0.243732	-0.187486	0.808594	0.808594	0.492188	857	17_29_23_9081680
-0.257813	-0.650391	-0.158203	-0.196861	0.243732	-0.178112	0.773438	0.855469	0.468750	858	17_29_23_9242970
-0.263672	-0.656250	-0.158203	-0.206235	0.243732	-0.187486	0.796875	0.949219	0.515625	859	17_29_23_9404260
-0.266602	-0.656250	-0.149414	-0.206235	0.243732	-0.196861	0.796875	0.914063	0.515625	860	17_29_23_9565550
-0.254883	-0.638672	-0.152344	-0.206235	0.243732	-0.187486	0.773438	0.949219	0.492188	861	17_29_23_9726840
-0.254883	-0.629883	-0.155273	-0.206235	0.243732	-0.187486	0.808594	0.972656	0.527344	862	17_29_23_9888130
-0.269531	-0.656250	-0.158203	-0.187486	0.243732	-0.187486	0.796875	0.937500	0.515625	863	17_29_24_0049420
-0.275391	-0.650391	-0.149414	-0.187486	0.224984	-0.178112	0.773438	0.914063	0.492188	864	17_29_24_0210710
-0.260742	-0.644531	-0.155273	-0.187486	0.224984	-0.178112	0.714844	0.914063	0.503906	865	17_29_24_0372000
-0.260742	-0.656250	-0.152344	-0.187486	0.224984	-0.178112	0.761719	0.843750	0.480469	866	17_29_24_0533290
-0.263672	-0.647461	-0.155273	-0.187486	0.224984	-0.178112	0.820313	0.914063	0.480469	867	17_29_24_0694580
-0.263672	-0.644531	-0.149414	-0.187486	0.234358	-0.178112	0.714844	0.890625	0.515625	868	17_29_24_0855870
-0.266602	-0.656250	-0.152344	-0.187486	0.224984	-0.168738	0.785156	0.890625	0.503906	869	17_29_24_1017160
-0.254883	-0.653320	-0.152344	-0.178112	0.234358	-0.178112	0.796875	0.902344	0.515625	870	17_29_24_1178450
-0.263672	-0.662109	-0.149414	-0.187486	0.234358	-0.178112	0.773438	0.855469	0.515625	871	17_29_24_1339740
-0.254883	-0.653320	-0.149414	-0.187486	0.234358	-0.178112	0.773438	0.914063	0.515625	872	17_29_24_1501030
-0.257813	-0.662109	-0.143555	-0.187486	0.234358	-0.178112	0.750000	0.914063	0.503906	873	17_29_24_1662320
-0.266602	-0.662109	-0.155273	-0.196861	0.243732	-0.178112	0.796875	0.890625	0.503906	874	17_29_24_1823610
-0.266602	-0.656250	-0.164063	-0.187486	0.234358	-0.187486	0.820313	0.855469	0.515625	875	17_29_24_1984900
-0.272461	-0.659180	-0.155273	-0.196861	0.224984	-0.178112	0.808594	0.820313	0.468750	876	17_29_24_2146190
-0.251953	-0.653320	-0.152344	-0.196861	0.234358	-0.187486	0.808594	0.843750	0.457031	877	17_29_24_2307480
-0.240234	-0.650391	-0.149414	-0.187486	0.234358	-0.187486	0.820313	0.937500	0.503906	878	17_29_24_2468770
-0.254883	-0.644531	-0.152344	-0.187486	0.234358	-0.196861	0.808594	0.890625	0.515625	879	17_29_24_2630060
-0.257813	-0.638672	-0.158203	-0.187486	0.243732	-0.187486	0.738281	0.773438	0.527344	880	17_29_24_2791350
-0.257813	-0.650391	-0.155273	-0.187486	0.243732	-0.196861	0.773438	0.867188	0.468750	881	17_29_24_2952640
-0.269531	-0.644531	-0.164063	-0.178112	0.243732	-0.187486	0.808594	0.867188	0.480469	882	17_29_24_3113930
-0.272461	-0.647461	-0.158203	-0.178112	0.243732	-0.187486	0.808594	0.937500	0.515625	883	17_29_24_3275220
-0.278320	-0.656250	-0.149414	-0.178112	0.234358	-0.187486	0.796875	0.937500	0.503906	884	17_29_24_3436510
-0.272461	-0.653320	-0.155273	-0.178112	0.234358	-0.187486	0.726563	0.914063	0.515625	885	17_29_24_3597800
-0.263672	-0.656250	-0.169922	-0.187486	0.234358	-0.178112	0.796875	0.855469	0.503906	886	17_29_24_3759090
-0.260742	-0.644531	-0.149414	-0.178112	0.224984	-0.178112	0.773438	0.937500	0.480469	887	17_29_24_3920380
-0.260742	-0.656250	-0.152344	-0.187486	0.234358	-0.178112	0.808594	0.914063	0.503906	888	17_29_24_4081670
-0.263672	-0.650391	-0.161133	-0.187486	0.234358	-0.178112	0.796875	0.902344	0.515625	889	17_29_24_4242960
-0.257813	-0.662109	-0.161133	-0.187486	0.234358	-0.178112	0.796875	0.878906	0.480469	890	17_29_24_4404250
-0.266602	-0.647461	-0.164063	-0.196861	0.234358	-0.178112	0.796875	0.867188	0.468750	891	17_29_24_4565540
-0.263672	-0.656250	-0.166992	-0.196861	0.234358	-0.178112	0.785156	0.925781	0.492188	892	17_29_24_4726830
-0.254883	-0.653320	-0.155273	-0.196861	0.224984	-0.178112	0.808594	0.855469	0.503906	893	17_29_24_4888120
-0.257813	-0.650391	-0.158203	-0.187486	0.224984	-0.178112	0.820313	0.902344	0.515625	894	17_29_24_5049410
-0.257813	-0.647461	-0.158203	-0.187486	0.234358	-0.178112	0.820313	0.867188	0.503906	895	17_29_24_5210700
-0.257813	-0.656250	-0.158203	-0.196861	0.224984	-0.187486	0.761719	0.855469	0.492188	896	17_29_24_5371990
-0.246094	-0.662109	-0.146484	-0.196861	0.224984	-0.187486	0.796875	0.796875	0.527344	897	17_29_24_5533280
-0.257813	-0.659180	-0.161133	-0.187486	0.224984	-0.187486	0.796875	0.878906	0.539063	898	17_29_24_5694570
-0.257813	-0.650391	-0.164063	-0.187486	0.224984	-0.187486	0.773438	0.867188	0.515625	899	17_29_24_5855860
-0.254883	-0.638672	-0.155273	-0.187486	0.234358	-0.187486	0.761719	0.843750	0.503906	900	17_29_24_6017150
-0.260742	-0.629883	-0.161133	-0.178112	0.234358	-0.187486	0.796875	0.902344	0.503906	901	17_29_24_6178440
-0.251953	-0.626953	-0.166992	-0.178112	0.234358	-0.178112	0.796875	0.960938	0.515625	902	17_29_24_6339730
-0.266602	-0.638672	-0.158203	-0.168738	0.243732	-0.178112	0.808594	0.949219	0.527344	903	17_29_24_6501020
-0.263672	-0.644531	-0.161133	-0.168738	0.234358	-0.168738	0.796875	0.902344	0.527344	904	17_29_24_6662310
-0.275391	-0.653320	-0.161133	-0.178112	0.234358	-0.168738	0.796875	0.890625	0.539063	905	17_29_24_6823600
-0.269531	-0.665039	-0.164063	-0.178112	0.234358	-0.168738	0.738281	0.914063	0.550781	906	17_29_24_6984890
-0.257813	-0.662109	-0.166992	-0.187486	0.234358	-0.178112	0.785156	0.878906	0.527344	907	17_29_24_7146180
-0.266602	-0.665039	-0.155273	-0.187486	0.234358	-0.178112	0.796875	0.902344	0.515625	908	17_29_24_7307470
-0.269531	-0.670898	-0.155273	-0.196861	0.234358	-0.187486	0.808594	0.937500	0.503906	909	17_29_24_7468760
-0.266602	-0.676758	-0.166992	-0.196861	0.224984	-0.187486	0.761719	0.972656	0.468750	910	17_29_24_7630050
-0.269531	-0.685547	-0.164063	-0.196861	0.234358	-0.196861	0.750000	0.855469	0.480469	911	17_29_24_7791340
-0.269531	-0.685547	-0.161133	-0.187486	0.224984	-0.196861	0.773438	0.867188	0.492188	912	17_29_24_7952630
-0.266602	-0.685547	-0.149414	-0.178112	0.224984	-0.196861	0.738281	0.878906	0.468750	913	17_29_24_8113920
-0.263672	-0.714844	-0.158203	-0.187486	0.234358	-0.206235	0.761719	0.820313	0.480469	914	17_29_24_8275210
-0.272461	-0.708984	-0.155273	-0.187486	0.234358	-0.206235	0.773438	0.972656	0.550781	915	17_29_24_8436500
-0.269531	-0.708984	-0.155273	-0.178112	0.215609	-0.187486	0.785156	0.925781	0.562500	916	17_29_24_8597790
-0.243164	-0.703125	-0.146484	-0.187486	0.215609	-0.187486	0.796875	0.855469	0.527344	917	17_29_24_8759080
-0.240234	-0.685547	-0.134766	-0.187486	0.234358	-0.187486	0.808594	0.796875	0.539063	918	17_29_24_8920370
-0.225586	-0.673828	-0.134766	-0.206235	0.243732	-0.196861	0.808594	0.796875	0.527344	919	17_29_24_9081660
-0.216797	-0.667969	-0.131836	-0.215609	0.253107	-0.196861	0.773438	0.984375	0.503906	920	17_29_24_9242950
-0.240234	-0.650391	-0.125977	-0.234358	0.262481	-0.196861	0.808594	0.984375	0.527344	921	17_29_24_9404240
-0.228516	-0.656250	-0.125977	-0.243732	0.281230	-0.206235	0.773438	0.902344	0.539063	922	17_29_24_9565530
-0.225586	-0.629883	-0.128906	-0.243732	0.290604	-0.215609	0.820313	0.878906	0.527344	923	17_29_24_9726820
-0.225586	-0.641602	-0.125977	-0.243732	0.290604	-0.215609	0.820313	0.960938	0.468750	924	17_29_24_9888110
-0.216797	-0.650391	-0.131836	-0.253107	0.309353	-0.215609	0.785156	0.890625	0.457031	925	17_29_25_0049400
-0.225586	-0.653320	-0.143555	-0.243732	0.318727	-0.206235	0.761719	0.914063	0.492188	926	17_29_25_0210690
-0.216797	-0.662109	-0.143555	-0.243732	0.337475	-0.215609	0.808594	0.949219	0.539063	927	17_29_25_0371980
-0.231445	-0.679688	-0.143555	-0.243732	0.356224	-0.215609	0.808594	0.878906	0.515625	928	17_29_25_0533270
-0.246094	-0.667969	-0.161133	-0.243732	0.374973	-0.215609	0.738281	0.855469	0.515625	929	17_29_25_0694560
-0.260742	-0.676758	-0.164063	-0.243732	0.384347	-0.224984	0.738281	0.914063	0.550781	930	17_29_25_0855850
-0.281250	-0.676758	-0.161133	-0.243732	0.384347	-0.215609	0.785156	0.960938	0.574219	931	17_29_25_1017140
-0.260742	-0.676758	-0.161133	-0.234358	0.374973	-0.215609	0.808594	0.937500	0.574219	932	17_29_25_1178430
-0.272461	-0.682617	-0.155273	-0.234358	0.365598	-0.224984	0.773438	0.914063	0.527344	933	17_29_25_1339720
-0.257813	-0.673828	-0.143555	-0.234358	0.356224	-0.224984	0.679688	0.960938	0.503906	934	17_29_25_1501010
-0.249023	-0.679688	-0.137695	-0.243732	0.356224	-0.243732	0.785156	0.914063	0.527344	935	17_29_25_1662300
-0.246094	-0.685547	-0.128906	-0.243732	0.365598	-0.262481	0.785156	0.960938	0.539063	936	17_29_25_1823590
-0.246094	-0.667969	-0.117188	-0.243732	0.384347	-0.271855	0.785156	0.925781	0.574219	937	17_29_25_1984880
-0.231445	-0.682617	-0.111328	-0.243732	0.384347	-0.290604	0.773438	0.914063	0.585938	938	17_29_25_2146170
-0.243164	-0.688477	-0.128906	-0.253107	0.393721	-0.309353	0.832031	0.878906	0.574219	939	17_29_25_2307460
-0.243164	-0.688477	-0.125977	-0.262481	0.393721	-0.337475	0.785156	0.914063	0.527344	940	17_29_25_2468750
-0.246094	-0.673828	-0.125977	-0.262481	0.412470	-0.365598	0.820313	0.890625	0.480469	941	17_29_25_2630040
-0.246094	-0.667969	-0.120117	-0.262481	0.421844	-0.384347	0.820313	0.914063	0.503906	942	17_29_25_2791330
-0.231445	-0.667969	-0.123047	-0.253107	0.431219	-0.403096	0.738281	0.914063	0.492188	943	17_29_25_2952620
-0.216797	-0.653320	-0.108398	-0.253107	0.449967	-0.440593	0.796875	0.972656	0.503906	944	17_29_25_3113910
-0.228516	-0.650391	-0.108398	-0.243732	0.459342	-0.468716	0.796875	0.960938	0.515625	945	17_29_25_3275200
-0.266602	-0.650391	-0.117188	-0.224984	0.459342	-0.487465	0.832031	0.925781	0.539063	946	17_29_25_3436490
-0.263672	-0.621094	-0.114258	-0.206235	0.449967	-0.496839	0.832031	0.972656	0.585938	947	17_29_25_3597780
-0.266602	-0.621094	-0.134766	-0.196861	0.431219	-0.506213	0.925781	1.089844	0.585938	948	17_29_25_3759070
-0.269531	-0.615234	-0.143555	-0.187486	0.421844	-0.515588	0.832031	0.949219	0.527344	949	17_29_25_3920360
-0.251953	-0.588867	-0.125977	-0.159363	0.421844	-0.524962	0.820313	0.855469	0.527344	950	17_29_25_4081650
-0.284180	-0.597656	-0.143555	-0.131240	0.421844	-0.553085	0.820313	0.878906	0.515625	951	17_29_25_4242940
-0.292969	-0.606445	-0.143555	-0.103118	0.412470	-0.571833	0.832031	0.937500	0.550781	952	17_29_25_4404230
-0.307617	-0.612305	-0.137695	-0.093743	0.393721	-0.590582	0.808594	0.925781	0.562500	953	17_29_25_4565520
-0.331055	-0.615234	-0.143555	-0.074995	0.374973	-0.599956	0.855469	0.925781	0.515625	954	17_29_25_4726810
-0.310547	-0.588867	-0.131836	-0.065620	0.356224	-0.609331	0.832031	0.914063	0.550781	955	17_29_25_4888100
-0.290039	-0.583008	-0.111328	-0.056246	0.365598	-0.646828	0.843750	0.949219	0.609375	956	17_29_25_5049390
-0.310547	-0.585938	-0.140625	-0.037497	0.393721	-0.693700	0.832031	0.914063	0.550781	957	17_29_25_5210680
-0.357422	-0.580078	-0.172852	-0.037497	0.431219	-0.740571	0.820313	0.914063	0.503906	958	17_29_25_5371970
-0.418945	-0.568359	-0.196289	-0.028123	0.468716	-0.768694	0.832031	0.902344	0.550781	959	17_29_25_5533260
-0.451172	-0.574219	-0.193359	-0.037497	0.478090	-0.768694	0.820313	0.902344	0.632813	960	17_29_25_5694550
-0.430664	-0.553711	-0.187500	-0.056246	0.478090	-0.759320	0.832031	0.890625	0.656250	961	17_29_25_5855840
-0.424805	-0.550781	-0.187500	-0.074995	0.478090	-0.749946	0.867188	0.890625	0.621094	962	17_29_25_6017130
-0.436523	-0.518555	-0.205078	-0.093743	0.468716	-0.759320	0.855469	0.878906	0.597656	963	17_29_25_6178420
-0.462891	-0.474609	-0.208008	-0.093743	0.468716	-0.759320	0.855469	0.867188	0.550781	964	17_29_25_6339710
-0.477539	-0.462891	-0.208008	-0.084369	0.468716	-0.768694	0.878906	0.843750	0.562500	965	17_29_25_6501000
-0.465820	-0.462891	-0.225586	-0.084369	0.487465	-0.778068	0.820313	0.820313	0.585938	966	17_29_25_6662290
-0.498047	-0.427734	-0.254883	-0.084369	0.506213	-0.796817	0.914063	0.832031	0.574219	967	17_29_25_6823580
-0.553711	-0.410156	-0.284180	-0.084369	0.506213	-0.815566	0.890625	0.808594	0.585938	968	17_29_25_6984870
-0.606445	-0.372070	-0.307617	-0.056246	0.506213	-0.834314	0.843750	0.773438	0.644531	969	17_29_25_7146160
-0.641602	-0.357422	-0.336914	-0.046872	0.487465	-0.853063	0.855469	0.773438	0.667969	970	17_29_25_7307450
-0.641602	-0.354492	-0.351563	-0.056246	0.487465	-0.862437	0.796875	0.773438	0.609375	971	17_29_25_7468740
-0.638672	-0.313477	-0.386719	-0.074995	0.468716	-0.862437	0.808594	0.738281	0.644531	972	17_29_25_7630030
-0.638672	-0.257813	-0.360352	-0.065620	0.421844	-0.815566	0.867188	0.726563	0.667969	973	17_29_25_7791320
-0.574219	-0.187500	-0.360352	-0.065620	0.365598	-0.778068	0.914063	0.761719	0.667969	974	17_29_25_7952610
-0.518555	-0.161133	-0.395508	-0.074995	0.318727	-0.759320	0.832031	0.773438	0.644531	975	17_29_25_8113900
-0.533203	-0.117188	-0.424805	-0.093743	0.290604	-0.749946	0.832031	0.750000	0.632813	976	17_29_25_8275190
-0.527344	-0.043945	-0.462891	-0.065620	0.299978	-0.684325	0.832031	0.703125	0.609375	977	17_29_25_8436480
-0.465820	0.029297	-0.500977	-0.009374	0.318727	-0.637454	0.843750	0.679688	0.609375	978	17_29_25_8597770
-0.442383	0.096680	-0.521484	0.009374	0.403096	-0.637454	0.796875	0.691406	0.574219	979	17_29_25_8759060
-0.533203	0.161133	-0.568359	0.037497	0.487465	-0.628079	0.773438	0.667969	0.539063	980	17_29_25_8920350
-0.673828	0.199219	-0.591797	0.046872	0.524962	-0.609331	0.785156	0.644531	0.585938	981	17_29_25_9081640
-0.758789	0.184570	-0.606445	0.056246	0.487465	-0.543711	0.785156	0.585938	0.574219	982	17_29_25_9242930
-0.758789	0.146484	-0.644531	0.065620	0.403096	-0.478090	0.808594	0.609375	0.527344	983	17_29_25_9404220
-0.711914	0.117188	-0.638672	0.065620	0.309353	-0.421844	0.785156	0.597656	0.562500	984	17_29_25_9565510
-0.676758	0.102539	-0.644531	0.074995	0.262481	-0.403096	0.796875	0.597656	0.574219	985	17_29_25_9726800
-0.621094	0.073242	-0.618164	0.084369	0.243732	-0.393721	0.738281	0.609375	0.644531	986	17_29_25_9888090
-0.591797	0.055664	-0.600586	0.084369	0.253107	-0.384347	0.832031	0.562500	0.644531	987	17_29_26_0049380
-0.600586	0.055664	-0.571289	0.084369	0.271855	-0.356224	0.761719	0.585938	0.550781	988	17_29_26_0210670
-0.629883	0.035156	-0.536133	0.074995	0.299978	-0.337475	0.773438	0.562500	0.574219	989	17_29_26_0371960
-0.626953	0.020508	-0.500977	0.046872	0.318727	-0.328101	0.773438	0.562500	0.574219	990	17_29_26_0533250
-0.609375	0.017578	-0.521484	0.000000	0.318727	-0.328101	0.738281	0.574219	0.562500	991	17_29_26_0694540
-0.629883	0.017578	-0.530273	-0.074995	0.281230	-0.337475	0.773438	0.597656	0.574219	992	17_29_26_0855830
-0.665039	0.026367	-0.533203	-0.121866	0.215609	-0.337475	0.785156	0.550781	0.597656	993	17_29_26_1017120
-0.659180	0.038086	-0.521484	-0.149989	0.149989	-0.309353	0.808594	0.539063	0.585938	994	17_29_26_1178410
-0.600586	0.052734	-0.515625	-0.149989	0.140615	-0.290604	0.820313	0.539063	0.597656	995	17_29_26_1339700
-0.588867	0.064453	-0.527344	-0.168738	0.149989	-0.290604	0.785156	0.539063	0.656250	996	17_29_26_1500990
-0.591797	0.105469	-0.500977	-0.187486	0.206235	-0.299978	0.750000	0.562500	0.574219	997	17_29_26_1662280
-0.594727	0.125977	-0.530273	-0.215609	0.243732	-0.290604	0.714844	0.503906	0.585938	998	17_29_26_1823570
-0.591797	0.140625	-0.530273	-0.224984	0.253107	-0.253107	0.785156	0.527344	0.656250	999	17_29_26_1984860
-0.562500	0.152344	-0.503906	-0.234358	0.234358	-0.206235	0.738281	0.527344	0.632813	1000	17_29_26_2146150
-0.527344	0.123047	-0.477539	-0.243732	0.224984	-0.178112	0.726563	0.515625	0.609375	1001	17_29_26_2307440
-0.506836	0.096680	-0.465820	-0.262481	0.253107	-0.168738	0.738281	0.527344	0.574219	1002	17_29_26_2468730
-0.495117	0.076172	-0.459961	-0.281230	0.271855	-0.159363	0.738281	0.503906	0.527344	1003	17_29_26_2630020
-0.486328	0.070313	-0.424805	-0.271855	0.253107	-0.159363	0.726563	0.539063	0.574219	1004	17_29_26_2791310
-0.477539	0.046875	-0.424805	-0.271855	0.271855	-0.159363	0.785156	0.574219	0.621094	1005	17_29_26_2952600
-0.477539	0.061523	-0.413086	-0.299978	0.262481	-0.168738	0.726563	0.539063	0.632813	1006	17_29_26_3113890
-0.498047	0.093750	-0.407227	-0.309353	0.243732	-0.168738	0.820313	0.609375	0.574219	1007	17_29_26_3275180
-0.471680	0.084961	-0.416016	-0.318727	0.234358	-0.168738	0.785156	0.539063	0.539063	1008	17_29_26_3436470
-0.459961	0.070313	-0.424805	-0.337475	0.234358	-0.168738	0.738281	0.539063	0.574219	1009	17_29_26_3597760
-0.471680	0.058594	-0.436523	-0.346850	0.243732	-0.178112	0.726563	0.515625	0.585938	1010	17_29_26_3759050
-0.465820	0.000000	-0.442383	-0.356224	0.262481	-0.178112	0.750000	0.527344	0.632813	1011	17_29_26_3920340
-0.471680	-0.055664	-0.436523	-0.365598	0.299978	-0.178112	0.773438	0.539063	0.644531	1012	17_29_26_4081630
-0.477539	-0.052734	-0.427734	-0.384347	0.318727	-0.168738	0.808594	0.539063	0.632813	1013	17_29_26_4242920
-0.521484	0.000000	-0.433594	-0.393721	0.281230	-0.178112	0.761719	0.527344	0.621094	1014	17_29_26_4404210
-0.556641	0.002930	-0.424805	-0.412470	0.243732	-0.187486	0.761719	0.550781	0.574219	1015	17_29_26_4565500
-0.518555	-0.011719	-0.451172	-0.431219	0.243732	-0.178112	0.785156	0.550781	0.562500	1016	17_29_26_4726790
-0.509766	-0.011719	-0.477539	-0.468716	0.243732	-0.149989	0.761719	0.585938	0.562500	1017	17_29_26_4888080
-0.562500	0.035156	-0.489258	-0.478090	0.234358	-0.103118	0.726563	0.574219	0.515625	1018	17_29_26_5049370
-0.591797	0.052734	-0.530273	-0.459342	0.206235	-0.037497	0.750000	0.550781	0.550781	1019	17_29_26_5210660
-0.574219	0.005859	-0.547852	-0.449967	0.196861	0.018749	0.726563	0.609375	0.585938	1020	17_29_26_5371950
-0.583008	-0.046875	-0.539063	-0.487465	0.234358	0.056246	0.761719	0.609375	0.574219	1021	17_29_26_5533240
-0.577148	-0.093750	-0.515625	-0.524962	0.271855	0.093743	0.738281	0.585938	0.609375	1022	17_29_26_5694530
-0.580078	-0.096680	-0.527344	-0.553085	0.253107	0.131240	0.738281	0.644531	0.632813	1023	17_29_26_5855820
-0.615234	-0.105469	-0.515625	-0.581208	0.224984	0.178112	0.773438	0.621094	0.574219	1024	17_29_26_6017110
-0.615234	-0.087891	-0.492188	-0.618705	0.206235	0.253107	0.785156	0.632813	0.597656	1025	17_29_26_6178400
-0.591797	-0.076172	-0.457031	-0.618705	0.215609	0.328101	0.820313	0.656250	0.644531	1026	17_29_26_6339690
-0.500977	-0.184570	-0.477539	-0.599956	0.206235	0.365598	0.773438	0.656250	0.597656	1027	17_29_26_6500980
-0.477539	-0.228516	-0.427734	-0.618705	0.243732	0.365598	0.761719	0.691406	0.515625	1028	17_29_26_6662270
-0.509766	-0.249023	-0.377930	-0.628079	0.346850	0.318727	0.750000	0.726563	0.457031	1029	17_29_26_6823560
-0.342773	-0.146484	-0.260742	-0.731197	0.562459	0.149989	0.785156	0.714844	0.550781	1030	17_29_26_6984850
-0.547852	-0.275391	-0.430664	-0.703074	0.731197	0.009374	0.773438	0.703125	0.562500	1031	17_29_26_7146140
-0.615234	-0.325195	-0.339844	-0.731197	0.778068	-0.056246	0.738281	0.750000	0.574219	1032	17_29_26_7307430
-0.673828	-0.260742	-0.316406	-0.749946	0.806191	-0.103118	0.785156	0.761719	0.562500	1033	17_29_26_7468720
-0.682617	-0.222656	-0.342773	-0.740571	0.749946	-0.149989	0.808594	0.761719	0.480469	1034	17_29_26_7630010
-0.641602	-0.231445	-0.398438	-0.731197	0.646828	-0.178112	0.796875	0.796875	0.539063	1035	17_29_26_7791300
-0.565430	-0.249023	-0.457031	-0.731197	0.590582	-0.196861	0.796875	0.796875	0.550781	1036	17_29_26_7952590
-0.521484	-0.234375	-0.457031	-0.740571	0.562459	-0.196861	0.691406	0.785156	0.503906	1037	17_29_26_8113880
-0.500977	-0.263672	-0.468750	-0.721823	0.524962	-0.187486	0.773438	0.808594	0.492188	1038	17_29_26_8275170
-0.518555	-0.290039	-0.492188	-0.693700	0.449967	-0.168738	0.738281	0.808594	0.515625	1039	17_29_26_8436460
-0.580078	-0.307617	-0.457031	-0.674951	0.356224	-0.112492	0.738281	0.796875	0.527344	1040	17_29_26_8597750
-0.512695	-0.287109	-0.427734	-0.646828	0.281230	-0.065620	0.773438	0.820313	0.515625	1041	17_29_26_8759040
-0.489258	-0.281250	-0.386719	-0.618705	0.224984	-0.037497	0.691406	0.832031	0.527344	1042	17_29_26_8920330
-0.377930	-0.322266	-0.360352	-0.553085	0.187486	0.000000	0.785156	0.890625	0.574219	1043	17_29_26_9081620
-0.377930	-0.342773	-0.366211	-0.524962	0.224984	-0.009374	0.738281	0.867188	0.562500	1044	17_29_26_9242910
-0.418945	-0.363281	-0.328125	-0.515588	0.234358	-0.009374	0.773438	0.867188	0.550781	1045	17_29_26_9404200
-0.448242	-0.392578	-0.295898	-0.478090	0.215609	-0.009374	0.761719	0.914063	0.585938	1046	17_29_26_9565490
-0.433594	-0.433594	-0.304688	-0.468716	0.187486	-0.009374	0.761719	0.843750	0.562500	1047	17_29_26_9726780
-0.389648	-0.462891	-0.310547	-0.468716	0.178112	-0.009374	0.761719	0.914063	0.574219	1048	17_29_26_9888070
-0.357422	-0.474609	-0.298828	-0.478090	0.196861	-0.009374	0.750000	0.902344	0.597656	1049	17_29_27_0049360
-0.375000	-0.445313	-0.263672	-0.478090	0.215609	-0.009374	0.773438	0.902344	0.585938	1050	17_29_27_0210650
-0.372070	-0.439453	-0.254883	-0.468716	0.224984	-0.018749	0.761719	0.914063	0.527344	1051	17_29_27_0371940
-0.375000	-0.454102	-0.263672	-0.449967	0.215609	-0.028123	0.703125	0.914063	0.539063	1052	17_29_27_0533230
-0.357422	-0.468750	-0.260742	-0.459342	0.215609	-0.037497	0.761719	0.925781	0.550781	1053	17_29_27_0694520
-0.328125	-0.489258	-0.251953	-0.449967	0.215609	-0.028123	0.750000	0.914063	0.492188	1054	17_29_27_0855810
-0.316406	-0.518555	-0.246094	-0.440593	0.224984	-0.037497	0.761719	0.890625	0.503906	1055	17_29_27_1017100
-0.298828	-0.539063	-0.237305	-0.440593	0.253107	-0.037497	0.703125	0.914063	0.539063	1056	17_29_27_1178390
-0.292969	-0.533203	-0.219727	-0.440593	0.281230	-0.046872	0.738281	0.937500	0.539063	1057	17_29_27_1339680
-0.284180	-0.530273	-0.205078	-0.440593	0.299978	-0.046872	0.726563	0.914063	0.539063	1058	17_29_27_1500970
-0.307617	-0.533203	-0.202148	-0.431219	0.318727	-0.056246	0.738281	0.925781	0.527344	1059	17_29_27_1662260
-0.310547	-0.533203	-0.172852	-0.431219	0.318727	-0.065620	0.738281	0.960938	0.539063	1060	17_29_27_1823550
-0.307617	-0.550781	-0.210938	-0.393721	0.309353	-0.084369	0.738281	0.937500	0.539063	1061	17_29_27_1984840
-0.295898	-0.550781	-0.184570	-0.412470	0.281230	-0.084369	0.738281	0.902344	0.527344	1062	17_29_27_2146130
-0.322266	-0.553711	-0.175781	-0.393721	0.262481	-0.084369	0.726563	0.960938	0.527344	1063	17_29_27_2307420
-0.295898	-0.559570	-0.161133	-0.374973	0.262481	-0.084369	0.761719	0.960938	0.515625	1064	17_29_27_2468710
-0.249023	-0.580078	-0.164063	-0.365598	0.271855	-0.103118	0.726563	0.960938	0.562500	1065	17_29_27_2630000
-0.269531	-0.533203	-0.125977	-0.356224	0.299978	-0.140615	0.714844	0.902344	0.585938	1066	17_29_27_2791290
-0.208008	-0.571289	-0.181641	-0.318727	0.365598	-0.159363	0.726563	0.902344	0.574219	1067	17_29_27_2952580
-0.251953	-0.609375	-0.143555	-0.290604	0.365598	-0.168738	0.726563	0.960938	0.550781	1068	17_29_27_3113870
-0.290039	-0.585938	-0.155273	-0.299978	0.346850	-0.168738	0.714844	0.937500	0.539063	1069	17_29_27_3275160
-0.336914	-0.606445	-0.166992	-0.281230	0.309353	-0.149989	0.714844	0.960938	0.574219	1070	17_29_27_3436450
-0.328125	-0.615234	-0.155273	-0.271855	0.253107	-0.103118	0.679688	1.007813	0.585938	1071	17_29_27_3597740
-0.322266	-0.621094	-0.114258	-0.253107	0.168738	-0.056246	0.667969	0.960938	0.574219	1072	17_29_27_3759030
-0.275391	-0.638672	-0.123047	-0.243732	0.112492	-0.009374	0.726563	0.914063	0.597656	1073	17_29_27_3920320
-0.251953	-0.665039	-0.111328	-0.243732	0.084369	0.009374	0.714844	0.925781	0.550781	1074	17_29_27_4081610
-0.222656	-0.738281	-0.146484	-0.215609	0.093743	0.028123	0.703125	0.960938	0.527344	1075	17_29_27_4242900
-0.146484	-0.840820	-0.237305	-0.224984	0.168738	0.037497	0.703125	0.984375	0.539063	1076	17_29_27_4404190
-0.099609	-0.861328	-0.281250	-0.271855	0.337475	0.028123	0.703125	0.960938	0.562500	1077	17_29_27_4565480
-0.073242	-0.776367	-0.266602	-0.309353	0.506213	-0.018749	0.714844	0.984375	0.562500	1078	17_29_27_4726770
-0.172852	-0.670898	-0.219727	-0.328101	0.618705	-0.084369	0.679688	0.984375	0.550781	1079	17_29_27_4888060
-0.266602	-0.574219	-0.193359	-0.337475	0.656202	-0.131240	0.667969	0.925781	0.527344	1080	17_29_27_5049350
-0.287109	-0.521484	-0.175781	-0.356224	0.618705	-0.168738	0.644531	0.914063	0.515625	1081	17_29_27_5210640
-0.234375	-0.550781	-0.184570	-0.365598	0.562459	-0.224984	0.632813	0.984375	0.515625	1082	17_29_27_5371930
-0.140625	-0.629883	-0.231445	-0.374973	0.543711	-0.253107	0.656250	0.949219	0.550781	1083	17_29_27_5533220
-0.084961	-0.732422	-0.310547	-0.412470	0.599956	-0.281230	0.667969	0.960938	0.597656	1084	17_29_27_5694510
-0.105469	-0.767578	-0.342773	-0.459342	0.731197	-0.281230	0.667969	0.914063	0.574219	1085	17_29_27_5855800
-0.134766	-0.767578	-0.333984	-0.468716	0.843689	-0.253107	0.644531	0.984375	0.527344	1086	17_29_27_6017090
-0.099609	-0.729492	-0.322266	-0.468716	0.899935	-0.243732	0.644531	0.984375	0.539063	1087	17_29_27_6178380
-0.164063	-0.691406	-0.322266	-0.468716	0.890560	-0.243732	0.632813	0.984375	0.574219	1088	17_29_27_6339670
-0.205078	-0.656250	-0.319336	-0.478090	0.881186	-0.253107	0.644531	0.914063	0.574219	1089	17_29_27_6500960
-0.243164	-0.612305	-0.281250	-0.478090	0.853063	-0.253107	0.632813	0.960938	0.574219	1090	17_29_27_6662250
-0.251953	-0.585938	-0.263672	-0.468716	0.796817	-0.224984	0.585938	1.007813	0.585938	1091	17_29_27_6823540
-0.228516	-0.588867	-0.249023	-0.468716	0.740571	-0.215609	0.597656	0.960938	0.562500	1092	17_29_27_6984830
-0.178711	-0.585938	-0.243164	-0.459342	0.693700	-0.215609	0.632813	0.914063	0.527344	1093	17_29_27_7146120
-0.131836	-0.588867	-0.237305	-0.459342	0.618705	-0.224984	0.562500	0.914063	0.480469	1094	17_29_27_7307410
-0.152344	-0.615234	-0.269531	-0.449967	0.543711	-0.224984	0.597656	0.914063	0.550781	1095	17_29_27_7468700
-0.093750	-0.591797	-0.231445	-0.459342	0.468716	-0.215609	0.632813	1.078125	0.632813	1096	17_29_27_7629990
-0.096680	-0.638672	-0.246094	-0.449967	0.487465	-0.215609	0.585938	0.867188	0.585938	1097	17_29_27_7791280
-0.082031	-0.597656	-0.219727	-0.431219	0.468716	-0.215609	0.585938	0.855469	0.527344	1098	17_29_27_7952570
-0.061523	-0.621094	-0.210938	-0.403096	0.478090	-0.224984	0.585938	0.890625	0.515625	1099	17_29_27_8113860
-0.055664	-0.626953	-0.202148	-0.374973	0.506213	-0.243732	0.562500	0.867188	0.574219	1100	17_29_27_8275150
-0.070313	-0.650391	-0.213867	-0.356224	0.553085	-0.253107	0.550781	0.878906	0.574219	1101	17_29_27_8436440
-0.084961	-0.641602	-0.205078	-0.337475	0.562459	-0.271855	0.597656	0.960938	0.562500	1102	17_29_27_8597730
-0.125977	-0.653320	-0.216797	-0.328101	0.553085	-0.281230	0.597656	0.937500	0.562500	1103	17_29_27_8759020
-0.161133	-0.656250	-0.243164	-0.318727	0.534336	-0.290604	0.539063	0.890625	0.539063	1104	17_29_27_8920310
-0.181641	-0.665039	-0.246094	-0.328101	0.506213	-0.290604	0.574219	0.914063	0.527344	1105	17_29_27_9081600
-0.181641	-0.676758	-0.246094	-0.328101	0.487465	-0.281230	0.585938	0.960938	0.503906	1106	17_29_27_9242890
-0.216797	-0.673828	-0.234375	-0.318727	0.468716	-0.271855	0.527344	0.937500	0.503906	1107	17_29_27_9404180
-0.213867	-0.679688	-0.237305	-0.299978	0.440593	-0.271855	0.585938	0.914063	0.550781	1108	17_29_27_9565470
-0.254883	-0.706055	-0.225586	-0.281230	0.374973	-0.262481	0.574219	0.996094	0.550781	1109	17_29_27_9726760
-0.281250	-0.697266	-0.208008	-0.262481	0.290604	-0.253107	0.562500	0.996094	0.550781	1110	17_29_27_9888050
-0.310547	-0.714844	-0.199219	-0.243732	0.196861	-0.234358	0.597656	0.960938	0.550781	1111	17_29_28_0049340
-0.339844	-0.767578	-0.161133	-0.206235	0.074995	-0.215609	0.574219	0.937500	0.515625	1112	17_29_28_0210630
-0.231445	-0.814453	-0.172852	-0.168738	0.046872	-0.178112	0.585938	0.914063	0.503906	1113	17_29_28_0371920
-0.219727	-0.767578	-0.158203	-0.149989	0.084369	-0.168738	0.539063	0.914063	0.539063	1114	17_29_28_0533210
-0.234375	-0.744141	-0.169922	-0.131240	0.112492	-0.187486	0.621094	0.949219	0.585938	1115	17_29_28_0694500
-0.263672	-0.682617	-0.202148	-0.131240	0.140615	-0.206235	0.667969	1.195313	0.550781	1116	17_29_28_0855790
-0.246094	-0.626953	-0.213867	-0.168738	0.178112	-0.224984	0.609375	0.984375	0.539063	1117	17_29_28_1017080
-0.228516	-0.541992	-0.222656	-0.187486	0.224984	-0.224984	0.621094	1.031250	0.574219	1118	17_29_28_1178370
-0.208008	-0.480469	-0.222656	-0.178112	0.309353	-0.243732	0.585938	0.914063	0.550781	1119	17_29_28_1339660
-0.272461	-0.436523	-0.152344	-0.187486	0.328101	-0.253107	0.585938	0.890625	0.550781	1120	17_29_28_1500950
