sensor_ID	000666015711
Accel_X	Accel_Y	Accel_Z	Roll	Pitch	Yaw	Mag_X	Mag_Y	Mag_Z	Count	SysTime
-0.017578	-0.166992	0.688477	-0.787443	-0.374973	-0.506213	-0.304688	-0.093750	-0.164063	0	17_29_10_0856150
-0.017578	-0.175781	0.676758	-0.787443	-0.374973	-0.515588	-0.304688	-0.140625	-0.082031	1	17_29_10_1017440
-0.005859	-0.169922	0.688477	-0.796817	-0.374973	-0.515588	-0.316406	-0.117188	-0.035156	2	17_29_10_1178730
0.002930	-0.161133	0.688477	-0.787443	-0.374973	-0.515588	-0.304688	-0.082031	-0.046875	3	17_29_10_1340020
-0.014648	-0.169922	0.688477	-0.787443	-0.374973	-0.515588	-0.152344	-0.058594	-0.011719	4	17_29_10_1501310
-0.005859	-0.161133	0.685547	-0.787443	-0.374973	-0.506213	-0.328125	-0.128906	-0.105469	5	17_29_10_1662600
-0.005859	-0.166992	0.682617	-0.787443	-0.374973	-0.506213	-0.304688	-0.105469	-0.070313	6	17_29_10_1823890
-0.005859	-0.175781	0.679688	-0.787443	-0.374973	-0.515588	-0.304688	-0.105469	-0.035156	7	17_29_10_1985180
0.000000	-0.175781	0.682617	-0.787443	-0.374973	-0.515588	-0.304688	-0.082031	-0.070313	8	17_29_10_2146470
-0.014648	-0.169922	0.682617	-0.787443	-0.374973	-0.515588	-0.316406	-0.082031	-0.093750	9	17_29_10_2307760
-0.008789	-0.178711	0.676758	-0.787443	-0.374973	-0.515588	-0.292969	-0.117188	-0.046875	10	17_29_10_2469050
-0.002930	-0.164063	0.682617	-0.796817	-0.374973	-0.515588	-0.246094	-0.082031	-0.023438	11	17_29_10_2630340
0.011719	-0.175781	0.682617	-0.787443	-0.374973	-0.515588	-0.257813	-0.093750	-0.046875	12	17_29_10_2791630
-0.008789	-0.164063	0.682617	-0.796817	-0.374973	-0.506213	-0.199219	-0.046875	-0.023438	13	17_29_10_2952920
-0.011719	-0.172852	0.673828	-0.787443	-0.374973	-0.515588	-0.304688	-0.117188	-0.093750	14	17_29_10_3114210
-0.011719	-0.161133	0.682617	-0.787443	-0.374973	-0.515588	-0.292969	-0.117188	-0.093750	15	17_29_10_3275500
0.000000	-0.169922	0.682617	-0.787443	-0.374973	-0.515588	-0.292969	-0.117188	-0.070313	16	17_29_10_3436790
-0.005859	-0.164063	0.682617	-0.787443	-0.374973	-0.515588	-0.304688	-0.117188	-0.082031	17	17_29_10_3598080
-0.005859	-0.172852	0.682617	-0.796817	-0.374973	-0.515588	-0.304688	-0.093750	-0.105469	18	17_29_10_3759370
-0.002930	-0.175781	0.685547	-0.796817	-0.374973	-0.506213	-0.292969	-0.070313	0.035156	19	17_29_10_3920660
-0.005859	-0.166992	0.688477	-0.787443	-0.374973	-0.515588	-0.292969	-0.117188	-0.070313	20	17_29_10_4081950
-0.002930	-0.172852	0.679688	-0.787443	-0.365598	-0.506213	-0.304688	-0.128906	-0.058594	21	17_29_10_4243240
-0.014648	-0.166992	0.682617	-0.787443	-0.374973	-0.506213	-0.328125	-0.128906	-0.082031	22	17_29_10_4404530
0.000000	-0.169922	0.685547	-0.796817	-0.374973	-0.506213	-0.234375	-0.035156	-0.011719	23	17_29_10_4565820
-0.002930	-0.169922	0.679688	-0.787443	-0.374973	-0.515588	-0.292969	-0.082031	-0.070313	24	17_29_10_4727110
-0.023438	-0.187500	0.688477	-0.796817	-0.374973	-0.506213	-0.281250	-0.117188	-0.058594	25	17_29_10_4888400
-0.017578	-0.181641	0.682617	-0.787443	-0.374973	-0.506213	-0.304688	-0.117188	-0.046875	26	17_29_10_5049690
-0.005859	-0.175781	0.682617	-0.787443	-0.374973	-0.515588	-0.304688	-0.105469	-0.117188	27	17_29_10_5210980
-0.002930	-0.172852	0.682617	-0.787443	-0.374973	-0.506213	-0.292969	-0.117188	-0.117188	28	17_29_10_5372270
-0.008789	-0.169922	0.688477	-0.796817	-0.374973	-0.515588	-0.304688	-0.105469	-0.082031	29	17_29_10_5533560
-0.011719	-0.181641	0.673828	-0.787443	-0.374973	-0.515588	-0.304688	-0.082031	-0.035156	30	17_29_10_5694850
-0.005859	-0.178711	0.688477	-0.787443	-0.374973	-0.515588	-0.292969	-0.117188	-0.023438	31	17_29_10_5856140
0.000000	-0.169922	0.688477	-0.796817	-0.374973	-0.515588	-0.304688	-0.105469	-0.058594	32	17_29_10_6017430
0.000000	-0.172852	0.679688	-0.787443	-0.374973	-0.515588	-0.292969	-0.164063	-0.093750	33	17_29_10_6178720
-0.005859	-0.178711	0.679688	-0.787443	-0.374973	-0.515588	-0.304688	-0.128906	-0.070313	34	17_29_10_6340010
-0.008789	-0.172852	0.688477	-0.787443	-0.374973	-0.515588	-0.304688	-0.117188	-0.046875	35	17_29_10_6501300
0.008789	-0.172852	0.679688	-0.787443	-0.374973	-0.515588	-0.304688	-0.082031	-0.070313	36	17_29_10_6662590
-0.002930	-0.164063	0.691406	-0.787443	-0.374973	-0.515588	-0.304688	-0.105469	-0.070313	37	17_29_10_6823880
-0.005859	-0.181641	0.685547	-0.787443	-0.374973	-0.506213	-0.304688	-0.140625	-0.070313	38	17_29_10_6985170
-0.002930	-0.172852	0.676758	-0.787443	-0.374973	-0.506213	-0.304688	-0.128906	-0.082031	39	17_29_10_7146460
-0.002930	-0.175781	0.688477	-0.787443	-0.374973	-0.515588	-0.292969	-0.140625	-0.128906	40	17_29_10_7307750
-0.008789	-0.172852	0.688477	-0.787443	-0.374973	-0.506213	-0.328125	-0.117188	-0.140625	41	17_29_10_7469040
0.000000	-0.175781	0.688477	-0.787443	-0.374973	-0.506213	-0.292969	-0.082031	-0.093750	42	17_29_10_7630330
-0.014648	-0.161133	0.676758	-0.796817	-0.374973	-0.506213	-0.292969	-0.117188	-0.105469	43	17_29_10_7791620
0.000000	-0.166992	0.682617	-0.787443	-0.374973	-0.506213	-0.292969	-0.128906	-0.105469	44	17_29_10_7952910
-0.005859	-0.175781	0.679688	-0.796817	-0.384347	-0.515588	-0.210938	-0.093750	-0.035156	45	17_29_10_8114200
-0.017578	-0.164063	0.682617	-0.787443	-0.374973	-0.506213	-0.304688	-0.117188	-0.117188	46	17_29_10_8275490
-0.005859	-0.172852	0.679688	-0.787443	-0.374973	-0.515588	-0.304688	-0.117188	-0.128906	47	17_29_10_8436780
-0.005859	-0.169922	0.691406	-0.787443	-0.374973	-0.506213	-0.292969	-0.105469	-0.128906	48	17_29_10_8598070
-0.011719	-0.166992	0.691406	-0.787443	-0.374973	-0.515588	-0.304688	-0.070313	-0.128906	49	17_29_10_8759360
-0.005859	-0.166992	0.688477	-0.787443	-0.374973	-0.515588	-0.304688	-0.082031	-0.093750	50	17_29_10_8920650
0.000000	-0.169922	0.685547	-0.796817	-0.374973	-0.515588	-0.246094	-0.093750	-0.070313	51	17_29_10_9081940
-0.011719	-0.169922	0.682617	-0.787443	-0.374973	-0.515588	-0.292969	-0.117188	-0.152344	52	17_29_10_9243230
0.000000	-0.169922	0.688477	-0.787443	-0.374973	-0.515588	-0.292969	-0.117188	-0.164063	53	17_29_10_9404520
-0.002930	-0.184570	0.682617	-0.787443	-0.374973	-0.506213	-0.292969	-0.082031	-0.082031	54	17_29_10_9565810
-0.002930	-0.175781	0.685547	-0.787443	-0.374973	-0.515588	-0.292969	-0.082031	-0.058594	55	17_29_10_9727100
-0.008789	-0.184570	0.679688	-0.787443	-0.374973	-0.506213	-0.292969	-0.070313	-0.117188	56	17_29_10_9888390
-0.005859	-0.164063	0.682617	-0.787443	-0.374973	-0.515588	-0.304688	-0.093750	-0.105469	57	17_29_11_0049680
-0.011719	-0.175781	0.685547	-0.796817	-0.374973	-0.515588	-0.304688	-0.105469	-0.070313	58	17_29_11_0210970
0.005859	-0.169922	0.688477	-0.796817	-0.374973	-0.515588	-0.292969	-0.117188	-0.070313	59	17_29_11_0372260
-0.014648	-0.166992	0.685547	-0.787443	-0.374973	-0.506213	-0.304688	-0.105469	-0.128906	60	17_29_11_0533550
-0.008789	-0.161133	0.688477	-0.787443	-0.374973	-0.515588	-0.304688	-0.105469	-0.105469	61	17_29_11_0694840
-0.008789	-0.161133	0.673828	-0.787443	-0.374973	-0.515588	-0.304688	-0.082031	-0.070313	62	17_29_11_0856130
-0.005859	-0.175781	0.676758	-0.787443	-0.374973	-0.515588	-0.304688	-0.082031	-0.093750	63	17_29_11_1017420
0.002930	-0.166992	0.688477	-0.787443	-0.374973	-0.515588	-0.304688	-0.093750	-0.082031	64	17_29_11_1178710
-0.002930	-0.169922	0.682617	-0.787443	-0.374973	-0.515588	-0.292969	-0.128906	-0.046875	65	17_29_11_1340000
-0.005859	-0.172852	0.685547	-0.787443	-0.374973	-0.515588	-0.292969	-0.128906	-0.046875	66	17_29_11_1501290
-0.005859	-0.164063	0.688477	-0.787443	-0.374973	-0.515588	-0.304688	-0.082031	-0.082031	67	17_29_11_1662580
0.000000	-0.169922	0.676758	-0.787443	-0.374973	-0.515588	-0.093750	-0.046875	-0.011719	68	17_29_11_1823870
-0.005859	-0.178711	0.676758	-0.796817	-0.374973	-0.515588	-0.292969	-0.117188	-0.105469	69	17_29_11_1985160
-0.008789	-0.169922	0.688477	-0.787443	-0.374973	-0.515588	-0.304688	-0.117188	-0.011719	70	17_29_11_2146450
-0.011719	-0.169922	0.676758	-0.787443	-0.374973	-0.515588	-0.339844	-0.117188	-0.046875	71	17_29_11_2307740
-0.005859	-0.169922	0.682617	-0.796817	-0.374973	-0.515588	-0.304688	-0.128906	-0.093750	72	17_29_11_2469030
-0.005859	-0.172852	0.688477	-0.787443	-0.374973	-0.515588	-0.292969	-0.117188	-0.058594	73	17_29_11_2630320
-0.008789	-0.169922	0.676758	-0.787443	-0.374973	-0.515588	-0.328125	-0.082031	-0.082031	74	17_29_11_2791610
-0.002930	-0.169922	0.682617	-0.787443	-0.374973	-0.515588	-0.210938	-0.035156	-0.082031	75	17_29_11_2952900
0.000000	-0.169922	0.688477	-0.796817	-0.374973	-0.515588	-0.175781	-0.046875	-0.023438	76	17_29_11_3114190
-0.005859	-0.172852	0.676758	-0.787443	-0.374973	-0.515588	-0.304688	-0.117188	-0.046875	77	17_29_11_3275480
-0.005859	-0.187500	0.688477	-0.787443	-0.374973	-0.515588	-0.304688	-0.082031	-0.046875	78	17_29_11_3436770
-0.014648	-0.169922	0.676758	-0.787443	-0.374973	-0.515588	-0.304688	-0.117188	-0.082031	79	17_29_11_3598060
-0.005859	-0.172852	0.688477	-0.796817	-0.374973	-0.515588	-0.304688	-0.140625	-0.105469	80	17_29_11_3759350
-0.014648	-0.164063	0.682617	-0.787443	-0.374973	-0.506213	-0.339844	-0.128906	-0.117188	81	17_29_11_3920640
-0.005859	-0.169922	0.685547	-0.796817	-0.374973	-0.515588	-0.281250	-0.105469	-0.152344	82	17_29_11_4081930
-0.011719	-0.175781	0.688477	-0.787443	-0.374973	-0.515588	-0.304688	-0.152344	-0.152344	83	17_29_11_4243220
-0.008789	-0.166992	0.682617	-0.787443	-0.384347	-0.515588	-0.292969	-0.093750	-0.105469	84	17_29_11_4404510
-0.005859	-0.164063	0.682617	-0.787443	-0.374973	-0.515588	-0.304688	-0.117188	-0.093750	85	17_29_11_4565800
-0.005859	-0.172852	0.682617	-0.787443	-0.374973	-0.515588	-0.304688	-0.117188	-0.117188	86	17_29_11_4727090
-0.011719	-0.178711	0.688477	-0.796817	-0.374973	-0.515588	-0.292969	-0.105469	-0.128906	87	17_29_11_4888380
-0.008789	-0.169922	0.691406	-0.787443	-0.374973	-0.506213	-0.292969	-0.082031	-0.035156	88	17_29_11_5049670
-0.017578	-0.175781	0.682617	-0.787443	-0.374973	-0.515588	-0.304688	-0.140625	-0.046875	89	17_29_11_5210960
0.000000	-0.169922	0.688477	-0.787443	-0.374973	-0.506213	-0.292969	-0.140625	-0.117188	90	17_29_11_5372250
-0.011719	-0.172852	0.682617	-0.796817	-0.374973	-0.515588	-0.304688	-0.140625	-0.093750	91	17_29_11_5533540
-0.005859	-0.175781	0.676758	-0.796817	-0.374973	-0.515588	-0.304688	-0.117188	-0.105469	92	17_29_11_5694830
-0.014648	-0.172852	0.682617	-0.787443	-0.374973	-0.515588	-0.304688	-0.117188	-0.105469	93	17_29_11_5856120
-0.005859	-0.169922	0.679688	-0.787443	-0.374973	-0.506213	-0.304688	-0.117188	-0.082031	94	17_29_11_6017410
-0.017578	-0.169922	0.685547	-0.787443	-0.374973	-0.515588	-0.304688	-0.117188	-0.105469	95	17_29_11_6178700
-0.008789	-0.166992	0.682617	-0.787443	-0.374973	-0.506213	-0.292969	-0.082031	-0.128906	96	17_29_11_6339990
-0.005859	-0.181641	0.688477	-0.796817	-0.374973	-0.515588	-0.292969	-0.117188	-0.152344	97	17_29_11_6501280
0.002930	-0.175781	0.700195	-0.787443	-0.374973	-0.515588	-0.339844	-0.117188	-0.164063	98	17_29_11_6662570
-0.005859	-0.172852	0.682617	-0.787443	-0.374973	-0.515588	-0.304688	-0.093750	-0.117188	99	17_29_11_6823860
-0.005859	-0.169922	0.688477	-0.787443	-0.374973	-0.515588	-0.304688	-0.128906	-0.058594	100	17_29_11_6985150
-0.005859	-0.175781	0.679688	-0.787443	-0.365598	-0.515588	-0.304688	-0.082031	-0.035156	101	17_29_11_7146440
-0.011719	-0.178711	0.679688	-0.787443	-0.374973	-0.515588	-0.339844	-0.093750	-0.117188	102	17_29_11_7307730
-0.008789	-0.169922	0.688477	-0.796817	-0.374973	-0.506213	-0.304688	-0.082031	0.035156	103	17_29_11_7469020
0.002930	-0.164063	0.676758	-0.787443	-0.374973	-0.515588	-0.339844	-0.093750	-0.093750	104	17_29_11_7630310
-0.008789	-0.169922	0.688477	-0.787443	-0.374973	-0.515588	-0.304688	-0.128906	-0.105469	105	17_29_11_7791600
-0.008789	-0.169922	0.679688	-0.787443	-0.374973	-0.515588	-0.304688	-0.093750	-0.093750	106	17_29_11_7952890
-0.008789	-0.172852	0.685547	-0.787443	-0.374973	-0.515588	-0.234375	-0.105469	-0.070313	107	17_29_11_8114180
0.005859	-0.178711	0.685547	-0.787443	-0.374973	-0.515588	-0.304688	-0.117188	-0.093750	108	17_29_11_8275470
0.008789	-0.166992	0.679688	-0.787443	-0.374973	-0.506213	-0.304688	-0.117188	-0.058594	109	17_29_11_8436760
0.008789	-0.169922	0.682617	-0.787443	-0.374973	-0.515588	-0.304688	-0.117188	-0.058594	110	17_29_11_8598050
0.002930	-0.161133	0.682617	-0.787443	-0.374973	-0.515588	-0.304688	-0.093750	-0.058594	111	17_29_11_8759340
-0.005859	-0.166992	0.676758	-0.787443	-0.374973	-0.515588	-0.304688	-0.023438	0.128906	112	17_29_11_8920630
-0.005859	-0.169922	0.685547	-0.787443	-0.374973	-0.515588	-0.304688	-0.117188	-0.128906	113	17_29_11_9081920
-0.014648	-0.178711	0.676758	-0.787443	-0.374973	-0.506213	-0.316406	-0.117188	-0.082031	114	17_29_11_9243210
-0.014648	-0.175781	0.682617	-0.787443	-0.374973	-0.506213	-0.316406	-0.093750	-0.082031	115	17_29_11_9404500
-0.008789	-0.178711	0.682617	-0.787443	-0.374973	-0.515588	-0.304688	-0.117188	-0.105469	116	17_29_11_9565790
-0.011719	-0.166992	0.676758	-0.787443	-0.374973	-0.515588	-0.292969	-0.117188	-0.093750	117	17_29_11_9727080
-0.008789	-0.164063	0.682617	-0.787443	-0.374973	-0.515588	-0.304688	-0.093750	-0.093750	118	17_29_11_9888370
-0.014648	-0.166992	0.685547	-0.787443	-0.374973	-0.515588	-0.105469	-0.117188	0.035156	119	17_29_12_0049660
0.000000	-0.166992	0.676758	-0.787443	-0.374973	-0.515588	-0.304688	-0.128906	-0.140625	120	17_29_12_0210950
-0.014648	-0.166992	0.676758	-0.796817	-0.374973	-0.515588	-0.281250	-0.117188	-0.093750	121	17_29_12_0372240
-0.005859	-0.175781	0.691406	-0.796817	-0.374973	-0.515588	-0.304688	-0.128906	-0.082031	122	17_29_12_0533530
-0.008789	-0.169922	0.682617	-0.796817	-0.374973	-0.506213	-0.292969	-0.070313	-0.011719	123	17_29_12_0694820
-0.002930	-0.169922	0.688477	-0.796817	-0.374973	-0.515588	-0.304688	-0.093750	-0.152344	124	17_29_12_0856110
-0.008789	-0.164063	0.688477	-0.787443	-0.374973	-0.515588	-0.304688	-0.117188	-0.140625	125	17_29_12_1017400
-0.005859	-0.181641	0.685547	-0.787443	-0.374973	-0.506213	-0.316406	-0.105469	-0.117188	126	17_29_12_1178690
-0.002930	-0.169922	0.685547	-0.796817	-0.374973	-0.515588	-0.199219	-0.035156	-0.046875	127	17_29_12_1339980
0.000000	-0.169922	0.682617	-0.787443	-0.374973	-0.515588	-0.304688	-0.140625	-0.093750	128	17_29_12_1501270
0.002930	-0.175781	0.688477	-0.787443	-0.374973	-0.506213	-0.292969	-0.152344	-0.128906	129	17_29_12_1662560
-0.002930	-0.166992	0.685547	-0.796817	-0.374973	-0.506213	-0.058594	-0.023438	0.011719	130	17_29_12_1823850
-0.002930	-0.181641	0.676758	-0.787443	-0.374973	-0.515588	-0.304688	-0.093750	-0.058594	131	17_29_12_1985140
-0.008789	-0.184570	0.676758	-0.787443	-0.374973	-0.515588	-0.304688	-0.117188	-0.035156	132	17_29_12_2146430
-0.002930	-0.175781	0.682617	-0.796817	-0.374973	-0.515588	-0.304688	-0.140625	-0.058594	133	17_29_12_2307720
-0.008789	-0.169922	0.685547	-0.787443	-0.374973	-0.515588	-0.304688	-0.117188	-0.093750	134	17_29_12_2469010
0.000000	-0.175781	0.685547	-0.787443	-0.374973	-0.515588	-0.304688	-0.117188	-0.070313	135	17_29_12_2630300
-0.014648	-0.181641	0.682617	-0.796817	-0.384347	-0.515588	-0.328125	-0.117188	-0.058594	136	17_29_12_2791590
-0.017578	-0.172852	0.679688	-0.796817	-0.374973	-0.515588	-0.304688	-0.117188	-0.093750	137	17_29_12_2952880
-0.008789	-0.181641	0.670898	-0.806191	-0.374973	-0.515588	-0.140625	-0.082031	0.058594	138	17_29_12_3114170
-0.005859	-0.172852	0.679688	-0.787443	-0.374973	-0.515588	-0.292969	-0.105469	-0.058594	139	17_29_12_3275460
-0.014648	-0.169922	0.688477	-0.787443	-0.374973	-0.506213	-0.292969	-0.070313	-0.117188	140	17_29_12_3436750
0.000000	-0.169922	0.682617	-0.787443	-0.374973	-0.515588	-0.304688	-0.082031	-0.117188	141	17_29_12_3598040
-0.008789	-0.169922	0.688477	-0.806191	-0.374973	-0.506213	-0.187500	0.000000	0.175781	142	17_29_12_3759330
-0.005859	-0.169922	0.688477	-0.787443	-0.374973	-0.515588	-0.292969	-0.117188	-0.105469	143	17_29_12_3920620
0.000000	-0.172852	0.682617	-0.787443	-0.374973	-0.515588	-0.292969	-0.093750	-0.117188	144	17_29_12_4081910
-0.020508	-0.175781	0.688477	-0.796817	-0.374973	-0.515588	-0.304688	-0.093750	0.035156	145	17_29_12_4243200
0.000000	-0.175781	0.682617	-0.787443	-0.374973	-0.506213	-0.316406	-0.105469	-0.082031	146	17_29_12_4404490
0.000000	-0.169922	0.688477	-0.787443	-0.374973	-0.515588	-0.292969	-0.105469	-0.105469	147	17_29_12_4565780
-0.011719	-0.169922	0.688477	-0.787443	-0.374973	-0.515588	-0.328125	-0.105469	-0.117188	148	17_29_12_4727070
-0.014648	-0.164063	0.688477	-0.787443	-0.374973	-0.515588	-0.316406	-0.117188	-0.046875	149	17_29_12_4888360
-0.008789	-0.169922	0.676758	-0.796817	-0.374973	-0.515588	-0.152344	-0.023438	0.070313	150	17_29_12_5049650
-0.002930	-0.164063	0.682617	-0.787443	-0.374973	-0.506213	-0.304688	-0.082031	-0.105469	151	17_29_12_5210940
0.000000	-0.172852	0.688477	-0.787443	-0.374973	-0.506213	-0.164063	0.058594	-0.023438	152	17_29_12_5372230
-0.014648	-0.169922	0.682617	-0.787443	-0.374973	-0.515588	-0.292969	-0.105469	-0.058594	153	17_29_12_5533520
-0.008789	-0.172852	0.685547	-0.787443	-0.374973	-0.515588	-0.304688	-0.164063	-0.058594	154	17_29_12_5694810
-0.005859	-0.172852	0.697266	-0.787443	-0.374973	-0.506213	-0.304688	-0.152344	-0.058594	155	17_29_12_5856100
-0.008789	-0.181641	0.688477	-0.787443	-0.374973	-0.506213	-0.222656	-0.140625	-0.035156	156	17_29_12_6017390
-0.008789	-0.175781	0.688477	-0.787443	-0.374973	-0.506213	-0.304688	-0.164063	-0.117188	157	17_29_12_6178680
-0.002930	-0.181641	0.676758	-0.787443	-0.374973	-0.506213	-0.304688	-0.117188	-0.128906	158	17_29_12_6339970
-0.008789	-0.172852	0.685547	-0.787443	-0.374973	-0.515588	-0.339844	-0.082031	-0.070313	159	17_29_12_6501260
-0.011719	-0.172852	0.688477	-0.787443	-0.374973	-0.515588	-0.257813	-0.082031	0.000000	160	17_29_12_6662550
-0.002930	-0.172852	0.676758	-0.796817	-0.374973	-0.515588	-0.292969	-0.117188	-0.105469	161	17_29_12_6823840
-0.005859	-0.164063	0.685547	-0.787443	-0.374973	-0.515588	-0.304688	-0.128906	-0.117188	162	17_29_12_6985130
-0.008789	-0.172852	0.685547	-0.796817	-0.374973	-0.515588	-0.304688	-0.164063	-0.117188	163	17_29_12_7146420
-0.005859	-0.164063	0.685547	-0.787443	-0.374973	-0.515588	-0.304688	-0.035156	0.128906	164	17_29_12_7307710
-0.020508	-0.161133	0.679688	-0.787443	-0.374973	-0.515588	-0.304688	-0.082031	-0.046875	165	17_29_12_7469000
-0.020508	-0.175781	0.679688	-0.787443	-0.374973	-0.515588	-0.304688	-0.140625	-0.128906	166	17_29_12_7630290
-0.011719	-0.169922	0.682617	-0.796817	-0.374973	-0.515588	-0.234375	-0.128906	-0.070313	167	17_29_12_7791580
-0.008789	-0.166992	0.676758	-0.787443	-0.374973	-0.515588	-0.339844	-0.140625	-0.035156	168	17_29_12_7952870
-0.005859	-0.175781	0.676758	-0.796817	-0.374973	-0.515588	-0.304688	-0.152344	-0.082031	169	17_29_12_8114160
-0.014648	-0.164063	0.688477	-0.787443	-0.374973	-0.515588	-0.304688	-0.117188	-0.117188	170	17_29_12_8275450
-0.008789	-0.166992	0.688477	-0.787443	-0.374973	-0.515588	-0.304688	-0.117188	-0.128906	171	17_29_12_8436740
-0.005859	-0.161133	0.691406	-0.787443	-0.374973	-0.506213	-0.339844	-0.152344	-0.105469	172	17_29_12_8598030
-0.005859	-0.178711	0.688477	-0.787443	-0.374973	-0.515588	-0.304688	-0.128906	-0.105469	173	17_29_12_8759320
-0.005859	-0.178711	0.688477	-0.787443	-0.374973	-0.506213	-0.351563	-0.164063	-0.105469	174	17_29_12_8920610
-0.017578	-0.181641	0.685547	-0.787443	-0.374973	-0.515588	-0.304688	-0.093750	-0.070313	175	17_29_12_9081900
-0.002930	-0.169922	0.676758	-0.787443	-0.374973	-0.515588	-0.316406	-0.082031	-0.093750	176	17_29_12_9243190
-0.008789	-0.172852	0.676758	-0.787443	-0.374973	-0.515588	-0.304688	-0.105469	-0.093750	177	17_29_12_9404480
-0.005859	-0.184570	0.682617	-0.787443	-0.374973	-0.515588	-0.292969	-0.070313	-0.082031	178	17_29_12_9565770
-0.002930	-0.181641	0.682617	-0.796817	-0.374973	-0.515588	-0.199219	-0.035156	-0.035156	179	17_29_12_9727060
-0.008789	-0.169922	0.676758	-0.787443	-0.374973	-0.515588	-0.304688	-0.082031	-0.058594	180	17_29_12_9888350
-0.005859	-0.172852	0.676758	-0.787443	-0.374973	-0.506213	-0.304688	-0.070313	-0.082031	181	17_29_13_0049640
-0.011719	-0.181641	0.682617	-0.787443	-0.374973	-0.515588	-0.304688	-0.105469	-0.093750	182	17_29_13_0210930
-0.005859	-0.169922	0.688477	-0.787443	-0.374973	-0.515588	-0.304688	-0.082031	-0.046875	183	17_29_13_0372220
-0.005859	-0.169922	0.676758	-0.796817	-0.374973	-0.515588	-0.304688	-0.105469	-0.058594	184	17_29_13_0533510
-0.008789	-0.181641	0.688477	-0.796817	-0.374973	-0.515588	-0.257813	-0.046875	0.128906	185	17_29_13_0694800
-0.008789	-0.169922	0.682617	-0.796817	-0.374973	-0.515588	-0.257813	-0.058594	-0.011719	186	17_29_13_0856090
-0.005859	-0.166992	0.685547	-0.787443	-0.374973	-0.506213	-0.304688	-0.093750	-0.082031	187	17_29_13_1017380
-0.011719	-0.158203	0.688477	-0.787443	-0.374973	-0.515588	-0.292969	-0.117188	-0.058594	188	17_29_13_1178670
0.005859	-0.175781	0.694336	-0.796817	-0.374973	-0.515588	-0.304688	-0.128906	-0.070313	189	17_29_13_1339960
-0.005859	-0.164063	0.676758	-0.787443	-0.374973	-0.515588	-0.304688	-0.140625	-0.070313	190	17_29_13_1501250
-0.008789	-0.169922	0.679688	-0.787443	-0.374973	-0.515588	-0.292969	-0.117188	-0.070313	191	17_29_13_1662540
-0.008789	-0.175781	0.682617	-0.796817	-0.374973	-0.515588	-0.082031	-0.035156	-0.046875	192	17_29_13_1823830
0.002930	-0.172852	0.682617	-0.796817	-0.374973	-0.506213	-0.328125	-0.117188	-0.082031	193	17_29_13_1985120
-0.014648	-0.175781	0.676758	-0.787443	-0.374973	-0.515588	-0.304688	-0.128906	-0.058594	194	17_29_13_2146410
-0.005859	-0.164063	0.688477	-0.787443	-0.374973	-0.515588	-0.304688	-0.128906	-0.105469	195	17_29_13_2307700
-0.005859	-0.169922	0.682617	-0.787443	-0.374973	-0.515588	-0.304688	-0.128906	-0.105469	196	17_29_13_2468990
-0.005859	-0.169922	0.685547	-0.787443	-0.374973	-0.506213	-0.304688	-0.128906	-0.105469	197	17_29_13_2630280
-0.011719	-0.161133	0.685547	-0.787443	-0.384347	-0.515588	-0.304688	-0.140625	-0.093750	198	17_29_13_2791570
-0.002930	-0.164063	0.676758	-0.787443	-0.374973	-0.515588	-0.304688	-0.128906	-0.093750	199	17_29_13_2952860
-0.008789	-0.166992	0.682617	-0.787443	-0.374973	-0.515588	-0.187500	-0.070313	-0.070313	200	17_29_13_3114150
-0.002930	-0.175781	0.682617	-0.787443	-0.374973	-0.506213	-0.304688	-0.105469	-0.175781	201	17_29_13_3275440
-0.002930	-0.172852	0.682617	-0.796817	-0.374973	-0.506213	-0.117188	-0.023438	-0.058594	202	17_29_13_3436730
-0.002930	-0.175781	0.682617	-0.787443	-0.374973	-0.515588	-0.304688	-0.117188	-0.058594	203	17_29_13_3598020
-0.008789	-0.166992	0.676758	-0.787443	-0.374973	-0.515588	-0.304688	-0.093750	-0.093750	204	17_29_13_3759310
-0.005859	-0.178711	0.685547	-0.787443	-0.374973	-0.515588	-0.292969	-0.105469	-0.117188	205	17_29_13_3920600
0.000000	-0.169922	0.688477	-0.787443	-0.374973	-0.515588	-0.292969	-0.105469	-0.082031	206	17_29_13_4081890
0.000000	-0.181641	0.682617	-0.787443	-0.374973	-0.515588	-0.304688	-0.093750	-0.070313	207	17_29_13_4243180
-0.008789	-0.178711	0.676758	-0.787443	-0.374973	-0.515588	-0.304688	-0.093750	-0.070313	208	17_29_13_4404470
-0.005859	-0.190430	0.676758	-0.787443	-0.374973	-0.515588	-0.292969	-0.093750	-0.070313	209	17_29_13_4565760
-0.014648	-0.175781	0.682617	-0.787443	-0.374973	-0.515588	-0.304688	-0.128906	-0.105469	210	17_29_13_4727050
-0.002930	-0.166992	0.679688	-0.787443	-0.374973	-0.506213	-0.304688	-0.105469	-0.082031	211	17_29_13_4888340
-0.005859	-0.166992	0.682617	-0.787443	-0.374973	-0.515588	-0.246094	-0.082031	-0.035156	212	17_29_13_5049630
-0.005859	-0.175781	0.676758	-0.787443	-0.374973	-0.515588	-0.304688	-0.140625	-0.070313	213	17_29_13_5210920
-0.011719	-0.175781	0.682617	-0.787443	-0.374973	-0.515588	-0.304688	-0.128906	-0.011719	214	17_29_13_5372210
-0.017578	-0.166992	0.682617	-0.787443	-0.374973	-0.506213	-0.304688	-0.105469	-0.082031	215	17_29_13_5533500
-0.008789	-0.175781	0.682617	-0.787443	-0.374973	-0.515588	-0.304688	-0.093750	-0.152344	216	17_29_13_5694790
-0.005859	-0.166992	0.670898	-0.787443	-0.374973	-0.515588	-0.304688	-0.117188	-0.128906	217	17_29_13_5856080
0.000000	-0.172852	0.688477	-0.787443	-0.374973	-0.506213	-0.304688	-0.105469	-0.011719	218	17_29_13_6017370
-0.002930	-0.172852	0.688477	-0.787443	-0.374973	-0.515588	-0.292969	-0.082031	-0.082031	219	17_29_13_6178660
-0.005859	-0.178711	0.679688	-0.796817	-0.374973	-0.515588	-0.199219	-0.082031	-0.046875	220	17_29_13_6339950
0.000000	-0.172852	0.685547	-0.787443	-0.374973	-0.515588	-0.304688	-0.164063	-0.105469	221	17_29_13_6501240
-0.017578	-0.175781	0.691406	-0.787443	-0.374973	-0.515588	-0.304688	-0.117188	-0.105469	222	17_29_13_6662530
-0.011719	-0.172852	0.691406	-0.787443	-0.374973	-0.506213	-0.304688	-0.128906	-0.105469	223	17_29_13_6823820
0.000000	-0.184570	0.679688	-0.787443	-0.374973	-0.515588	-0.304688	-0.140625	-0.035156	224	17_29_13_6985110
-0.017578	-0.169922	0.685547	-0.787443	-0.374973	-0.506213	-0.175781	-0.035156	0.175781	225	17_29_13_7146400
-0.014648	-0.169922	0.694336	-0.787443	-0.374973	-0.515588	-0.292969	-0.070313	-0.082031	226	17_29_13_7307690
-0.002930	-0.172852	0.682617	-0.787443	-0.374973	-0.515588	-0.304688	-0.082031	-0.082031	227	17_29_13_7468980
-0.005859	-0.172852	0.688477	-0.796817	-0.374973	-0.515588	-0.304688	-0.093750	0.000000	228	17_29_13_7630270
-0.008789	-0.172852	0.676758	-0.787443	-0.374973	-0.515588	-0.304688	-0.117188	-0.117188	229	17_29_13_7791560
-0.005859	-0.184570	0.682617	-0.796817	-0.374973	-0.506213	-0.304688	-0.105469	-0.082031	230	17_29_13_7952850
-0.008789	-0.175781	0.688477	-0.787443	-0.374973	-0.515588	-0.304688	-0.117188	-0.105469	231	17_29_13_8114140
-0.008789	-0.161133	0.676758	-0.796817	-0.374973	-0.515588	-0.292969	-0.105469	-0.117188	232	17_29_13_8275430
0.000000	-0.178711	0.688477	-0.787443	-0.374973	-0.515588	-0.304688	-0.117188	-0.117188	233	17_29_13_8436720
-0.008789	-0.161133	0.679688	-0.787443	-0.374973	-0.515588	-0.058594	0.000000	0.035156	234	17_29_13_8598010
-0.005859	-0.164063	0.679688	-0.796817	-0.384347	-0.515588	-0.164063	0.011719	0.058594	235	17_29_13_8759300
-0.005859	-0.169922	0.682617	-0.796817	-0.374973	-0.515588	-0.281250	-0.070313	-0.140625	236	17_29_13_8920590
-0.011719	-0.169922	0.688477	-0.787443	-0.374973	-0.506213	-0.304688	-0.070313	-0.152344	237	17_29_13_9081880
-0.005859	-0.164063	0.682617	-0.787443	-0.374973	-0.515588	-0.339844	-0.070313	-0.070313	238	17_29_13_9243170
-0.002930	-0.181641	0.688477	-0.796817	-0.374973	-0.515588	-0.292969	-0.105469	-0.082031	239	17_29_13_9404460
-0.005859	-0.175781	0.676758	-0.787443	-0.374973	-0.515588	-0.292969	-0.093750	-0.093750	240	17_29_13_9565750
-0.011719	-0.175781	0.682617	-0.787443	-0.374973	-0.515588	-0.304688	-0.128906	-0.093750	241	17_29_13_9727040
-0.008789	-0.172852	0.685547	-0.787443	-0.374973	-0.506213	-0.292969	-0.117188	-0.093750	242	17_29_13_9888330
-0.011719	-0.166992	0.685547	-0.787443	-0.374973	-0.506213	-0.292969	-0.117188	-0.128906	243	17_29_14_0049620
-0.017578	-0.169922	0.676758	-0.787443	-0.374973	-0.515588	-0.304688	-0.105469	-0.152344	244	17_29_14_0210910
-0.017578	-0.172852	0.682617	-0.787443	-0.374973	-0.515588	-0.304688	-0.093750	-0.093750	245	17_29_14_0372200
-0.005859	-0.175781	0.676758	-0.796817	-0.374973	-0.515588	-0.281250	-0.105469	-0.070313	246	17_29_14_0533490
-0.011719	-0.175781	0.679688	-0.787443	-0.374973	-0.515588	-0.304688	-0.093750	-0.093750	247	17_29_14_0694780
-0.002930	-0.175781	0.682617	-0.787443	-0.374973	-0.515588	-0.304688	-0.117188	-0.070313	248	17_29_14_0856070
-0.014648	-0.169922	0.685547	-0.787443	-0.374973	-0.515588	-0.304688	-0.128906	-0.023438	249	17_29_14_1017360
-0.005859	-0.181641	0.679688	-0.787443	-0.374973	-0.515588	-0.304688	-0.152344	-0.093750	250	17_29_14_1178650
0.000000	-0.172852	0.676758	-0.787443	-0.374973	-0.515588	-0.304688	-0.117188	-0.105469	251	17_29_14_1339940
-0.008789	-0.166992	0.685547	-0.796817	-0.374973	-0.515588	-0.304688	-0.093750	-0.058594	252	17_29_14_1501230
-0.017578	-0.172852	0.688477	-0.787443	-0.374973	-0.515588	-0.304688	-0.117188	-0.093750	253	17_29_14_1662520
-0.002930	-0.175781	0.685547	-0.787443	-0.374973	-0.515588	-0.292969	-0.082031	-0.117188	254	17_29_14_1823810
-0.008789	-0.169922	0.682617	-0.796817	-0.374973	-0.515588	-0.082031	-0.046875	0.035156	255	17_29_14_1985100
-0.005859	-0.164063	0.688477	-0.787443	-0.374973	-0.515588	-0.292969	-0.128906	-0.070313	256	17_29_14_2146390
-0.008789	-0.178711	0.682617	-0.787443	-0.374973	-0.515588	-0.269531	0.000000	-0.058594	257	17_29_14_2307680
-0.002930	-0.172852	0.682617	-0.787443	-0.374973	-0.515588	-0.304688	-0.117188	-0.105469	258	17_29_14_2468970
-0.014648	-0.175781	0.670898	-0.787443	-0.374973	-0.506213	-0.304688	-0.152344	-0.093750	259	17_29_14_2630260
-0.005859	-0.169922	0.682617	-0.796817	-0.374973	-0.515588	-0.257813	-0.082031	-0.070313	260	17_29_14_2791550
-0.005859	-0.181641	0.682617	-0.787443	-0.374973	-0.515588	-0.269531	-0.117188	-0.082031	261	17_29_14_2952840
0.000000	-0.172852	0.688477	-0.787443	-0.374973	-0.515588	-0.304688	-0.082031	-0.082031	262	17_29_14_3114130
-0.017578	-0.172852	0.682617	-0.796817	-0.374973	-0.515588	-0.187500	-0.035156	-0.046875	263	17_29_14_3275420
-0.008789	-0.158203	0.685547	-0.787443	-0.374973	-0.515588	-0.304688	-0.082031	-0.082031	264	17_29_14_3436710
-0.005859	-0.166992	0.685547	-0.796817	-0.374973	-0.515588	-0.316406	-0.082031	-0.011719	265	17_29_14_3598000
-0.005859	-0.181641	0.682617	-0.787443	-0.374973	-0.515588	-0.328125	-0.093750	0.023438	266	17_29_14_3759290
0.000000	-0.164063	0.682617	-0.796817	-0.374973	-0.515588	-0.292969	-0.117188	0.011719	267	17_29_14_3920580
-0.011719	-0.181641	0.679688	-0.787443	-0.374973	-0.515588	-0.304688	-0.082031	-0.105469	268	17_29_14_4081870
-0.005859	-0.181641	0.682617	-0.787443	-0.374973	-0.515588	-0.304688	-0.093750	-0.128906	269	17_29_14_4243160
-0.005859	-0.172852	0.676758	-0.787443	-0.374973	-0.515588	-0.304688	-0.140625	-0.093750	270	17_29_14_4404450
-0.014648	-0.184570	0.679688	-0.787443	-0.374973	-0.515588	-0.304688	-0.128906	-0.105469	271	17_29_14_4565740
-0.011719	-0.181641	0.688477	-0.796817	-0.374973	-0.515588	-0.304688	-0.070313	-0.058594	272	17_29_14_4727030
-0.017578	-0.164063	0.679688	-0.796817	-0.374973	-0.515588	-0.304688	-0.093750	-0.082031	273	17_29_14_4888320
-0.011719	-0.166992	0.688477	-0.796817	-0.374973	-0.515588	-0.292969	-0.128906	-0.117188	274	17_29_14_5049610
-0.014648	-0.161133	0.685547	-0.787443	-0.374973	-0.515588	-0.128906	0.000000	0.011719	275	17_29_14_5210900
-0.008789	-0.175781	0.685547	-0.787443	-0.374973	-0.515588	-0.304688	-0.105469	-0.046875	276	17_29_14_5372190
-0.014648	-0.181641	0.682617	-0.796817	-0.374973	-0.515588	-0.304688	-0.140625	-0.093750	277	17_29_14_5533480
-0.005859	-0.172852	0.676758	-0.806191	-0.374973	-0.515588	-0.246094	-0.093750	-0.046875	278	17_29_14_5694770
-0.005859	-0.175781	0.682617	-0.787443	-0.374973	-0.515588	-0.304688	-0.070313	-0.128906	279	17_29_14_5856060
-0.011719	-0.166992	0.670898	-0.796817	-0.374973	-0.515588	-0.304688	-0.093750	-0.140625	280	17_29_14_6017350
-0.011719	-0.175781	0.691406	-0.787443	-0.374973	-0.515588	-0.304688	-0.128906	-0.082031	281	17_29_14_6178640
-0.029297	-0.175781	0.688477	-0.787443	-0.374973	-0.515588	-0.292969	-0.105469	-0.046875	282	17_29_14_6339930
-0.017578	-0.158203	0.688477	-0.787443	-0.374973	-0.515588	-0.304688	-0.093750	-0.023438	283	17_29_14_6501220
-0.008789	-0.166992	0.682617	-0.787443	-0.374973	-0.515588	-0.292969	-0.105469	-0.058594	284	17_29_14_6662510
-0.011719	-0.172852	0.682617	-0.796817	-0.374973	-0.515588	-0.070313	-0.105469	0.070313	285	17_29_14_6823800
-0.002930	-0.175781	0.676758	-0.787443	-0.374973	-0.515588	-0.304688	-0.105469	-0.011719	286	17_29_14_6985090
-0.017578	-0.181641	0.676758	-0.787443	-0.374973	-0.515588	-0.304688	-0.093750	-0.082031	287	17_29_14_7146380
-0.008789	-0.181641	0.691406	-0.787443	-0.374973	-0.506213	-0.304688	-0.093750	-0.105469	288	17_29_14_7307670
-0.005859	-0.175781	0.682617	-0.787443	-0.374973	-0.515588	-0.304688	-0.105469	-0.058594	289	17_29_14_7468960
-0.014648	-0.172852	0.682617	-0.796817	-0.374973	-0.515588	-0.257813	-0.082031	-0.082031	290	17_29_14_7630250
-0.005859	-0.175781	0.682617	-0.787443	-0.374973	-0.515588	-0.304688	-0.117188	-0.105469	291	17_29_14_7791540
-0.008789	-0.161133	0.679688	-0.796817	-0.374973	-0.515588	-0.281250	-0.117188	-0.082031	292	17_29_14_7952830
-0.005859	-0.169922	0.685547	-0.796817	-0.374973	-0.515588	-0.292969	-0.128906	-0.093750	293	17_29_14_8114120
-0.014648	-0.166992	0.691406	-0.787443	-0.374973	-0.515588	-0.304688	-0.128906	-0.058594	294	17_29_14_8275410
-0.017578	-0.169922	0.688477	-0.787443	-0.374973	-0.515588	-0.304688	-0.117188	-0.046875	295	17_29_14_8436700
0.000000	-0.175781	0.682617	-0.787443	-0.374973	-0.515588	-0.304688	-0.117188	-0.058594	296	17_29_14_8597990
-0.005859	-0.169922	0.688477	-0.787443	-0.384347	-0.515588	-0.304688	-0.117188	-0.093750	297	17_29_14_8759280
-0.002930	-0.172852	0.682617	-0.796817	-0.374973	-0.515588	-0.292969	-0.140625	-0.140625	298	17_29_14_8920570
-0.002930	-0.169922	0.685547	-0.787443	-0.374973	-0.515588	-0.304688	-0.164063	-0.082031	299	17_29_14_9081860
-0.014648	-0.166992	0.679688	-0.787443	-0.374973	-0.515588	-0.316406	-0.117188	-0.082031	300	17_29_14_9243150
-0.002930	-0.169922	0.682617	-0.796817	-0.374973	-0.515588	-0.304688	-0.128906	-0.070313	301	17_29_14_9404440
-0.005859	-0.164063	0.682617	-0.796817	-0.374973	-0.515588	-0.269531	-0.070313	-0.035156	302	17_29_14_9565730
-0.002930	-0.164063	0.685547	-0.787443	-0.374973	-0.515588	-0.304688	-0.128906	-0.082031	303	17_29_14_9727020
-0.020508	-0.184570	0.682617	-0.787443	-0.374973	-0.515588	-0.175781	-0.070313	-0.011719	304	17_29_14_9888310
-0.008789	-0.172852	0.673828	-0.787443	-0.374973	-0.515588	-0.304688	-0.093750	-0.070313	305	17_29_15_0049600
0.005859	-0.175781	0.682617	-0.796817	-0.374973	-0.515588	-0.328125	-0.117188	-0.117188	306	17_29_15_0210890
-0.017578	-0.175781	0.688477	-0.787443	-0.374973	-0.515588	-0.292969	-0.117188	-0.117188	307	17_29_15_0372180
-0.014648	-0.175781	0.679688	-0.796817	-0.374973	-0.515588	-0.292969	-0.117188	-0.117188	308	17_29_15_0533470
-0.011719	-0.175781	0.688477	-0.787443	-0.374973	-0.515588	-0.292969	-0.082031	-0.093750	309	17_29_15_0694760
-0.011719	-0.169922	0.691406	-0.796817	-0.374973	-0.515588	-0.246094	-0.117188	-0.058594	310	17_29_15_0856050
-0.005859	-0.166992	0.682617	-0.787443	-0.374973	-0.515588	-0.316406	-0.164063	-0.105469	311	17_29_15_1017340
-0.005859	-0.172852	0.691406	-0.787443	-0.374973	-0.515588	-0.304688	-0.082031	-0.105469	312	17_29_15_1178630
0.002930	-0.172852	0.682617	-0.796817	-0.374973	-0.515588	-0.292969	-0.117188	-0.093750	313	17_29_15_1339920
0.000000	-0.172852	0.682617	-0.787443	-0.374973	-0.515588	-0.304688	-0.128906	-0.070313	314	17_29_15_1501210
-0.005859	-0.169922	0.682617	-0.796817	-0.374973	-0.515588	-0.339844	-0.128906	-0.093750	315	17_29_15_1662500
0.002930	-0.166992	0.685547	-0.796817	-0.374973	-0.515588	-0.292969	-0.105469	-0.128906	316	17_29_15_1823790
-0.002930	-0.164063	0.685547	-0.796817	-0.374973	-0.515588	-0.304688	-0.093750	-0.128906	317	17_29_15_1985080
-0.002930	-0.166992	0.688477	-0.787443	-0.374973	-0.515588	-0.304688	-0.140625	-0.093750	318	17_29_15_2146370
-0.014648	-0.169922	0.691406	-0.787443	-0.374973	-0.515588	-0.292969	-0.128906	-0.082031	319	17_29_15_2307660
-0.008789	-0.158203	0.682617	-0.787443	-0.374973	-0.506213	-0.304688	-0.117188	-0.117188	320	17_29_15_2468950
-0.005859	-0.169922	0.688477	-0.787443	-0.374973	-0.515588	-0.304688	-0.093750	-0.105469	321	17_29_15_2630240
-0.008789	-0.169922	0.682617	-0.796817	-0.374973	-0.515588	-0.304688	-0.117188	-0.128906	322	17_29_15_2791530
-0.008789	-0.169922	0.679688	-0.787443	-0.374973	-0.515588	-0.292969	-0.128906	-0.117188	323	17_29_15_2952820
-0.008789	-0.164063	0.676758	-0.796817	-0.374973	-0.515588	-0.164063	-0.023438	0.011719	324	17_29_15_3114110
-0.005859	-0.164063	0.682617	-0.787443	-0.374973	-0.515588	-0.304688	-0.117188	-0.023438	325	17_29_15_3275400
-0.005859	-0.169922	0.685547	-0.787443	-0.374973	-0.515588	-0.304688	-0.117188	-0.046875	326	17_29_15_3436690
-0.011719	-0.169922	0.682617	-0.787443	-0.374973	-0.506213	-0.304688	-0.140625	-0.117188	327	17_29_15_3597980
-0.008789	-0.175781	0.673828	-0.796817	-0.374973	-0.496839	-0.304688	-0.105469	-0.128906	328	17_29_15_3759270
-0.011719	-0.169922	0.694336	-0.796817	-0.374973	-0.515588	-0.292969	-0.093750	-0.082031	329	17_29_15_3920560
0.000000	-0.181641	0.688477	-0.787443	-0.374973	-0.506213	-0.304688	-0.128906	-0.070313	330	17_29_15_4081850
-0.011719	-0.164063	0.688477	-0.796817	-0.374973	-0.515588	-0.304688	-0.117188	-0.082031	331	17_29_15_4243140
0.005859	-0.178711	0.679688	-0.787443	-0.374973	-0.515588	-0.304688	-0.082031	-0.035156	332	17_29_15_4404430
-0.002930	-0.175781	0.691406	-0.787443	-0.374973	-0.515588	-0.304688	-0.082031	-0.117188	333	17_29_15_4565720
-0.005859	-0.172852	0.688477	-0.787443	-0.374973	-0.515588	-0.304688	-0.117188	-0.128906	334	17_29_15_4727010
-0.017578	-0.166992	0.682617	-0.796817	-0.374973	-0.506213	-0.304688	-0.140625	-0.082031	335	17_29_15_4888300
-0.005859	-0.169922	0.685547	-0.787443	-0.384347	-0.515588	-0.304688	-0.175781	-0.082031	336	17_29_15_5049590
-0.017578	-0.166992	0.682617	-0.787443	-0.374973	-0.515588	-0.339844	-0.117188	-0.128906	337	17_29_15_5210880
0.000000	-0.169922	0.688477	-0.787443	-0.374973	-0.515588	-0.304688	-0.093750	-0.152344	338	17_29_15_5372170
-0.014648	-0.178711	0.688477	-0.787443	-0.374973	-0.515588	-0.292969	-0.093750	-0.105469	339	17_29_15_5533460
-0.014648	-0.172852	0.688477	-0.787443	-0.374973	-0.515588	-0.304688	-0.152344	-0.082031	340	17_29_15_5694750
-0.008789	-0.175781	0.682617	-0.787443	-0.374973	-0.515588	-0.304688	-0.152344	-0.011719	341	17_29_15_5856040
-0.014648	-0.169922	0.682617	-0.787443	-0.384347	-0.515588	-0.316406	-0.164063	-0.070313	342	17_29_15_6017330
-0.002930	-0.169922	0.676758	-0.787443	-0.374973	-0.515588	-0.339844	-0.140625	-0.093750	343	17_29_15_6178620
-0.005859	-0.169922	0.676758	-0.787443	-0.374973	-0.515588	-0.304688	-0.093750	-0.058594	344	17_29_15_6339910
-0.008789	-0.164063	0.679688	-0.787443	-0.374973	-0.515588	-0.304688	-0.105469	-0.117188	345	17_29_15_6501200
0.005859	-0.158203	0.682617	-0.796817	-0.374973	-0.515588	-0.304688	-0.093750	-0.128906	346	17_29_15_6662490
-0.011719	-0.169922	0.679688	-0.787443	-0.374973	-0.515588	-0.304688	-0.117188	-0.082031	347	17_29_15_6823780
0.000000	-0.166992	0.685547	-0.787443	-0.374973	-0.515588	-0.304688	-0.105469	-0.058594	348	17_29_15_6985070
0.002930	-0.175781	0.682617	-0.787443	-0.374973	-0.515588	-0.292969	-0.105469	-0.082031	349	17_29_15_7146360
-0.002930	-0.175781	0.688477	-0.787443	-0.374973	-0.515588	-0.304688	-0.093750	-0.140625	350	17_29_15_7307650
-0.008789	-0.166992	0.688477	-0.787443	-0.374973	-0.515588	-0.339844	-0.082031	-0.140625	351	17_29_15_7468940
0.002930	-0.164063	0.685547	-0.796817	-0.374973	-0.506213	-0.281250	-0.082031	0.175781	352	17_29_15_7630230
-0.005859	-0.181641	0.682617	-0.787443	-0.374973	-0.515588	-0.304688	-0.093750	-0.105469	353	17_29_15_7791520
-0.008789	-0.166992	0.682617	-0.796817	-0.384347	-0.515588	-0.304688	-0.117188	-0.070313	354	17_29_15_7952810
-0.008789	-0.181641	0.688477	-0.787443	-0.374973	-0.515588	-0.328125	-0.117188	-0.082031	355	17_29_15_8114100
-0.008789	-0.175781	0.676758	-0.787443	-0.374973	-0.515588	-0.292969	-0.093750	-0.117188	356	17_29_15_8275390
-0.005859	-0.166992	0.682617	-0.787443	-0.374973	-0.515588	-0.292969	-0.093750	-0.093750	357	17_29_15_8436680
-0.008789	-0.172852	0.682617	-0.796817	-0.374973	-0.515588	-0.292969	-0.152344	-0.093750	358	17_29_15_8597970
-0.014648	-0.178711	0.685547	-0.787443	-0.374973	-0.515588	-0.304688	-0.117188	-0.117188	359	17_29_15_8759260
0.002930	-0.166992	0.691406	-0.787443	-0.374973	-0.515588	-0.304688	-0.093750	-0.105469	360	17_29_15_8920550
0.002930	-0.166992	0.676758	-0.787443	-0.374973	-0.515588	-0.304688	-0.117188	-0.105469	361	17_29_15_9081840
-0.005859	-0.175781	0.682617	-0.787443	-0.374973	-0.515588	-0.269531	-0.117188	0.175781	362	17_29_15_9243130
-0.005859	-0.175781	0.682617	-0.787443	-0.374973	-0.515588	-0.304688	-0.164063	-0.046875	363	17_29_15_9404420
-0.005859	-0.169922	0.688477	-0.787443	-0.374973	-0.506213	-0.304688	-0.140625	-0.082031	364	17_29_15_9565710
0.005859	-0.169922	0.682617	-0.796817	-0.374973	-0.515588	-0.304688	-0.070313	-0.128906	365	17_29_15_9727000
-0.002930	-0.166992	0.682617	-0.787443	-0.374973	-0.515588	-0.304688	-0.093750	-0.093750	366	17_29_15_9888290
-0.008789	-0.175781	0.685547	-0.796817	-0.374973	-0.506213	-0.128906	-0.082031	-0.011719	367	17_29_16_0049580
-0.002930	-0.169922	0.676758	-0.787443	-0.374973	-0.515588	-0.304688	-0.117188	-0.140625	368	17_29_16_0210870
-0.014648	-0.169922	0.685547	-0.796817	-0.374973	-0.515588	-0.281250	-0.105469	-0.093750	369	17_29_16_0372160
0.000000	-0.184570	0.691406	-0.787443	-0.374973	-0.515588	-0.292969	-0.117188	-0.093750	370	17_29_16_0533450
-0.014648	-0.169922	0.688477	-0.806191	-0.374973	-0.515588	-0.199219	-0.035156	0.093750	371	17_29_16_0694740
0.000000	-0.169922	0.676758	-0.787443	-0.374973	-0.515588	-0.339844	-0.164063	-0.058594	372	17_29_16_0856030
-0.017578	-0.169922	0.679688	-0.787443	-0.374973	-0.506213	-0.292969	-0.105469	-0.070313	373	17_29_16_1017320
-0.008789	-0.175781	0.685547	-0.787443	-0.374973	-0.515588	-0.304688	-0.105469	-0.105469	374	17_29_16_1178610
-0.011719	-0.175781	0.676758	-0.796817	-0.374973	-0.515588	-0.292969	-0.140625	-0.093750	375	17_29_16_1339900
-0.008789	-0.169922	0.682617	-0.787443	-0.374973	-0.506213	-0.304688	-0.117188	-0.070313	376	17_29_16_1501190
-0.005859	-0.169922	0.688477	-0.787443	-0.374973	-0.515588	-0.304688	-0.117188	-0.082031	377	17_29_16_1662480
-0.005859	-0.166992	0.679688	-0.787443	-0.374973	-0.515588	-0.292969	-0.128906	-0.082031	378	17_29_16_1823770
-0.014648	-0.169922	0.682617	-0.787443	-0.374973	-0.515588	-0.304688	-0.117188	-0.058594	379	17_29_16_1985060
-0.005859	-0.161133	0.685547	-0.787443	-0.374973	-0.515588	-0.328125	-0.117188	-0.082031	380	17_29_16_2146350
-0.005859	-0.178711	0.679688	-0.787443	-0.374973	-0.515588	-0.292969	-0.117188	-0.093750	381	17_29_16_2307640
-0.008789	-0.175781	0.691406	-0.796817	-0.374973	-0.506213	-0.269531	0.011719	0.070313	382	17_29_16_2468930
-0.008789	-0.175781	0.688477	-0.796817	-0.374973	-0.506213	-0.257813	-0.082031	-0.011719	383	17_29_16_2630220
-0.005859	-0.169922	0.688477	-0.787443	-0.374973	-0.515588	-0.304688	-0.117188	0.000000	384	17_29_16_2791510
0.000000	-0.175781	0.691406	-0.787443	-0.384347	-0.515588	-0.292969	-0.117188	-0.082031	385	17_29_16_2952800
-0.014648	-0.172852	0.679688	-0.796817	-0.374973	-0.515588	-0.292969	-0.117188	-0.140625	386	17_29_16_3114090
-0.002930	-0.172852	0.682617	-0.787443	-0.374973	-0.515588	-0.316406	-0.117188	-0.093750	387	17_29_16_3275380
-0.005859	-0.175781	0.685547	-0.796817	-0.374973	-0.515588	-0.304688	-0.117188	-0.105469	388	17_29_16_3436670
-0.005859	-0.178711	0.676758	-0.787443	-0.374973	-0.515588	-0.328125	-0.105469	-0.023438	389	17_29_16_3597960
-0.011719	-0.172852	0.688477	-0.796817	-0.374973	-0.515588	-0.140625	0.000000	0.070313	390	17_29_16_3759250
0.000000	-0.181641	0.691406	-0.796817	-0.374973	-0.515588	-0.281250	-0.117188	-0.105469	391	17_29_16_3920540
-0.011719	-0.175781	0.679688	-0.796817	-0.374973	-0.515588	-0.292969	-0.140625	-0.082031	392	17_29_16_4081830
-0.005859	-0.166992	0.685547	-0.787443	-0.374973	-0.515588	-0.292969	-0.093750	-0.011719	393	17_29_16_4243120
-0.008789	-0.172852	0.691406	-0.796817	-0.374973	-0.515588	-0.292969	-0.093750	-0.023438	394	17_29_16_4404410
-0.005859	-0.178711	0.682617	-0.787443	-0.384347	-0.515588	-0.304688	-0.128906	-0.093750	395	17_29_16_4565700
-0.005859	-0.166992	0.685547	-0.796817	-0.374973	-0.515588	-0.304688	-0.152344	-0.117188	396	17_29_16_4726990
-0.008789	-0.172852	0.682617	-0.787443	-0.374973	-0.515588	-0.304688	-0.117188	-0.046875	397	17_29_16_4888280
0.000000	-0.175781	0.682617	-0.815566	-0.374973	-0.515588	-0.304688	-0.093750	-0.058594	398	17_29_16_5049570
-0.005859	-0.172852	0.685547	-0.787443	-0.374973	-0.515588	-0.304688	-0.117188	-0.093750	399	17_29_16_5210860
-0.011719	-0.169922	0.688477	-0.787443	-0.374973	-0.506213	-0.304688	-0.105469	-0.058594	400	17_29_16_5372150
-0.011719	-0.172852	0.676758	-0.796817	-0.374973	-0.515588	-0.281250	-0.082031	-0.023438	401	17_29_16_5533440
0.002930	-0.172852	0.682617	-0.787443	-0.374973	-0.515588	-0.257813	-0.082031	-0.023438	402	17_29_16_5694730
-0.005859	-0.178711	0.676758	-0.796817	-0.384347	-0.515588	-0.304688	-0.175781	-0.117188	403	17_29_16_5856020
-0.011719	-0.181641	0.688477	-0.787443	-0.374973	-0.515588	-0.292969	-0.117188	-0.082031	404	17_29_16_6017310
-0.011719	-0.166992	0.682617	-0.787443	-0.374973	-0.515588	-0.304688	-0.117188	-0.035156	405	17_29_16_6178600
-0.005859	-0.161133	0.685547	-0.787443	-0.374973	-0.515588	-0.304688	-0.128906	-0.058594	406	17_29_16_6339890
-0.008789	-0.169922	0.691406	-0.796817	-0.374973	-0.515588	-0.304688	-0.128906	-0.082031	407	17_29_16_6501180
-0.008789	-0.175781	0.685547	-0.787443	-0.374973	-0.506213	-0.304688	-0.117188	-0.140625	408	17_29_16_6662470
-0.008789	-0.166992	0.685547	-0.787443	-0.374973	-0.515588	-0.304688	-0.082031	-0.105469	409	17_29_16_6823760
-0.008789	-0.169922	0.694336	-0.796817	-0.374973	-0.506213	-0.304688	-0.105469	-0.082031	410	17_29_16_6985050
-0.005859	-0.175781	0.691406	-0.787443	-0.374973	-0.506213	-0.292969	-0.140625	-0.082031	411	17_29_16_7146340
0.000000	-0.166992	0.682617	-0.787443	-0.374973	-0.506213	-0.304688	-0.128906	-0.093750	412	17_29_16_7307630
-0.002930	-0.184570	0.682617	-0.787443	-0.374973	-0.506213	-0.304688	-0.082031	-0.128906	413	17_29_16_7468920
-0.011719	-0.175781	0.688477	-0.787443	-0.384347	-0.515588	-0.304688	-0.082031	-0.105469	414	17_29_16_7630210
-0.002930	-0.169922	0.682617	-0.787443	-0.374973	-0.515588	-0.328125	-0.093750	-0.105469	415	17_29_16_7791500
0.002930	-0.169922	0.688477	-0.787443	-0.374973	-0.515588	-0.304688	-0.082031	-0.128906	416	17_29_16_7952790
-0.002930	-0.175781	0.676758	-0.787443	-0.374973	-0.515588	-0.292969	-0.105469	-0.128906	417	17_29_16_8114080
-0.008789	-0.166992	0.691406	-0.787443	-0.374973	-0.515588	-0.304688	-0.152344	-0.152344	418	17_29_16_8275370
-0.011719	-0.178711	0.682617	-0.796817	-0.374973	-0.515588	-0.164063	-0.082031	-0.011719	419	17_29_16_8436660
0.005859	-0.175781	0.691406	-0.796817	-0.384347	-0.515588	-0.105469	-0.070313	0.070313	420	17_29_16_8597950
-0.002930	-0.169922	0.676758	-0.796817	-0.374973	-0.515588	-0.292969	-0.093750	-0.070313	421	17_29_16_8759240
0.008789	-0.175781	0.682617	-0.787443	-0.374973	-0.515588	-0.292969	-0.093750	-0.105469	422	17_29_16_8920530
0.014648	-0.175781	0.688477	-0.796817	-0.374973	-0.515588	-0.269531	-0.117188	-0.058594	423	17_29_16_9081820
0.002930	-0.178711	0.682617	-0.796817	-0.374973	-0.515588	-0.257813	-0.070313	-0.117188	424	17_29_16_9243110
-0.017578	-0.175781	0.685547	-0.787443	-0.374973	-0.515588	-0.304688	-0.117188	-0.187500	425	17_29_16_9404400
0.002930	-0.166992	0.688477	-0.787443	-0.374973	-0.515588	-0.304688	-0.164063	-0.140625	426	17_29_16_9565690
-0.002930	-0.181641	0.685547	-0.787443	-0.374973	-0.515588	-0.292969	-0.164063	-0.105469	427	17_29_16_9726980
-0.017578	-0.172852	0.679688	-0.787443	-0.374973	-0.515588	-0.304688	-0.164063	-0.035156	428	17_29_16_9888270
-0.011719	-0.169922	0.676758	-0.787443	-0.374973	-0.506213	-0.316406	-0.093750	0.035156	429	17_29_17_0049560
-0.014648	-0.166992	0.682617	-0.787443	-0.374973	-0.506213	-0.316406	-0.093750	-0.011719	430	17_29_17_0210850
-0.023438	-0.181641	0.670898	-0.796817	-0.374973	-0.515588	-0.304688	-0.140625	-0.070313	431	17_29_17_0372140
-0.011719	-0.172852	0.685547	-0.796817	-0.374973	-0.506213	-0.304688	-0.117188	-0.093750	432	17_29_17_0533430
-0.005859	-0.175781	0.682617	-0.787443	-0.374973	-0.506213	-0.281250	-0.082031	-0.128906	433	17_29_17_0694720
-0.005859	-0.169922	0.685547	-0.796817	-0.374973	-0.515588	-0.292969	-0.023438	0.140625	434	17_29_17_0856010
-0.017578	-0.181641	0.688477	-0.796817	-0.374973	-0.515588	-0.292969	-0.117188	-0.117188	435	17_29_17_1017300
-0.005859	-0.169922	0.676758	-0.787443	-0.374973	-0.515588	-0.304688	-0.117188	0.011719	436	17_29_17_1178590
-0.008789	-0.178711	0.679688	-0.787443	-0.374973	-0.515588	-0.304688	-0.093750	-0.058594	437	17_29_17_1339880
-0.020508	-0.169922	0.667969	-0.796817	-0.374973	-0.515588	-0.304688	-0.093750	-0.082031	438	17_29_17_1501170
0.002930	-0.181641	0.679688	-0.787443	-0.384347	-0.515588	-0.304688	-0.093750	-0.128906	439	17_29_17_1662460
-0.005859	-0.175781	0.676758	-0.796817	-0.384347	-0.515588	-0.339844	-0.093750	-0.093750	440	17_29_17_1823750
0.002930	-0.169922	0.682617	-0.787443	-0.374973	-0.515588	-0.199219	-0.117188	-0.011719	441	17_29_17_1985040
-0.008789	-0.169922	0.688477	-0.787443	-0.384347	-0.515588	-0.292969	-0.117188	-0.070313	442	17_29_17_2146330
-0.014648	-0.172852	0.688477	-0.796817	-0.374973	-0.515588	-0.281250	-0.082031	-0.023438	443	17_29_17_2307620
0.000000	-0.175781	0.682617	-0.787443	-0.384347	-0.515588	-0.304688	-0.093750	-0.070313	444	17_29_17_2468910
0.000000	-0.169922	0.682617	-0.787443	-0.384347	-0.515588	-0.328125	-0.128906	-0.093750	445	17_29_17_2630200
0.000000	-0.166992	0.682617	-0.787443	-0.384347	-0.515588	-0.304688	-0.140625	-0.105469	446	17_29_17_2791490
-0.005859	-0.161133	0.682617	-0.787443	-0.374973	-0.515588	-0.304688	-0.117188	-0.105469	447	17_29_17_2952780
-0.005859	-0.169922	0.682617	-0.787443	-0.374973	-0.515588	-0.351563	-0.117188	-0.105469	448	17_29_17_3114070
-0.005859	-0.175781	0.688477	-0.787443	-0.374973	-0.515588	-0.292969	-0.093750	-0.140625	449	17_29_17_3275360
-0.017578	-0.175781	0.676758	-0.787443	-0.374973	-0.515588	-0.292969	-0.117188	-0.093750	450	17_29_17_3436650
-0.005859	-0.164063	0.682617	-0.787443	-0.374973	-0.515588	-0.316406	-0.117188	-0.058594	451	17_29_17_3597940
-0.008789	-0.178711	0.676758	-0.787443	-0.374973	-0.515588	-0.304688	-0.128906	-0.070313	452	17_29_17_3759230
0.000000	-0.175781	0.682617	-0.796817	-0.384347	-0.515588	-0.281250	-0.117188	-0.058594	453	17_29_17_3920520
-0.008789	-0.175781	0.682617	-0.787443	-0.384347	-0.515588	-0.304688	-0.140625	-0.046875	454	17_29_17_4081810
-0.011719	-0.164063	0.682617	-0.787443	-0.374973	-0.515588	-0.339844	-0.105469	-0.082031	455	17_29_17_4243100
-0.017578	-0.175781	0.688477	-0.787443	-0.384347	-0.515588	-0.304688	-0.117188	-0.082031	456	17_29_17_4404390
-0.014648	-0.169922	0.682617	-0.787443	-0.374973	-0.515588	-0.292969	-0.128906	-0.070313	457	17_29_17_4565680
0.000000	-0.169922	0.682617	-0.787443	-0.374973	-0.515588	-0.304688	-0.117188	-0.082031	458	17_29_17_4726970
-0.002930	-0.169922	0.679688	-0.796817	-0.374973	-0.515588	-0.199219	-0.105469	-0.058594	459	17_29_17_4888260
-0.011719	-0.169922	0.688477	-0.796817	-0.374973	-0.515588	-0.304688	-0.128906	-0.152344	460	17_29_17_5049550
-0.017578	-0.169922	0.682617	-0.787443	-0.374973	-0.506213	-0.304688	-0.093750	-0.164063	461	17_29_17_5210840
-0.011719	-0.172852	0.682617	-0.787443	-0.374973	-0.515588	-0.292969	-0.093750	-0.140625	462	17_29_17_5372130
-0.002930	-0.164063	0.676758	-0.806191	-0.374973	-0.515588	-0.082031	-0.011719	0.000000	463	17_29_17_5533420
-0.011719	-0.175781	0.682617	-0.787443	-0.374973	-0.515588	-0.304688	-0.082031	-0.058594	464	17_29_17_5694710
-0.008789	-0.175781	0.670898	-0.787443	-0.374973	-0.515588	-0.304688	-0.093750	-0.058594	465	17_29_17_5856000
-0.005859	-0.175781	0.679688	-0.806191	-0.374973	-0.506213	-0.269531	-0.070313	0.082031	466	17_29_17_6017290
-0.017578	-0.172852	0.688477	-0.787443	-0.384347	-0.515588	-0.304688	-0.105469	-0.058594	467	17_29_17_6178580
-0.011719	-0.175781	0.682617	-0.787443	-0.374973	-0.515588	-0.304688	-0.140625	-0.070313	468	17_29_17_6339870
0.002930	-0.169922	0.685547	-0.796817	-0.374973	-0.515588	-0.292969	-0.082031	-0.105469	469	17_29_17_6501160
-0.017578	-0.172852	0.682617	-0.787443	-0.374973	-0.506213	-0.304688	-0.117188	-0.117188	470	17_29_17_6662450
-0.005859	-0.172852	0.682617	-0.787443	-0.374973	-0.515588	-0.304688	-0.105469	-0.128906	471	17_29_17_6823740
-0.005859	-0.161133	0.676758	-0.796817	-0.374973	-0.515588	-0.292969	-0.082031	-0.117188	472	17_29_17_6985030
-0.017578	-0.175781	0.682617	-0.787443	-0.374973	-0.515588	-0.292969	-0.128906	-0.070313	473	17_29_17_7146320
0.002930	-0.175781	0.676758	-0.796817	-0.374973	-0.515588	-0.304688	-0.117188	-0.070313	474	17_29_17_7307610
-0.005859	-0.175781	0.688477	-0.787443	-0.374973	-0.515588	-0.292969	-0.082031	-0.105469	475	17_29_17_7468900
-0.011719	-0.169922	0.679688	-0.787443	-0.374973	-0.515588	-0.304688	-0.093750	-0.105469	476	17_29_17_7630190
-0.005859	-0.172852	0.679688	-0.787443	-0.374973	-0.515588	-0.304688	-0.105469	0.105469	477	17_29_17_7791480
-0.011719	-0.172852	0.688477	-0.787443	-0.374973	-0.515588	-0.304688	-0.082031	-0.105469	478	17_29_17_7952770
-0.005859	-0.175781	0.676758	-0.796817	-0.374973	-0.515588	-0.304688	-0.105469	-0.105469	479	17_29_17_8114060
-0.002930	-0.169922	0.688477	-0.796817	-0.374973	-0.515588	-0.304688	-0.140625	-0.093750	480	17_29_17_8275350
-0.011719	-0.175781	0.685547	-0.796817	-0.374973	-0.515588	-0.246094	-0.093750	-0.093750	481	17_29_17_8436640
-0.002930	-0.172852	0.679688	-0.787443	-0.374973	-0.515588	-0.304688	-0.082031	-0.105469	482	17_29_17_8597930
-0.002930	-0.172852	0.688477	-0.787443	-0.374973	-0.515588	-0.292969	-0.082031	-0.058594	483	17_29_17_8759220
0.000000	-0.169922	0.688477	-0.787443	-0.374973	-0.515588	-0.304688	-0.105469	-0.105469	484	17_29_17_8920510
-0.017578	-0.172852	0.682617	-0.787443	-0.374973	-0.515588	-0.304688	-0.093750	-0.128906	485	17_29_17_9081800
-0.002930	-0.181641	0.676758	-0.796817	-0.384347	-0.515588	-0.304688	-0.117188	-0.128906	486	17_29_17_9243090
-0.020508	-0.169922	0.676758	-0.796817	-0.374973	-0.515588	-0.257813	-0.117188	-0.105469	487	17_29_17_9404380
-0.005859	-0.175781	0.688477	-0.787443	-0.374973	-0.515588	-0.292969	-0.140625	-0.082031	488	17_29_17_9565670
-0.014648	-0.172852	0.676758	-0.787443	-0.384347	-0.515588	-0.304688	-0.093750	-0.128906	489	17_29_17_9726960
-0.008789	-0.169922	0.688477	-0.796817	-0.374973	-0.515588	-0.292969	-0.128906	-0.046875	490	17_29_17_9888250
-0.002930	-0.166992	0.679688	-0.787443	-0.374973	-0.515588	-0.304688	-0.128906	-0.011719	491	17_29_18_0049540
0.005859	-0.172852	0.679688	-0.796817	-0.374973	-0.515588	-0.339844	-0.082031	-0.082031	492	17_29_18_0210830
-0.008789	-0.175781	0.679688	-0.787443	-0.384347	-0.515588	-0.304688	-0.105469	-0.023438	493	17_29_18_0372120
-0.011719	-0.184570	0.676758	-0.787443	-0.374973	-0.515588	-0.105469	0.023438	0.140625	494	17_29_18_0533410
-0.005859	-0.178711	0.691406	-0.787443	-0.374973	-0.515588	-0.292969	-0.093750	-0.035156	495	17_29_18_0694700
-0.008789	-0.169922	0.688477	-0.787443	-0.374973	-0.515588	-0.328125	-0.117188	-0.082031	496	17_29_18_0855990
-0.008789	-0.169922	0.679688	-0.796817	-0.374973	-0.515588	-0.292969	-0.128906	-0.117188	497	17_29_18_1017280
-0.005859	-0.172852	0.682617	-0.787443	-0.374973	-0.515588	-0.292969	-0.140625	0.023438	498	17_29_18_1178570
-0.002930	-0.175781	0.679688	-0.787443	-0.374973	-0.515588	-0.304688	-0.128906	-0.082031	499	17_29_18_1339860
-0.008789	-0.178711	0.679688	-0.787443	-0.374973	-0.515588	-0.304688	-0.128906	-0.105469	500	17_29_18_1501150
-0.014648	-0.169922	0.682617	-0.787443	-0.374973	-0.506213	-0.304688	-0.093750	-0.105469	501	17_29_18_1662440
-0.011719	-0.178711	0.688477	-0.787443	-0.374973	-0.515588	-0.304688	-0.117188	-0.117188	502	17_29_18_1823730
-0.002930	-0.172852	0.679688	-0.787443	-0.374973	-0.515588	-0.304688	-0.128906	-0.105469	503	17_29_18_1985020
0.002930	-0.175781	0.682617	-0.796817	-0.374973	-0.515588	-0.105469	-0.023438	-0.023438	504	17_29_18_2146310
0.002930	-0.187500	0.688477	-0.787443	-0.374973	-0.515588	-0.128906	0.046875	0.093750	505	17_29_18_2307600
-0.011719	-0.172852	0.688477	-0.787443	-0.374973	-0.515588	-0.304688	-0.128906	-0.105469	506	17_29_18_2468890
-0.011719	-0.169922	0.679688	-0.787443	-0.374973	-0.515588	-0.304688	-0.117188	-0.117188	507	17_29_18_2630180
-0.005859	-0.169922	0.685547	-0.796817	-0.374973	-0.515588	-0.304688	-0.117188	-0.093750	508	17_29_18_2791470
-0.008789	-0.169922	0.682617	-0.787443	-0.374973	-0.515588	-0.304688	-0.152344	-0.046875	509	17_29_18_2952760
-0.005859	-0.169922	0.682617	-0.796817	-0.374973	-0.515588	-0.304688	-0.117188	-0.058594	510	17_29_18_3114050
0.000000	-0.175781	0.688477	-0.796817	-0.374973	-0.515588	-0.304688	-0.093750	-0.093750	511	17_29_18_3275340
-0.017578	-0.172852	0.676758	-0.787443	-0.374973	-0.515588	-0.292969	-0.117188	-0.093750	512	17_29_18_3436630
-0.002930	-0.175781	0.682617	-0.787443	-0.374973	-0.515588	-0.292969	-0.117188	-0.058594	513	17_29_18_3597920
0.000000	-0.172852	0.679688	-0.796817	-0.374973	-0.515588	-0.082031	-0.082031	0.035156	514	17_29_18_3759210
0.000000	-0.172852	0.676758	-0.796817	-0.374973	-0.515588	-0.304688	-0.117188	-0.128906	515	17_29_18_3920500
-0.005859	-0.172852	0.685547	-0.787443	-0.374973	-0.506213	-0.339844	-0.128906	-0.093750	516	17_29_18_4081790
-0.014648	-0.169922	0.676758	-0.806191	-0.374973	-0.515588	-0.269531	-0.117188	-0.058594	517	17_29_18_4243080
-0.017578	-0.166992	0.691406	-0.796817	-0.374973	-0.515588	-0.292969	-0.105469	-0.105469	518	17_29_18_4404370
-0.002930	-0.172852	0.679688	-0.787443	-0.374973	-0.515588	-0.304688	-0.117188	-0.117188	519	17_29_18_4565660
0.002930	-0.164063	0.679688	-0.787443	-0.384347	-0.515588	-0.304688	-0.117188	-0.082031	520	17_29_18_4726950
-0.008789	-0.175781	0.682617	-0.787443	-0.374973	-0.515588	-0.339844	-0.152344	-0.070313	521	17_29_18_4888240
-0.008789	-0.166992	0.688477	-0.787443	-0.374973	-0.515588	-0.304688	-0.175781	-0.093750	522	17_29_18_5049530
-0.011719	-0.175781	0.688477	-0.787443	-0.374973	-0.515588	-0.316406	-0.105469	-0.082031	523	17_29_18_5210820
0.000000	-0.169922	0.679688	-0.787443	-0.374973	-0.515588	-0.304688	-0.082031	-0.093750	524	17_29_18_5372110
-0.011719	-0.175781	0.688477	-0.787443	-0.374973	-0.515588	-0.339844	-0.070313	-0.046875	525	17_29_18_5533400
-0.008789	-0.178711	0.688477	-0.787443	-0.374973	-0.515588	-0.304688	-0.093750	-0.058594	526	17_29_18_5694690
-0.011719	-0.164063	0.682617	-0.787443	-0.374973	-0.515588	-0.304688	-0.117188	-0.105469	527	17_29_18_5855980
-0.005859	-0.161133	0.676758	-0.796817	-0.384347	-0.515588	-0.269531	-0.082031	-0.093750	528	17_29_18_6017270
-0.005859	-0.172852	0.691406	-0.796817	-0.374973	-0.515588	-0.292969	-0.082031	-0.152344	529	17_29_18_6178560
-0.008789	-0.172852	0.682617	-0.787443	-0.374973	-0.515588	-0.304688	-0.082031	-0.093750	530	17_29_18_6339850
-0.008789	-0.175781	0.691406	-0.796817	-0.374973	-0.515588	-0.292969	-0.093750	-0.058594	531	17_29_18_6501140
-0.008789	-0.169922	0.688477	-0.787443	-0.374973	-0.515588	-0.304688	-0.117188	-0.046875	532	17_29_18_6662430
-0.005859	-0.169922	0.688477	-0.787443	-0.374973	-0.515588	-0.304688	-0.140625	-0.011719	533	17_29_18_6823720
-0.008789	-0.169922	0.688477	-0.796817	-0.374973	-0.515588	-0.046875	-0.011719	0.023438	534	17_29_18_6985010
-0.005859	-0.172852	0.688477	-0.796817	-0.374973	-0.515588	-0.292969	-0.152344	-0.128906	535	17_29_18_7146300
-0.005859	-0.169922	0.688477	-0.796817	-0.374973	-0.515588	-0.304688	-0.117188	-0.140625	536	17_29_18_7307590
-0.005859	-0.175781	0.685547	-0.787443	-0.374973	-0.515588	-0.304688	-0.128906	-0.117188	537	17_29_18_7468880
-0.011719	-0.166992	0.676758	-0.796817	-0.374973	-0.506213	-0.292969	-0.070313	0.070313	538	17_29_18_7630170
-0.014648	-0.172852	0.682617	-0.787443	-0.374973	-0.506213	-0.292969	-0.128906	-0.093750	539	17_29_18_7791460
-0.002930	-0.158203	0.682617	-0.787443	-0.374973	-0.515588	-0.304688	-0.117188	-0.128906	540	17_29_18_7952750
-0.008789	-0.169922	0.685547	-0.787443	-0.374973	-0.515588	-0.304688	-0.105469	-0.093750	541	17_29_18_8114040
-0.002930	-0.164063	0.685547	-0.787443	-0.374973	-0.506213	-0.292969	-0.093750	-0.058594	542	17_29_18_8275330
-0.005859	-0.181641	0.679688	-0.787443	-0.374973	-0.506213	-0.292969	-0.117188	-0.093750	543	17_29_18_8436620
-0.002930	-0.164063	0.682617	-0.796817	-0.374973	-0.515588	-0.140625	-0.058594	-0.058594	544	17_29_18_8597910
-0.005859	-0.169922	0.685547	-0.787443	-0.374973	-0.506213	-0.328125	-0.117188	-0.105469	545	17_29_18_8759200
-0.005859	-0.175781	0.682617	-0.787443	-0.374973	-0.515588	-0.105469	-0.070313	0.093750	546	17_29_18_8920490
-0.008789	-0.175781	0.679688	-0.787443	-0.374973	-0.515588	-0.292969	-0.082031	-0.070313	547	17_29_18_9081780
-0.008789	-0.169922	0.676758	-0.796817	-0.374973	-0.515588	-0.304688	-0.082031	-0.082031	548	17_29_18_9243070
-0.008789	-0.172852	0.685547	-0.796817	-0.384347	-0.515588	-0.304688	-0.093750	0.117188	549	17_29_18_9404360
-0.011719	-0.181641	0.685547	-0.787443	-0.374973	-0.515588	-0.304688	-0.105469	-0.058594	550	17_29_18_9565650
-0.005859	-0.164063	0.694336	-0.787443	-0.374973	-0.515588	-0.292969	-0.093750	-0.082031	551	17_29_18_9726940
-0.008789	-0.169922	0.682617	-0.787443	-0.374973	-0.515588	-0.304688	-0.105469	-0.035156	552	17_29_18_9888230
0.000000	-0.166992	0.679688	-0.796817	-0.374973	-0.515588	-0.246094	-0.082031	0.046875	553	17_29_19_0049520
-0.008789	-0.169922	0.682617	-0.787443	-0.374973	-0.515588	-0.292969	-0.128906	-0.070313	554	17_29_19_0210810
-0.005859	-0.178711	0.676758	-0.787443	-0.374973	-0.515588	-0.304688	-0.128906	-0.128906	555	17_29_19_0372100
0.000000	-0.172852	0.682617	-0.787443	-0.374973	-0.515588	-0.339844	-0.117188	-0.093750	556	17_29_19_0533390
-0.008789	-0.175781	0.682617	-0.796817	-0.374973	-0.515588	-0.304688	-0.117188	-0.011719	557	17_29_19_0694680
-0.008789	-0.175781	0.682617	-0.787443	-0.374973	-0.515588	-0.292969	-0.128906	-0.035156	558	17_29_19_0855970
0.000000	-0.169922	0.688477	-0.787443	-0.374973	-0.515588	-0.292969	-0.082031	-0.070313	559	17_29_19_1017260
-0.005859	-0.169922	0.673828	-0.787443	-0.374973	-0.515588	-0.304688	-0.105469	-0.117188	560	17_29_19_1178550
-0.002930	-0.178711	0.682617	-0.787443	-0.374973	-0.515588	-0.304688	-0.140625	-0.128906	561	17_29_19_1339840
-0.014648	-0.169922	0.679688	-0.787443	-0.374973	-0.515588	-0.304688	-0.093750	-0.105469	562	17_29_19_1501130
-0.011719	-0.172852	0.679688	-0.787443	-0.374973	-0.515588	-0.292969	-0.140625	-0.105469	563	17_29_19_1662420
-0.011719	-0.175781	0.682617	-0.796817	-0.374973	-0.515588	-0.292969	-0.152344	-0.140625	564	17_29_19_1823710
-0.008789	-0.166992	0.682617	-0.787443	-0.384347	-0.515588	-0.292969	-0.082031	-0.105469	565	17_29_19_1985000
-0.008789	-0.175781	0.682617	-0.796817	-0.374973	-0.515588	-0.281250	-0.070313	-0.058594	566	17_29_19_2146290
0.000000	-0.175781	0.676758	-0.796817	-0.374973	-0.515588	-0.082031	-0.023438	0.093750	567	17_29_19_2307580
-0.017578	-0.172852	0.682617	-0.796817	-0.374973	-0.515588	-0.304688	-0.117188	-0.082031	568	17_29_19_2468870
-0.011719	-0.178711	0.685547	-0.787443	-0.374973	-0.515588	-0.292969	-0.128906	-0.093750	569	17_29_19_2630160
0.000000	-0.175781	0.682617	-0.787443	-0.374973	-0.515588	-0.339844	-0.117188	-0.082031	570	17_29_19_2791450
0.002930	-0.175781	0.679688	-0.787443	-0.365598	-0.515588	-0.304688	-0.105469	-0.046875	571	17_29_19_2952740
0.002930	-0.161133	0.676758	-0.796817	-0.384347	-0.515588	-0.292969	-0.117188	-0.093750	572	17_29_19_3114030
-0.005859	-0.164063	0.679688	-0.787443	-0.374973	-0.515588	-0.304688	-0.093750	-0.128906	573	17_29_19_3275320
-0.002930	-0.164063	0.682617	-0.796817	-0.384347	-0.515588	-0.117188	-0.046875	-0.011719	574	17_29_19_3436610
0.000000	-0.169922	0.688477	-0.787443	-0.384347	-0.515588	-0.292969	-0.082031	-0.058594	575	17_29_19_3597900
-0.005859	-0.169922	0.682617	-0.796817	-0.374973	-0.515588	-0.304688	-0.093750	-0.023438	576	17_29_19_3759190
-0.005859	-0.164063	0.676758	-0.787443	-0.374973	-0.515588	-0.304688	-0.140625	-0.082031	577	17_29_19_3920480
-0.005859	-0.181641	0.691406	-0.787443	-0.374973	-0.515588	-0.175781	-0.011719	-0.011719	578	17_29_19_4081770
-0.017578	-0.169922	0.676758	-0.796817	-0.374973	-0.515588	-0.328125	-0.117188	-0.105469	579	17_29_19_4243060
-0.005859	-0.172852	0.679688	-0.796817	-0.374973	-0.515588	-0.304688	-0.117188	-0.093750	580	17_29_19_4404350
-0.020508	-0.169922	0.685547	-0.787443	-0.374973	-0.515588	-0.304688	-0.128906	-0.082031	581	17_29_19_4565640
-0.008789	-0.172852	0.685547	-0.787443	-0.374973	-0.515588	-0.328125	-0.140625	-0.070313	582	17_29_19_4726930
-0.011719	-0.164063	0.676758	-0.796817	-0.374973	-0.515588	-0.292969	-0.128906	-0.035156	583	17_29_19_4888220
-0.008789	-0.161133	0.688477	-0.787443	-0.374973	-0.506213	-0.304688	-0.117188	-0.023438	584	17_29_19_5049510
-0.008789	-0.169922	0.682617	-0.787443	-0.374973	-0.506213	-0.304688	-0.093750	-0.046875	585	17_29_19_5210800
-0.011719	-0.164063	0.688477	-0.796817	-0.374973	-0.515588	-0.304688	-0.117188	-0.082031	586	17_29_19_5372090
-0.008789	-0.172852	0.691406	-0.787443	-0.374973	-0.515588	-0.304688	-0.117188	-0.082031	587	17_29_19_5533380
-0.008789	-0.158203	0.682617	-0.787443	-0.374973	-0.515588	-0.292969	-0.117188	-0.082031	588	17_29_19_5694670
-0.005859	-0.169922	0.679688	-0.796817	-0.374973	-0.515588	-0.304688	-0.082031	-0.105469	589	17_29_19_5855960
-0.011719	-0.175781	0.688477	-0.796817	-0.374973	-0.515588	-0.304688	-0.035156	0.082031	590	17_29_19_6017250
-0.008789	-0.161133	0.688477	-0.787443	-0.384347	-0.515588	-0.328125	-0.128906	-0.058594	591	17_29_19_6178540
-0.017578	-0.178711	0.682617	-0.787443	-0.374973	-0.515588	-0.292969	-0.140625	-0.128906	592	17_29_19_6339830
-0.002930	-0.169922	0.688477	-0.796817	-0.374973	-0.515588	-0.269531	-0.093750	-0.058594	593	17_29_19_6501120
-0.005859	-0.175781	0.673828	-0.787443	-0.374973	-0.515588	-0.304688	-0.093750	-0.105469	594	17_29_19_6662410
-0.017578	-0.175781	0.682617	-0.787443	-0.374973	-0.515588	-0.339844	-0.164063	-0.082031	595	17_29_19_6823700
0.002930	-0.181641	0.688477	-0.787443	-0.384347	-0.506213	-0.292969	-0.164063	-0.035156	596	17_29_19_6984990
-0.005859	-0.166992	0.682617	-0.787443	-0.384347	-0.515588	-0.304688	-0.140625	-0.082031	597	17_29_19_7146280
-0.008789	-0.161133	0.688477	-0.787443	-0.384347	-0.515588	-0.304688	-0.105469	-0.082031	598	17_29_19_7307570
-0.005859	-0.169922	0.676758	-0.787443	-0.374973	-0.515588	-0.339844	-0.082031	-0.082031	599	17_29_19_7468860
-0.002930	-0.169922	0.682617	-0.787443	-0.374973	-0.515588	-0.292969	-0.023438	0.128906	600	17_29_19_7630150
0.000000	-0.184570	0.682617	-0.787443	-0.384347	-0.515588	-0.304688	-0.105469	-0.035156	601	17_29_19_7791440
-0.002930	-0.169922	0.682617	-0.787443	-0.384347	-0.515588	-0.292969	-0.070313	-0.058594	602	17_29_19_7952730
0.002930	-0.175781	0.691406	-0.796817	-0.384347	-0.515588	-0.304688	-0.105469	-0.082031	603	17_29_19_8114020
-0.002930	-0.172852	0.676758	-0.796817	-0.374973	-0.515588	-0.199219	-0.128906	-0.046875	604	17_29_19_8275310
-0.032227	-0.172852	0.676758	-0.796817	-0.374973	-0.515588	-0.304688	-0.128906	-0.070313	605	17_29_19_8436600
-0.005859	-0.158203	0.682617	-0.796817	-0.374973	-0.515588	-0.304688	-0.105469	-0.058594	606	17_29_19_8597890
-0.011719	-0.175781	0.682617	-0.796817	-0.374973	-0.506213	-0.304688	-0.093750	-0.011719	607	17_29_19_8759180
-0.005859	-0.164063	0.682617	-0.796817	-0.374973	-0.515588	-0.058594	-0.035156	0.128906	608	17_29_19_8920470
-0.008789	-0.175781	0.688477	-0.787443	-0.374973	-0.515588	-0.304688	-0.093750	-0.070313	609	17_29_19_9081760
-0.005859	-0.172852	0.685547	-0.796817	-0.374973	-0.515588	-0.304688	-0.128906	-0.082031	610	17_29_19_9243050
-0.017578	-0.172852	0.676758	-0.787443	-0.374973	-0.515588	-0.292969	-0.128906	-0.011719	611	17_29_19_9404340
-0.005859	-0.181641	0.679688	-0.787443	-0.374973	-0.515588	-0.304688	-0.140625	-0.046875	612	17_29_19_9565630
0.002930	-0.175781	0.682617	-0.787443	-0.374973	-0.506213	-0.304688	-0.187500	-0.046875	613	17_29_19_9726920
-0.011719	-0.172852	0.682617	-0.787443	-0.384347	-0.515588	-0.304688	-0.175781	-0.023438	614	17_29_19_9888210
-0.008789	-0.169922	0.682617	-0.796817	-0.374973	-0.515588	-0.292969	-0.128906	-0.070313	615	17_29_20_0049500
-0.005859	-0.178711	0.685547	-0.787443	-0.374973	-0.515588	-0.304688	-0.082031	-0.117188	616	17_29_20_0210790
-0.005859	-0.190430	0.670898	-0.796817	-0.374973	-0.515588	-0.304688	-0.105469	-0.070313	617	17_29_20_0372080
-0.008789	-0.166992	0.682617	-0.787443	-0.374973	-0.515588	-0.304688	-0.117188	-0.035156	618	17_29_20_0533370
-0.005859	-0.178711	0.679688	-0.787443	-0.374973	-0.515588	-0.304688	-0.117188	-0.070313	619	17_29_20_0694660
0.000000	-0.158203	0.679688	-0.787443	-0.374973	-0.515588	-0.304688	-0.105469	-0.082031	620	17_29_20_0855950
-0.005859	-0.172852	0.682617	-0.787443	-0.384347	-0.515588	-0.304688	-0.117188	-0.035156	621	17_29_20_1017240
-0.008789	-0.172852	0.676758	-0.796817	-0.374973	-0.515588	-0.292969	-0.140625	-0.035156	622	17_29_20_1178530
-0.005859	-0.175781	0.682617	-0.787443	-0.384347	-0.515588	-0.292969	-0.140625	-0.082031	623	17_29_20_1339820
0.002930	-0.169922	0.676758	-0.796817	-0.384347	-0.515588	-0.222656	-0.082031	-0.046875	624	17_29_20_1501110
0.002930	-0.175781	0.688477	-0.787443	-0.374973	-0.515588	-0.304688	-0.128906	-0.082031	625	17_29_20_1662400
-0.008789	-0.178711	0.688477	-0.796817	-0.374973	-0.515588	-0.304688	-0.117188	-0.105469	626	17_29_20_1823690
-0.002930	-0.172852	0.685547	-0.787443	-0.374973	-0.515588	-0.304688	-0.082031	-0.117188	627	17_29_20_1984980
0.000000	-0.175781	0.688477	-0.796817	-0.374973	-0.515588	-0.304688	-0.093750	-0.105469	628	17_29_20_2146270
-0.011719	-0.164063	0.682617	-0.796817	-0.374973	-0.515588	-0.292969	-0.128906	-0.058594	629	17_29_20_2307560
-0.008789	-0.172852	0.685547	-0.787443	-0.374973	-0.506213	-0.292969	-0.117188	-0.105469	630	17_29_20_2468850
-0.014648	-0.169922	0.688477	-0.796817	-0.384347	-0.515588	-0.281250	-0.070313	0.152344	631	17_29_20_2630140
-0.008789	-0.169922	0.682617	-0.796817	-0.374973	-0.515588	-0.269531	-0.082031	-0.105469	632	17_29_20_2791430
-0.011719	-0.169922	0.694336	-0.806191	-0.374973	-0.515588	-0.304688	-0.093750	-0.128906	633	17_29_20_2952720
-0.011719	-0.178711	0.691406	-0.787443	-0.384347	-0.515588	-0.304688	-0.093750	-0.082031	634	17_29_20_3114010
-0.002930	-0.172852	0.685547	-0.787443	-0.374973	-0.515588	-0.304688	-0.082031	-0.070313	635	17_29_20_3275300
-0.008789	-0.175781	0.688477	-0.787443	-0.384347	-0.506213	-0.304688	-0.105469	-0.082031	636	17_29_20_3436590
-0.002930	-0.178711	0.682617	-0.796817	-0.374973	-0.515588	-0.304688	-0.082031	-0.105469	637	17_29_20_3597880
-0.002930	-0.166992	0.691406	-0.787443	-0.374973	-0.515588	-0.304688	-0.105469	-0.105469	638	17_29_20_3759170
-0.008789	-0.175781	0.685547	-0.787443	-0.384347	-0.515588	-0.304688	-0.082031	-0.082031	639	17_29_20_3920460
-0.011719	-0.169922	0.679688	-0.787443	-0.374973	-0.515588	-0.304688	-0.117188	-0.082031	640	17_29_20_4081750
-0.005859	-0.175781	0.682617	-0.787443	-0.384347	-0.515588	-0.292969	-0.082031	-0.093750	641	17_29_20_4243040
-0.011719	-0.181641	0.679688	-0.796817	-0.374973	-0.515588	-0.304688	-0.105469	-0.082031	642	17_29_20_4404330
0.002930	-0.166992	0.685547	-0.796817	-0.374973	-0.515588	-0.304688	-0.164063	-0.105469	643	17_29_20_4565620
0.002930	-0.169922	0.685547	-0.787443	-0.384347	-0.515588	-0.316406	-0.128906	-0.105469	644	17_29_20_4726910
-0.005859	-0.175781	0.682617	-0.796817	-0.374973	-0.515588	-0.316406	-0.117188	-0.093750	645	17_29_20_4888200
0.000000	-0.175781	0.682617	-0.787443	-0.384347	-0.515588	-0.304688	-0.082031	-0.105469	646	17_29_20_5049490
-0.005859	-0.175781	0.682617	-0.796817	-0.374973	-0.515588	-0.292969	-0.082031	-0.082031	647	17_29_20_5210780
-0.005859	-0.175781	0.682617	-0.796817	-0.374973	-0.515588	-0.292969	-0.117188	-0.070313	648	17_29_20_5372070
0.002930	-0.175781	0.691406	-0.787443	-0.374973	-0.515588	-0.316406	-0.128906	-0.140625	649	17_29_20_5533360
-0.002930	-0.172852	0.682617	-0.796817	-0.374973	-0.515588	-0.339844	-0.164063	-0.093750	650	17_29_20_5694650
-0.008789	-0.181641	0.691406	-0.787443	-0.374973	-0.515588	-0.187500	-0.046875	-0.011719	651	17_29_20_5855940
-0.005859	-0.169922	0.691406	-0.796817	-0.374973	-0.515588	-0.339844	-0.093750	-0.164063	652	17_29_20_6017230
-0.002930	-0.166992	0.676758	-0.787443	-0.374973	-0.515588	-0.304688	-0.117188	-0.128906	653	17_29_20_6178520
-0.005859	-0.169922	0.679688	-0.796817	-0.374973	-0.506213	-0.292969	-0.093750	-0.105469	654	17_29_20_6339810
-0.014648	-0.164063	0.676758	-0.787443	-0.374973	-0.515588	-0.304688	-0.070313	-0.105469	655	17_29_20_6501100
0.002930	-0.172852	0.688477	-0.787443	-0.374973	-0.506213	-0.304688	-0.093750	-0.082031	656	17_29_20_6662390
-0.005859	-0.181641	0.688477	-0.787443	-0.374973	-0.515588	-0.304688	-0.128906	-0.093750	657	17_29_20_6823680
-0.008789	-0.172852	0.682617	-0.796817	-0.374973	-0.506213	-0.304688	-0.140625	-0.046875	658	17_29_20_6984970
0.008789	-0.164063	0.679688	-0.796817	-0.374973	-0.515588	-0.304688	-0.117188	-0.023438	659	17_29_20_7146260
-0.005859	-0.161133	0.676758	-0.787443	-0.384347	-0.515588	-0.292969	-0.070313	-0.082031	660	17_29_20_7307550
-0.002930	-0.169922	0.691406	-0.796817	-0.384347	-0.515588	-0.292969	-0.093750	-0.128906	661	17_29_20_7468840
-0.008789	-0.169922	0.685547	-0.796817	-0.374973	-0.515588	-0.269531	-0.093750	-0.128906	662	17_29_20_7630130
0.000000	-0.164063	0.682617	-0.787443	-0.374973	-0.515588	-0.304688	-0.117188	-0.117188	663	17_29_20_7791420
-0.005859	-0.164063	0.688477	-0.806191	-0.374973	-0.515588	-0.292969	-0.105469	-0.082031	664	17_29_20_7952710
-0.008789	-0.175781	0.688477	-0.796817	-0.374973	-0.515588	-0.304688	-0.070313	-0.011719	665	17_29_20_8114000
-0.008789	-0.169922	0.676758	-0.787443	-0.374973	-0.515588	-0.304688	-0.082031	-0.011719	666	17_29_20_8275290
-0.011719	-0.169922	0.688477	-0.796817	-0.374973	-0.524962	-0.339844	-0.093750	-0.082031	667	17_29_20_8436580
-0.005859	-0.172852	0.691406	-0.787443	-0.374973	-0.515588	-0.292969	-0.128906	-0.093750	668	17_29_20_8597870
0.002930	-0.166992	0.676758	-0.796817	-0.374973	-0.506213	-0.304688	-0.093750	-0.082031	669	17_29_20_8759160
-0.005859	-0.169922	0.688477	-0.806191	-0.384347	-0.515588	-0.046875	0.023438	0.070313	670	17_29_20_8920450
-0.011719	-0.172852	0.688477	-0.787443	-0.384347	-0.515588	-0.304688	-0.128906	-0.105469	671	17_29_20_9081740
-0.002930	-0.169922	0.688477	-0.806191	-0.384347	-0.515588	-0.292969	-0.128906	-0.128906	672	17_29_20_9243030
-0.002930	-0.175781	0.676758	-0.787443	-0.384347	-0.515588	-0.292969	-0.058594	0.035156	673	17_29_20_9404320
-0.002930	-0.169922	0.688477	-0.796817	-0.374973	-0.515588	-0.304688	-0.140625	-0.070313	674	17_29_20_9565610
-0.005859	-0.172852	0.682617	-0.787443	-0.384347	-0.515588	-0.304688	-0.093750	-0.058594	675	17_29_20_9726900
0.000000	-0.169922	0.679688	-0.787443	-0.384347	-0.515588	-0.292969	-0.105469	-0.105469	676	17_29_20_9888190
-0.014648	-0.166992	0.682617	-0.787443	-0.374973	-0.515588	-0.304688	-0.128906	-0.070313	677	17_29_21_0049480
-0.008789	-0.169922	0.679688	-0.796817	-0.374973	-0.515588	-0.304688	-0.093750	0.011719	678	17_29_21_0210770
-0.011719	-0.175781	0.682617	-0.787443	-0.384347	-0.515588	-0.304688	-0.070313	-0.011719	679	17_29_21_0372060
-0.002930	-0.178711	0.685547	-0.787443	-0.384347	-0.515588	-0.292969	-0.105469	-0.058594	680	17_29_21_0533350
-0.002930	-0.164063	0.682617	-0.787443	-0.384347	-0.515588	-0.304688	-0.117188	-0.140625	681	17_29_21_0694640
-0.011719	-0.161133	0.682617	-0.787443	-0.384347	-0.515588	-0.304688	-0.117188	-0.164063	682	17_29_21_0855930
-0.002930	-0.164063	0.685547	-0.787443	-0.384347	-0.506213	-0.304688	-0.128906	-0.164063	683	17_29_21_1017220
-0.017578	-0.175781	0.691406	-0.796817	-0.374973	-0.515588	-0.292969	-0.152344	-0.082031	684	17_29_21_1178510
-0.011719	-0.175781	0.676758	-0.787443	-0.374973	-0.506213	-0.304688	-0.175781	-0.058594	685	17_29_21_1339800
-0.020508	-0.178711	0.676758	-0.787443	-0.384347	-0.515588	-0.304688	-0.128906	-0.117188	686	17_29_21_1501090
-0.002930	-0.169922	0.688477	-0.787443	-0.384347	-0.515588	-0.292969	-0.105469	-0.082031	687	17_29_21_1662380
-0.014648	-0.169922	0.682617	-0.796817	-0.374973	-0.515588	-0.292969	-0.164063	-0.058594	688	17_29_21_1823670
0.000000	-0.169922	0.673828	-0.787443	-0.374973	-0.515588	-0.304688	-0.164063	-0.105469	689	17_29_21_1984960
-0.008789	-0.169922	0.682617	-0.787443	-0.384347	-0.515588	-0.304688	-0.117188	-0.093750	690	17_29_21_2146250
-0.002930	-0.175781	0.676758	-0.787443	-0.374973	-0.515588	-0.199219	-0.035156	-0.023438	691	17_29_21_2307540
-0.008789	-0.172852	0.682617	-0.796817	-0.374973	-0.515588	-0.304688	-0.105469	-0.082031	692	17_29_21_2468830
-0.005859	-0.172852	0.682617	-0.787443	-0.374973	-0.515588	-0.304688	-0.128906	-0.128906	693	17_29_21_2630120
-0.014648	-0.178711	0.682617	-0.796817	-0.374973	-0.515588	-0.304688	-0.117188	-0.082031	694	17_29_21_2791410
-0.002930	-0.166992	0.685547	-0.787443	-0.384347	-0.515588	-0.304688	-0.128906	-0.058594	695	17_29_21_2952700
-0.005859	-0.164063	0.691406	-0.787443	-0.374973	-0.515588	-0.304688	-0.117188	-0.117188	696	17_29_21_3113990
-0.014648	-0.164063	0.673828	-0.796817	-0.374973	-0.515588	-0.234375	-0.082031	-0.082031	697	17_29_21_3275280
-0.005859	-0.172852	0.676758	-0.787443	-0.374973	-0.515588	-0.304688	-0.140625	-0.070313	698	17_29_21_3436570
-0.002930	-0.175781	0.688477	-0.787443	-0.374973	-0.515588	-0.304688	-0.128906	-0.035156	699	17_29_21_3597860
0.002930	-0.169922	0.694336	-0.787443	-0.384347	-0.515588	-0.328125	-0.082031	-0.058594	700	17_29_21_3759150
0.005859	-0.166992	0.676758	-0.787443	-0.374973	-0.515588	-0.304688	-0.082031	-0.082031	701	17_29_21_3920440
-0.002930	-0.169922	0.682617	-0.787443	-0.374973	-0.515588	-0.304688	-0.117188	-0.035156	702	17_29_21_4081730
-0.002930	-0.169922	0.682617	-0.787443	-0.374973	-0.515588	-0.187500	-0.070313	0.082031	703	17_29_21_4243020
0.002930	-0.166992	0.682617	-0.796817	-0.374973	-0.515588	-0.304688	-0.117188	-0.105469	704	17_29_21_4404310
-0.005859	-0.178711	0.685547	-0.796817	-0.374973	-0.515588	-0.304688	-0.105469	-0.152344	705	17_29_21_4565600
-0.005859	-0.169922	0.682617	-0.796817	-0.374973	-0.515588	-0.304688	-0.082031	-0.128906	706	17_29_21_4726890
-0.011719	-0.175781	0.688477	-0.787443	-0.374973	-0.515588	-0.292969	-0.082031	-0.105469	707	17_29_21_4888180
-0.008789	-0.175781	0.679688	-0.796817	-0.374973	-0.515588	-0.316406	-0.117188	-0.128906	708	17_29_21_5049470
-0.005859	-0.166992	0.685547	-0.796817	-0.374973	-0.515588	-0.304688	-0.117188	-0.093750	709	17_29_21_5210760
-0.002930	-0.175781	0.682617	-0.787443	-0.374973	-0.515588	-0.164063	-0.070313	-0.011719	710	17_29_21_5372050
-0.023438	-0.181641	0.679688	-0.787443	-0.384347	-0.506213	-0.292969	-0.128906	-0.082031	711	17_29_21_5533340
-0.005859	-0.166992	0.682617	-0.787443	-0.374973	-0.515588	-0.304688	-0.128906	-0.046875	712	17_29_21_5694630
-0.008789	-0.169922	0.673828	-0.796817	-0.374973	-0.515588	-0.304688	-0.187500	-0.070313	713	17_29_21_5855920
-0.005859	-0.175781	0.682617	-0.787443	-0.374973	-0.515588	-0.339844	-0.128906	-0.082031	714	17_29_21_6017210
-0.011719	-0.178711	0.688477	-0.787443	-0.384347	-0.515588	-0.304688	-0.082031	-0.128906	715	17_29_21_6178500
-0.005859	-0.169922	0.676758	-0.787443	-0.374973	-0.515588	-0.304688	-0.117188	-0.164063	716	17_29_21_6339790
-0.011719	-0.169922	0.682617	-0.796817	-0.374973	-0.515588	-0.234375	-0.117188	-0.082031	717	17_29_21_6501080
0.000000	-0.164063	0.685547	-0.796817	-0.374973	-0.515588	-0.304688	-0.117188	-0.117188	718	17_29_21_6662370
0.000000	-0.175781	0.682617	-0.787443	-0.374973	-0.506213	-0.304688	-0.140625	-0.105469	719	17_29_21_6823660
-0.005859	-0.184570	0.682617	-0.796817	-0.374973	-0.515588	-0.281250	-0.117188	-0.117188	720	17_29_21_6984950
-0.008789	-0.175781	0.682617	-0.796817	-0.374973	-0.506213	-0.304688	-0.117188	-0.117188	721	17_29_21_7146240
0.002930	-0.164063	0.688477	-0.787443	-0.374973	-0.515588	-0.304688	-0.117188	-0.070313	722	17_29_21_7307530
-0.008789	-0.169922	0.676758	-0.796817	-0.374973	-0.515588	-0.117188	-0.082031	0.117188	723	17_29_21_7468820
-0.005859	-0.172852	0.679688	-0.787443	-0.374973	-0.515588	-0.339844	-0.164063	-0.058594	724	17_29_21_7630110
-0.005859	-0.169922	0.682617	-0.796817	-0.374973	-0.515588	-0.281250	-0.117188	-0.023438	725	17_29_21_7791400
-0.005859	-0.172852	0.682617	-0.787443	-0.374973	-0.515588	-0.304688	-0.117188	-0.023438	726	17_29_21_7952690
-0.008789	-0.172852	0.688477	-0.787443	-0.384347	-0.515588	-0.292969	-0.117188	-0.082031	727	17_29_21_8113980
-0.002930	-0.175781	0.691406	-0.796817	-0.374973	-0.515588	-0.304688	-0.117188	-0.082031	728	17_29_21_8275270
0.000000	-0.166992	0.682617	-0.787443	-0.374973	-0.515588	-0.304688	-0.105469	-0.082031	729	17_29_21_8436560
-0.011719	-0.164063	0.688477	-0.787443	-0.384347	-0.515588	-0.304688	-0.093750	-0.105469	730	17_29_21_8597850
-0.014648	-0.169922	0.685547	-0.787443	-0.374973	-0.515588	-0.316406	-0.152344	-0.105469	731	17_29_21_8759140
-0.005859	-0.161133	0.676758	-0.787443	-0.374973	-0.515588	-0.304688	-0.164063	-0.105469	732	17_29_21_8920430
-0.011719	-0.164063	0.682617	-0.796817	-0.384347	-0.515588	-0.316406	-0.152344	-0.093750	733	17_29_21_9081720
-0.008789	-0.172852	0.676758	-0.796817	-0.384347	-0.515588	-0.304688	-0.128906	-0.093750	734	17_29_21_9243010
-0.002930	-0.175781	0.673828	-0.787443	-0.384347	-0.515588	-0.304688	-0.128906	-0.082031	735	17_29_21_9404300
-0.011719	-0.169922	0.685547	-0.787443	-0.384347	-0.515588	-0.304688	-0.128906	-0.093750	736	17_29_21_9565590
-0.008789	-0.175781	0.688477	-0.787443	-0.374973	-0.515588	-0.304688	-0.105469	-0.105469	737	17_29_21_9726880
-0.005859	-0.175781	0.679688	-0.787443	-0.374973	-0.515588	-0.257813	-0.093750	-0.058594	738	17_29_21_9888170
0.002930	-0.166992	0.676758	-0.787443	-0.374973	-0.515588	-0.292969	-0.082031	-0.070313	739	17_29_22_0049460
-0.011719	-0.175781	0.688477	-0.787443	-0.374973	-0.515588	-0.304688	-0.093750	-0.093750	740	17_29_22_0210750
0.000000	-0.164063	0.676758	-0.787443	-0.384347	-0.515588	-0.316406	-0.117188	-0.105469	741	17_29_22_0372040
-0.014648	-0.190430	0.688477	-0.796817	-0.384347	-0.515588	-0.292969	-0.105469	-0.117188	742	17_29_22_0533330
-0.002930	-0.158203	0.679688	-0.787443	-0.374973	-0.515588	-0.292969	-0.082031	-0.105469	743	17_29_22_0694620
-0.008789	-0.175781	0.685547	-0.796817	-0.384347	-0.506213	-0.152344	-0.093750	0.093750	744	17_29_22_0855910
-0.008789	-0.158203	0.688477	-0.787443	-0.384347	-0.515588	-0.304688	-0.128906	-0.058594	745	17_29_22_1017200
-0.011719	-0.166992	0.676758	-0.796817	-0.374973	-0.515588	-0.304688	-0.105469	-0.093750	746	17_29_22_1178490
-0.005859	-0.161133	0.685547	-0.787443	-0.374973	-0.515588	-0.304688	-0.105469	0.105469	747	17_29_22_1339780
0.002930	-0.169922	0.679688	-0.787443	-0.374973	-0.515588	-0.304688	-0.128906	-0.152344	748	17_29_22_1501070
-0.005859	-0.169922	0.682617	-0.796817	-0.374973	-0.515588	-0.304688	-0.105469	-0.152344	749	17_29_22_1662360
0.011719	-0.169922	0.676758	-0.796817	-0.384347	-0.506213	-0.304688	-0.152344	-0.105469	750	17_29_22_1823650
-0.008789	-0.169922	0.679688	-0.796817	-0.384347	-0.515588	-0.246094	-0.117188	-0.058594	751	17_29_22_1984940
-0.005859	-0.181641	0.682617	-0.787443	-0.384347	-0.515588	-0.304688	-0.093750	-0.105469	752	17_29_22_2146230
-0.011719	-0.166992	0.688477	-0.796817	-0.384347	-0.515588	-0.292969	-0.082031	-0.070313	753	17_29_22_2307520
-0.008789	-0.172852	0.682617	-0.787443	-0.374973	-0.506213	-0.128906	0.046875	0.035156	754	17_29_22_2468810
-0.011719	-0.164063	0.694336	-0.787443	-0.374973	-0.515588	-0.210938	0.000000	0.046875	755	17_29_22_2630100
-0.005859	-0.161133	0.682617	-0.796817	-0.374973	-0.515588	-0.304688	-0.140625	-0.082031	756	17_29_22_2791390
-0.017578	-0.178711	0.682617	-0.796817	-0.384347	-0.515588	-0.257813	-0.082031	-0.082031	757	17_29_22_2952680
-0.014648	-0.169922	0.694336	-0.787443	-0.384347	-0.515588	-0.304688	-0.117188	-0.105469	758	17_29_22_3113970
-0.011719	-0.166992	0.688477	-0.787443	-0.384347	-0.515588	-0.292969	-0.082031	-0.058594	759	17_29_22_3275260
-0.011719	-0.175781	0.682617	-0.796817	-0.374973	-0.515588	-0.304688	-0.105469	-0.082031	760	17_29_22_3436550
-0.008789	-0.161133	0.688477	-0.796817	-0.374973	-0.515588	-0.304688	-0.082031	-0.093750	761	17_29_22_3597840
-0.008789	-0.172852	0.682617	-0.796817	-0.374973	-0.515588	-0.292969	-0.082031	-0.058594	762	17_29_22_3759130
-0.005859	-0.181641	0.682617	-0.796817	-0.384347	-0.515588	-0.292969	-0.117188	-0.105469	763	17_29_22_3920420
-0.005859	-0.178711	0.685547	-0.796817	-0.374973	-0.515588	-0.281250	-0.093750	-0.058594	764	17_29_22_4081710
-0.005859	-0.175781	0.679688	-0.796817	-0.384347	-0.515588	-0.292969	-0.117188	-0.035156	765	17_29_22_4243000
0.000000	-0.184570	0.682617	-0.787443	-0.374973	-0.515588	-0.292969	-0.082031	-0.082031	766	17_29_22_4404290
0.008789	-0.175781	0.685547	-0.787443	-0.384347	-0.515588	-0.304688	-0.093750	-0.093750	767	17_29_22_4565580
-0.011719	-0.178711	0.682617	-0.787443	-0.374973	-0.515588	-0.304688	-0.105469	-0.070313	768	17_29_22_4726870
-0.011719	-0.169922	0.691406	-0.796817	-0.365598	-0.515588	-0.246094	-0.058594	-0.058594	769	17_29_22_4888160
-0.011719	-0.178711	0.682617	-0.787443	-0.374973	-0.515588	-0.304688	-0.082031	-0.117188	770	17_29_22_5049450
-0.005859	-0.175781	0.676758	-0.796817	-0.384347	-0.515588	-0.351563	-0.117188	-0.105469	771	17_29_22_5210740
0.000000	-0.181641	0.688477	-0.796817	-0.384347	-0.515588	-0.304688	-0.117188	-0.035156	772	17_29_22_5372030
-0.005859	-0.178711	0.676758	-0.787443	-0.374973	-0.515588	-0.292969	-0.117188	-0.011719	773	17_29_22_5533320
-0.005859	-0.164063	0.679688	-0.796817	-0.374973	-0.515588	-0.292969	-0.117188	-0.082031	774	17_29_22_5694610
-0.008789	-0.184570	0.688477	-0.796817	-0.384347	-0.515588	-0.128906	0.035156	0.035156	775	17_29_22_5855900
-0.014648	-0.175781	0.682617	-0.787443	-0.374973	-0.515588	-0.304688	-0.105469	-0.105469	776	17_29_22_6017190
-0.017578	-0.172852	0.679688	-0.796817	-0.374973	-0.515588	-0.304688	-0.128906	-0.093750	777	17_29_22_6178480
-0.005859	-0.172852	0.676758	-0.796817	-0.374973	-0.515588	-0.304688	-0.117188	-0.082031	778	17_29_22_6339770
-0.005859	-0.178711	0.682617	-0.796817	-0.374973	-0.515588	-0.246094	-0.058594	-0.105469	779	17_29_22_6501060
-0.005859	-0.169922	0.676758	-0.787443	-0.374973	-0.515588	-0.304688	-0.082031	-0.105469	780	17_29_22_6662350
-0.005859	-0.181641	0.688477	-0.787443	-0.374973	-0.515588	-0.304688	-0.082031	-0.105469	781	17_29_22_6823640
-0.014648	-0.172852	0.685547	-0.787443	-0.374973	-0.515588	-0.304688	-0.117188	-0.093750	782	17_29_22_6984930
0.002930	-0.172852	0.682617	-0.796817	-0.374973	-0.515588	-0.339844	-0.128906	-0.046875	783	17_29_22_7146220
-0.014648	-0.175781	0.676758	-0.796817	-0.374973	-0.515588	-0.304688	-0.070313	-0.093750	784	17_29_22_7307510
-0.005859	-0.175781	0.676758	-0.796817	-0.374973	-0.515588	-0.187500	-0.058594	-0.082031	785	17_29_22_7468800
-0.017578	-0.178711	0.682617	-0.787443	-0.374973	-0.515588	-0.292969	-0.105469	-0.152344	786	17_29_22_7630090
-0.005859	-0.164063	0.682617	-0.787443	-0.374973	-0.515588	-0.304688	-0.082031	-0.152344	787	17_29_22_7791380
-0.020508	-0.158203	0.685547	-0.796817	-0.374973	-0.515588	-0.339844	-0.093750	-0.128906	788	17_29_22_7952670
-0.032227	-0.169922	0.688477	-0.796817	-0.393721	-0.515588	-0.304688	-0.140625	-0.082031	789	17_29_22_8113960
-0.011719	-0.184570	0.676758	-0.787443	-0.393721	-0.506213	-0.304688	-0.140625	-0.082031	790	17_29_22_8275250
0.005859	-0.169922	0.676758	-0.796817	-0.393721	-0.506213	-0.304688	-0.117188	-0.117188	791	17_29_22_8436540
0.000000	-0.172852	0.676758	-0.796817	-0.393721	-0.515588	-0.304688	-0.082031	-0.082031	792	17_29_22_8597830
-0.002930	-0.169922	0.679688	-0.787443	-0.384347	-0.515588	-0.304688	-0.117188	-0.046875	793	17_29_22_8759120
-0.005859	-0.172852	0.691406	-0.796817	-0.374973	-0.515588	-0.304688	-0.140625	-0.011719	794	17_29_22_8920410
-0.005859	-0.175781	0.688477	-0.787443	-0.374973	-0.515588	-0.304688	-0.105469	-0.058594	795	17_29_22_9081700
0.002930	-0.175781	0.691406	-0.787443	-0.384347	-0.515588	-0.328125	-0.105469	-0.105469	796	17_29_22_9242990
0.002930	-0.178711	0.682617	-0.796817	-0.384347	-0.506213	-0.304688	-0.093750	-0.082031	797	17_29_22_9404280
-0.002930	-0.169922	0.688477	-0.806191	-0.384347	-0.515588	-0.269531	-0.105469	-0.023438	798	17_29_22_9565570
0.000000	-0.169922	0.682617	-0.796817	-0.384347	-0.515588	-0.292969	-0.093750	0.070313	799	17_29_22_9726860
-0.011719	-0.169922	0.676758	-0.787443	-0.384347	-0.515588	-0.304688	-0.082031	-0.058594	800	17_29_22_9888150
-0.017578	-0.169922	0.685547	-0.796817	-0.384347	-0.515588	-0.199219	-0.035156	-0.046875	801	17_29_23_0049440
-0.011719	-0.169922	0.682617	-0.787443	-0.374973	-0.515588	-0.304688	-0.105469	-0.058594	802	17_29_23_0210730
-0.017578	-0.175781	0.676758	-0.796817	-0.374973	-0.515588	-0.304688	-0.128906	-0.058594	803	17_29_23_0372020
-0.002930	-0.178711	0.688477	-0.787443	-0.384347	-0.506213	-0.304688	-0.093750	-0.105469	804	17_29_23_0533310
-0.008789	-0.178711	0.685547	-0.787443	-0.384347	-0.515588	-0.070313	-0.070313	0.011719	805	17_29_23_0694600
0.002930	-0.181641	0.688477	-0.787443	-0.374973	-0.515588	-0.304688	-0.140625	-0.105469	806	17_29_23_0855890
0.000000	-0.172852	0.688477	-0.787443	-0.384347	-0.515588	-0.304688	-0.128906	-0.105469	807	17_29_23_1017180
-0.008789	-0.175781	0.682617	-0.787443	-0.374973	-0.515588	-0.304688	-0.093750	-0.058594	808	17_29_23_1178470
-0.011719	-0.178711	0.688477	-0.787443	-0.374973	-0.515588	-0.304688	-0.105469	-0.105469	809	17_29_23_1339760
0.000000	-0.169922	0.691406	-0.787443	-0.374973	-0.506213	-0.328125	-0.070313	-0.140625	810	17_29_23_1501050
-0.011719	-0.175781	0.682617	-0.787443	-0.384347	-0.515588	-0.304688	-0.093750	-0.093750	811	17_29_23_1662340
-0.017578	-0.172852	0.685547	-0.787443	-0.384347	-0.515588	-0.328125	-0.128906	-0.117188	812	17_29_23_1823630
-0.005859	-0.178711	0.688477	-0.787443	-0.384347	-0.515588	-0.281250	-0.093750	-0.070313	813	17_29_23_1984920
-0.005859	-0.164063	0.685547	-0.796817	-0.384347	-0.515588	-0.304688	-0.117188	-0.082031	814	17_29_23_2146210
-0.008789	-0.164063	0.682617	-0.787443	-0.374973	-0.515588	-0.304688	-0.117188	-0.105469	815	17_29_23_2307500
-0.002930	-0.161133	0.679688	-0.787443	-0.374973	-0.515588	-0.304688	-0.117188	-0.093750	816	17_29_23_2468790
-0.005859	-0.169922	0.682617	-0.796817	-0.374973	-0.515588	-0.292969	-0.093750	-0.070313	817	17_29_23_2630080
-0.008789	-0.166992	0.682617	-0.796817	-0.374973	-0.515588	-0.281250	-0.070313	0.164063	818	17_29_23_2791370
-0.005859	-0.175781	0.679688	-0.787443	-0.384347	-0.515588	-0.339844	-0.093750	-0.070313	819	17_29_23_2952660
-0.008789	-0.169922	0.682617	-0.796817	-0.384347	-0.515588	-0.257813	-0.070313	-0.046875	820	17_29_23_3113950
-0.008789	-0.169922	0.694336	-0.787443	-0.384347	-0.515588	-0.304688	-0.082031	-0.070313	821	17_29_23_3275240
-0.008789	-0.172852	0.679688	-0.787443	-0.384347	-0.515588	-0.304688	-0.105469	-0.105469	822	17_29_23_3436530
-0.002930	-0.169922	0.685547	-0.787443	-0.384347	-0.515588	-0.304688	-0.128906	-0.117188	823	17_29_23_3597820
-0.005859	-0.166992	0.688477	-0.796817	-0.374973	-0.515588	-0.199219	-0.117188	-0.046875	824	17_29_23_3759110
-0.011719	-0.169922	0.688477	-0.796817	-0.384347	-0.515588	-0.304688	-0.152344	-0.082031	825	17_29_23_3920400
-0.008789	-0.172852	0.682617	-0.787443	-0.384347	-0.515588	-0.281250	-0.082031	-0.023438	826	17_29_23_4081690
0.005859	-0.175781	0.679688	-0.787443	-0.384347	-0.515588	-0.304688	-0.093750	-0.046875	827	17_29_23_4242980
0.002930	-0.169922	0.688477	-0.796817	-0.374973	-0.515588	-0.304688	-0.128906	-0.105469	828	17_29_23_4404270
0.002930	-0.181641	0.682617	-0.796817	-0.384347	-0.515588	-0.304688	-0.128906	-0.082031	829	17_29_23_4565560
-0.005859	-0.166992	0.682617	-0.787443	-0.384347	-0.515588	-0.304688	-0.128906	-0.070313	830	17_29_23_4726850
0.000000	-0.169922	0.688477	-0.796817	-0.384347	-0.515588	-0.257813	-0.093750	-0.082031	831	17_29_23_4888140
-0.014648	-0.166992	0.685547	-0.787443	-0.393721	-0.515588	-0.304688	-0.093750	-0.093750	832	17_29_23_5049430
-0.005859	-0.169922	0.688477	-0.787443	-0.384347	-0.515588	-0.316406	-0.117188	-0.105469	833	17_29_23_5210720
0.005859	-0.166992	0.676758	-0.796817	-0.384347	-0.515588	-0.175781	-0.070313	-0.035156	834	17_29_23_5372010
-0.005859	-0.169922	0.676758	-0.787443	-0.384347	-0.515588	-0.304688	-0.164063	-0.082031	835	17_29_23_5533300
-0.017578	-0.161133	0.688477	-0.796817	-0.384347	-0.506213	-0.339844	-0.199219	-0.140625	836	17_29_23_5694590
0.000000	-0.181641	0.685547	-0.787443	-0.374973	-0.515588	-0.292969	-0.140625	-0.082031	837	17_29_23_5855880
0.026367	-0.178711	0.688477	-0.796817	-0.374973	-0.515588	-0.304688	-0.164063	-0.058594	838	17_29_23_6017170
-0.002930	-0.166992	0.691406	-0.787443	-0.365598	-0.515588	-0.304688	-0.105469	-0.070313	839	17_29_23_6178460
-0.020508	-0.169922	0.682617	-0.787443	-0.374973	-0.515588	-0.281250	-0.105469	0.000000	840	17_29_23_6339750
-0.020508	-0.172852	0.676758	-0.787443	-0.393721	-0.515588	-0.304688	-0.070313	-0.058594	841	17_29_23_6501040
-0.005859	-0.172852	0.682617	-0.787443	-0.384347	-0.506213	-0.292969	-0.093750	-0.105469	842	17_29_23_6662330
-0.005859	-0.181641	0.700195	-0.796817	-0.384347	-0.515588	-0.304688	-0.117188	-0.117188	843	17_29_23_6823620
-0.005859	-0.181641	0.691406	-0.796817	-0.384347	-0.515588	-0.304688	-0.117188	-0.128906	844	17_29_23_6984910
0.000000	-0.169922	0.682617	-0.787443	-0.384347	-0.515588	-0.304688	-0.082031	-0.093750	845	17_29_23_7146200
0.000000	-0.181641	0.685547	-0.787443	-0.374973	-0.515588	-0.292969	-0.128906	-0.128906	846	17_29_23_7307490
0.002930	-0.161133	0.685547	-0.787443	-0.374973	-0.515588	-0.304688	-0.152344	-0.117188	847	17_29_23_7468780
0.002930	-0.169922	0.667969	-0.796817	-0.384347	-0.515588	-0.269531	-0.117188	-0.058594	848	17_29_23_7630070
-0.011719	-0.164063	0.682617	-0.787443	-0.374973	-0.515588	-0.304688	-0.082031	-0.105469	849	17_29_23_7791360
-0.005859	-0.158203	0.703125	-0.796817	-0.374973	-0.506213	-0.269531	-0.093750	0.187500	850	17_29_23_7952650
-0.005859	-0.166992	0.682617	-0.787443	-0.374973	-0.515588	-0.304688	-0.140625	-0.140625	851	17_29_23_8113940
-0.005859	-0.175781	0.697266	-0.787443	-0.384347	-0.515588	-0.304688	-0.070313	-0.152344	852	17_29_23_8275230
-0.005859	-0.175781	0.679688	-0.787443	-0.374973	-0.515588	-0.304688	-0.105469	-0.140625	853	17_29_23_8436520
-0.011719	-0.166992	0.679688	-0.787443	-0.374973	-0.506213	-0.328125	-0.128906	-0.070313	854	17_29_23_8597810
-0.014648	-0.175781	0.679688	-0.787443	-0.374973	-0.506213	-0.304688	-0.128906	-0.082031	855	17_29_23_8759100
-0.011719	-0.175781	0.679688	-0.787443	-0.384347	-0.506213	-0.304688	-0.117188	-0.093750	856	17_29_23_8920390
-0.014648	-0.169922	0.682617	-0.796817	-0.384347	-0.515588	-0.281250	-0.070313	-0.082031	857	17_29_23_9081680
-0.005859	-0.181641	0.682617	-0.787443	-0.374973	-0.515588	-0.304688	-0.128906	-0.105469	858	17_29_23_9242970
-0.020508	-0.169922	0.679688	-0.796817	-0.374973	-0.515588	-0.304688	-0.187500	-0.093750	859	17_29_23_9404260
-0.005859	-0.175781	0.682617	-0.787443	-0.374973	-0.515588	-0.304688	-0.046875	0.187500	860	17_29_23_9565550
-0.008789	-0.169922	0.682617	-0.787443	-0.374973	-0.515588	-0.304688	-0.093750	-0.070313	861	17_29_23_9726840
-0.014648	-0.175781	0.676758	-0.787443	-0.384347	-0.515588	-0.304688	-0.117188	-0.082031	862	17_29_23_9888130
-0.002930	-0.169922	0.682617	-0.787443	-0.384347	-0.515588	-0.304688	-0.117188	-0.046875	863	17_29_24_0049420
-0.014648	-0.169922	0.676758	-0.796817	-0.384347	-0.515588	-0.304688	-0.128906	-0.058594	864	17_29_24_0210710
-0.011719	-0.172852	0.688477	-0.796817	-0.374973	-0.515588	-0.292969	-0.093750	-0.082031	865	17_29_24_0372000
-0.002930	-0.172852	0.676758	-0.796817	-0.384347	-0.515588	-0.304688	-0.117188	-0.082031	866	17_29_24_0533290
0.000000	-0.181641	0.688477	-0.796817	-0.384347	-0.515588	-0.316406	-0.117188	-0.011719	867	17_29_24_0694580
-0.005859	-0.169922	0.688477	-0.796817	-0.384347	-0.515588	-0.292969	-0.117188	-0.058594	868	17_29_24_0855870
-0.008789	-0.172852	0.688477	-0.796817	-0.384347	-0.515588	-0.339844	-0.070313	-0.093750	869	17_29_24_1017160
-0.008789	-0.164063	0.676758	-0.787443	-0.384347	-0.515588	-0.304688	-0.117188	-0.070313	870	17_29_24_1178450
0.005859	-0.169922	0.676758	-0.796817	-0.384347	-0.515588	-0.304688	-0.105469	-0.117188	871	17_29_24_1339740
0.002930	-0.166992	0.682617	-0.796817	-0.384347	-0.515588	-0.339844	-0.105469	-0.117188	872	17_29_24_1501030
-0.005859	-0.172852	0.688477	-0.787443	-0.384347	-0.515588	-0.304688	-0.082031	-0.128906	873	17_29_24_1662320
-0.008789	-0.164063	0.682617	-0.787443	-0.374973	-0.515588	-0.339844	-0.082031	-0.117188	874	17_29_24_1823610
-0.002930	-0.169922	0.679688	-0.796817	-0.374973	-0.515588	-0.304688	-0.093750	-0.105469	875	17_29_24_1984900
-0.017578	-0.178711	0.676758	-0.796817	-0.374973	-0.515588	-0.339844	-0.128906	-0.082031	876	17_29_24_2146190
-0.008789	-0.175781	0.670898	-0.796817	-0.374973	-0.515588	-0.292969	-0.128906	-0.046875	877	17_29_24_2307480
-0.005859	-0.172852	0.679688	-0.796817	-0.384347	-0.515588	-0.304688	-0.093750	-0.058594	878	17_29_24_2468770
-0.005859	-0.172852	0.688477	-0.787443	-0.384347	-0.515588	-0.304688	-0.140625	-0.035156	879	17_29_24_2630060
-0.005859	-0.172852	0.688477	-0.787443	-0.384347	-0.515588	-0.292969	-0.117188	-0.023438	880	17_29_24_2791350
-0.002930	-0.178711	0.682617	-0.796817	-0.374973	-0.515588	-0.304688	-0.093750	-0.035156	881	17_29_24_2952640
-0.017578	-0.175781	0.682617	-0.806191	-0.384347	-0.515588	-0.257813	-0.117188	0.070313	882	17_29_24_3113930
-0.002930	-0.181641	0.688477	-0.787443	-0.384347	-0.515588	-0.304688	-0.140625	0.023438	883	17_29_24_3275220
0.002930	-0.175781	0.682617	-0.796817	-0.384347	-0.515588	-0.304688	-0.117188	-0.082031	884	17_29_24_3436510
0.000000	-0.172852	0.682617	-0.787443	-0.374973	-0.515588	-0.304688	-0.117188	-0.082031	885	17_29_24_3597800
-0.008789	-0.166992	0.673828	-0.787443	-0.374973	-0.515588	-0.304688	-0.117188	-0.070313	886	17_29_24_3759090
-0.005859	-0.169922	0.685547	-0.787443	-0.374973	-0.515588	-0.304688	-0.117188	-0.082031	887	17_29_24_3920380
-0.008789	-0.178711	0.682617	-0.796817	-0.384347	-0.515588	-0.304688	-0.082031	-0.082031	888	17_29_24_4081670
-0.008789	-0.169922	0.682617	-0.787443	-0.374973	-0.515588	-0.304688	-0.117188	-0.117188	889	17_29_24_4242960
-0.008789	-0.169922	0.682617	-0.768694	-0.374973	-0.515588	-0.328125	-0.164063	-0.117188	890	17_29_24_4404250
-0.011719	-0.169922	0.679688	-0.787443	-0.384347	-0.515588	-0.304688	-0.164063	-0.105469	891	17_29_24_4565540
-0.005859	-0.164063	0.685547	-0.787443	-0.384347	-0.515588	-0.328125	-0.152344	-0.058594	892	17_29_24_4726830
0.002930	-0.175781	0.676758	-0.787443	-0.384347	-0.515588	-0.304688	-0.140625	-0.023438	893	17_29_24_4888120
-0.008789	-0.172852	0.688477	-0.787443	-0.374973	-0.515588	-0.316406	-0.117188	-0.011719	894	17_29_24_5049410
-0.017578	-0.161133	0.682617	-0.796817	-0.374973	-0.506213	-0.222656	-0.070313	-0.046875	895	17_29_24_5210700
-0.011719	-0.178711	0.685547	-0.796817	-0.384347	-0.506213	-0.304688	-0.082031	-0.093750	896	17_29_24_5371990
-0.005859	-0.175781	0.682617	-0.796817	-0.384347	-0.506213	-0.304688	-0.093750	-0.105469	897	17_29_24_5533280
-0.002930	-0.175781	0.682617	-0.787443	-0.374973	-0.515588	-0.304688	-0.117188	-0.128906	898	17_29_24_5694570
-0.011719	-0.169922	0.682617	-0.787443	-0.384347	-0.515588	-0.304688	-0.093750	-0.105469	899	17_29_24_5855860
-0.005859	-0.169922	0.682617	-0.796817	-0.374973	-0.515588	-0.175781	0.023438	0.046875	900	17_29_24_6017150
0.000000	-0.164063	0.685547	-0.796817	-0.384347	-0.515588	-0.292969	-0.164063	-0.070313	901	17_29_24_6178440
-0.008789	-0.169922	0.688477	-0.787443	-0.374973	-0.515588	-0.339844	-0.152344	-0.058594	902	17_29_24_6339730
-0.008789	-0.169922	0.685547	-0.787443	-0.384347	-0.515588	-0.304688	-0.093750	-0.046875	903	17_29_24_6501020
-0.005859	-0.166992	0.676758	-0.787443	-0.384347	-0.515588	-0.304688	-0.105469	-0.082031	904	17_29_24_6662310
0.000000	-0.172852	0.691406	-0.787443	-0.384347	-0.515588	-0.304688	-0.093750	-0.105469	905	17_29_24_6823600
-0.002930	-0.175781	0.691406	-0.796817	-0.374973	-0.515588	-0.304688	-0.117188	-0.117188	906	17_29_24_6984890
0.026367	-0.193359	0.688477	-0.796817	-0.384347	-0.515588	-0.304688	-0.117188	-0.128906	907	17_29_24_7146180
0.014648	-0.184570	0.694336	-0.806191	-0.374973	-0.515588	-0.304688	-0.117188	-0.093750	908	17_29_24_7307470
0.011719	-0.193359	0.688477	-0.806191	-0.365598	-0.506213	-0.070313	-0.140625	0.000000	909	17_29_24_7468760
0.035156	-0.187500	0.691406	-0.806191	-0.365598	-0.487465	-0.304688	-0.175781	-0.152344	910	17_29_24_7630050
0.035156	-0.202148	0.679688	-0.815566	-0.346850	-0.487465	-0.304688	-0.105469	-0.117188	911	17_29_24_7791340
0.029297	-0.208008	0.700195	-0.815566	-0.309353	-0.478090	-0.304688	-0.093750	-0.140625	912	17_29_24_7952630
0.041016	-0.216797	0.726563	-0.824940	-0.281230	-0.468716	-0.304688	-0.128906	-0.105469	913	17_29_24_8113920
0.011719	-0.222656	0.723633	-0.834314	-0.299978	-0.459342	-0.292969	-0.140625	-0.105469	914	17_29_24_8275210
0.023438	-0.228516	0.726563	-0.843689	-0.309353	-0.440593	-0.292969	-0.128906	-0.140625	915	17_29_24_8436500
0.000000	-0.169922	0.691406	-0.834314	-0.318727	-0.421844	-0.292969	-0.140625	-0.140625	916	17_29_24_8597790
-0.005859	-0.128906	0.665039	-0.824940	-0.309353	-0.421844	-0.292969	-0.128906	-0.128906	917	17_29_24_8759080
0.008789	-0.111328	0.659180	-0.824940	-0.290604	-0.431219	-0.304688	-0.117188	-0.058594	918	17_29_24_8920370
0.000000	-0.105469	0.659180	-0.824940	-0.281230	-0.449967	-0.281250	-0.140625	0.000000	919	17_29_24_9081660
-0.032227	-0.096680	0.656250	-0.815566	-0.281230	-0.440593	-0.269531	-0.070313	-0.035156	920	17_29_24_9242950
-0.055664	-0.093750	0.656250	-0.796817	-0.290604	-0.440593	-0.292969	-0.105469	-0.093750	921	17_29_24_9404240
-0.070313	-0.120117	0.665039	-0.806191	-0.299978	-0.440593	-0.292969	-0.128906	-0.093750	922	17_29_24_9565530
-0.076172	-0.128906	0.673828	-0.806191	-0.328101	-0.449967	-0.292969	-0.082031	-0.082031	923	17_29_24_9726820
-0.067383	-0.161133	0.682617	-0.806191	-0.337475	-0.449967	-0.222656	-0.093750	0.023438	924	17_29_24_9888110
-0.041016	-0.169922	0.679688	-0.796817	-0.346850	-0.449967	-0.316406	-0.070313	-0.093750	925	17_29_25_0049400
-0.011719	-0.181641	0.688477	-0.806191	-0.337475	-0.459342	-0.281250	-0.082031	-0.152344	926	17_29_25_0210690
-0.002930	-0.181641	0.694336	-0.806191	-0.328101	-0.449967	-0.222656	-0.035156	-0.082031	927	17_29_25_0371980
0.000000	-0.193359	0.688477	-0.796817	-0.309353	-0.449967	-0.292969	-0.117188	-0.046875	928	17_29_25_0533270
-0.032227	-0.208008	0.688477	-0.806191	-0.299978	-0.449967	-0.292969	-0.093750	-0.070313	929	17_29_25_0694560
-0.041016	-0.181641	0.688477	-0.796817	-0.299978	-0.440593	-0.292969	-0.117188	-0.128906	930	17_29_25_0855850
-0.052734	-0.184570	0.682617	-0.787443	-0.309353	-0.440593	-0.292969	-0.117188	-0.082031	931	17_29_25_1017140
-0.052734	-0.175781	0.670898	-0.796817	-0.299978	-0.440593	-0.292969	-0.128906	-0.093750	932	17_29_25_1178430
-0.061523	-0.169922	0.682617	-0.796817	-0.299978	-0.440593	-0.292969	-0.082031	-0.117188	933	17_29_25_1339720
-0.082031	-0.152344	0.665039	-0.796817	-0.299978	-0.440593	-0.281250	-0.140625	-0.093750	934	17_29_25_1501010
-0.079102	-0.158203	0.662109	-0.796817	-0.309353	-0.440593	-0.281250	-0.140625	-0.117188	935	17_29_25_1662300
-0.079102	-0.146484	0.676758	-0.806191	-0.318727	-0.440593	-0.292969	-0.093750	-0.128906	936	17_29_25_1823590
-0.082031	-0.146484	0.685547	-0.806191	-0.318727	-0.431219	-0.281250	-0.082031	-0.046875	937	17_29_25_1984880
-0.082031	-0.128906	0.667969	-0.796817	-0.318727	-0.431219	-0.281250	-0.128906	-0.070313	938	17_29_25_2146170
-0.073242	-0.131836	0.656250	-0.796817	-0.328101	-0.431219	-0.281250	-0.117188	-0.093750	939	17_29_25_2307460
-0.076172	-0.155273	0.656250	-0.806191	-0.328101	-0.431219	-0.292969	-0.105469	-0.070313	940	17_29_25_2468750
-0.079102	-0.155273	0.644531	-0.787443	-0.337475	-0.431219	-0.105469	-0.058594	0.070313	941	17_29_25_2630040
-0.070313	-0.166992	0.647461	-0.787443	-0.356224	-0.431219	-0.281250	-0.117188	-0.093750	942	17_29_25_2791330
-0.058594	-0.187500	0.641602	-0.806191	-0.365598	-0.421844	-0.246094	-0.117188	-0.070313	943	17_29_25_2952620
-0.035156	-0.190430	0.644531	-0.787443	-0.356224	-0.412470	-0.281250	-0.128906	-0.105469	944	17_29_25_3113910
-0.035156	-0.175781	0.632813	-0.796817	-0.356224	-0.403096	-0.281250	-0.105469	-0.105469	945	17_29_25_3275200
-0.014648	-0.164063	0.626953	-0.787443	-0.365598	-0.393721	-0.304688	-0.117188	-0.105469	946	17_29_25_3436490
-0.002930	-0.158203	0.624023	-0.778068	-0.356224	-0.384347	-0.292969	-0.128906	-0.140625	947	17_29_25_3597780
0.029297	-0.146484	0.618164	-0.768694	-0.337475	-0.384347	-0.304688	-0.152344	-0.046875	948	17_29_25_3759070
0.055664	-0.146484	0.600586	-0.787443	-0.309353	-0.393721	-0.328125	-0.105469	-0.035156	949	17_29_25_3920360
0.017578	-0.199219	0.585938	-0.768694	-0.243732	-0.412470	-0.281250	-0.105469	-0.046875	950	17_29_25_4081650
-0.043945	-0.158203	0.700195	-0.721823	-0.168738	-0.412470	-0.281250	-0.105469	-0.035156	951	17_29_25_4242940
-0.143555	-0.228516	0.741211	-0.778068	-0.187486	-0.421844	-0.292969	-0.117188	0.000000	952	17_29_25_4404230
-0.190430	-0.196289	0.779297	-0.806191	-0.206235	-0.421844	-0.246094	-0.046875	0.257813	953	17_29_25_4565520
-0.240234	-0.237305	0.764648	-0.806191	-0.290604	-0.449967	-0.281250	-0.105469	-0.105469	954	17_29_25_4726810
-0.184570	-0.184570	0.667969	-0.815566	-0.393721	-0.459342	-0.304688	-0.105469	-0.070313	955	17_29_25_4888100
-0.102539	-0.105469	0.583008	-0.815566	-0.449967	-0.468716	-0.281250	-0.128906	-0.046875	956	17_29_25_5049390
-0.041016	-0.073242	0.594727	-0.806191	-0.449967	-0.478090	-0.257813	-0.117188	-0.058594	957	17_29_25_5210680
-0.020508	-0.140625	0.629883	-0.778068	-0.393721	-0.478090	-0.234375	-0.093750	-0.105469	958	17_29_25_5371970
-0.093750	-0.166992	0.656250	-0.778068	-0.318727	-0.459342	-0.281250	-0.117188	-0.046875	959	17_29_25_5533260
-0.193359	-0.175781	0.685547	-0.759320	-0.299978	-0.468716	-0.269531	-0.117188	-0.035156	960	17_29_25_5694550
-0.240234	-0.175781	0.656250	-0.759320	-0.346850	-0.478090	-0.328125	-0.082031	-0.058594	961	17_29_25_5855840
-0.210938	-0.175781	0.629883	-0.759320	-0.403096	-0.487465	-0.328125	-0.105469	-0.070313	962	17_29_25_6017130
-0.161133	-0.172852	0.606445	-0.749946	-0.440593	-0.496839	-0.304688	-0.082031	-0.070313	963	17_29_25_6178420
-0.128906	-0.169922	0.612305	-0.740571	-0.431219	-0.506213	-0.281250	-0.058594	-0.046875	964	17_29_25_6339710
-0.169922	-0.155273	0.665039	-0.693700	-0.412470	-0.506213	-0.292969	-0.093750	-0.046875	965	17_29_25_6501000
-0.222656	-0.166992	0.700195	-0.628079	-0.440593	-0.487465	-0.281250	-0.082031	-0.082031	966	17_29_25_6662290
-0.193359	-0.210938	0.667969	-0.590582	-0.515588	-0.478090	-0.292969	-0.046875	-0.093750	967	17_29_25_6823580
-0.181641	-0.228516	0.612305	-0.599956	-0.562459	-0.468716	-0.292969	-0.058594	-0.046875	968	17_29_25_6984870
-0.108398	-0.181641	0.653320	-0.581208	-0.590582	-0.459342	-0.304688	-0.070313	-0.035156	969	17_29_25_7146160
-0.108398	-0.234375	0.644531	-0.590582	-0.543711	-0.431219	-0.292969	-0.070313	-0.058594	970	17_29_25_7307450
-0.049805	-0.310547	0.653320	-0.590582	-0.553085	-0.421844	-0.304688	-0.046875	-0.023438	971	17_29_25_7468740
0.035156	-0.348633	0.685547	-0.581208	-0.562459	-0.412470	-0.304688	-0.070313	0.011719	972	17_29_25_7630030
0.041016	-0.316406	0.703125	-0.590582	-0.543711	-0.384347	-0.328125	-0.070313	-0.023438	973	17_29_25_7791320
0.026367	-0.254883	0.676758	-0.571833	-0.515588	-0.374973	-0.328125	-0.035156	-0.011719	974	17_29_25_7952610
-0.017578	-0.231445	0.653320	-0.562459	-0.506213	-0.365598	-0.328125	-0.070313	-0.035156	975	17_29_25_8113900
-0.029297	-0.243164	0.665039	-0.553085	-0.506213	-0.412470	-0.328125	-0.117188	-0.023438	976	17_29_25_8275190
-0.026367	-0.272461	0.667969	-0.562459	-0.487465	-0.412470	-0.339844	-0.093750	0.011719	977	17_29_25_8436480
-0.023438	-0.333984	0.656250	-0.571833	-0.478090	-0.449967	-0.339844	-0.117188	-0.046875	978	17_29_25_8597770
0.038086	-0.360352	0.659180	-0.562459	-0.478090	-0.459342	-0.339844	-0.128906	-0.035156	979	17_29_25_8759060
0.102539	-0.410156	0.662109	-0.553085	-0.431219	-0.459342	-0.339844	-0.070313	-0.011719	980	17_29_25_8920350
0.061523	-0.410156	0.647461	-0.524962	-0.384347	-0.431219	-0.351563	-0.058594	-0.035156	981	17_29_25_9081640
0.008789	-0.395508	0.653320	-0.506213	-0.346850	-0.412470	-0.363281	-0.023438	0.000000	982	17_29_25_9242930
-0.035156	-0.421875	0.624023	-0.496839	-0.356224	-0.412470	-0.351563	-0.035156	-0.023438	983	17_29_25_9404220
-0.046875	-0.421875	0.606445	-0.487465	-0.393721	-0.421844	-0.351563	-0.011719	-0.070313	984	17_29_25_9565510
-0.029297	-0.413086	0.606445	-0.478090	-0.431219	-0.412470	-0.316406	-0.035156	-0.035156	985	17_29_25_9726800
0.005859	-0.427734	0.606445	-0.468716	-0.449967	-0.412470	-0.363281	-0.011719	-0.035156	986	17_29_25_9888090
0.076172	-0.457031	0.600586	-0.459342	-0.449967	-0.412470	-0.363281	0.058594	-0.023438	987	17_29_26_0049380
0.064453	-0.462891	0.588867	-0.449967	-0.412470	-0.421844	-0.363281	0.035156	-0.035156	988	17_29_26_0210670
0.061523	-0.500977	0.580078	-0.459342	-0.393721	-0.412470	-0.375000	-0.023438	-0.023438	989	17_29_26_0371960
0.038086	-0.527344	0.553711	-0.431219	-0.374973	-0.421844	-0.363281	0.000000	-0.023438	990	17_29_26_0533250
0.064453	-0.521484	0.518555	-0.431219	-0.374973	-0.440593	-0.210938	0.070313	0.082031	991	17_29_26_0694540
0.064453	-0.518555	0.544922	-0.412470	-0.356224	-0.459342	-0.375000	0.011719	-0.011719	992	17_29_26_0855830
0.058594	-0.556641	0.533203	-0.421844	-0.337475	-0.459342	-0.375000	0.011719	0.000000	993	17_29_26_1017120
0.023438	-0.547852	0.512695	-0.412470	-0.337475	-0.459342	-0.375000	0.000000	-0.011719	994	17_29_26_1178410
0.052734	-0.559570	0.500977	-0.403096	-0.356224	-0.449967	-0.386719	0.011719	-0.011719	995	17_29_26_1339700
0.076172	-0.574219	0.512695	-0.393721	-0.356224	-0.459342	-0.386719	0.035156	0.011719	996	17_29_26_1500990
0.082031	-0.550781	0.495117	-0.393721	-0.346850	-0.468716	-0.410156	0.105469	0.105469	997	17_29_26_1662280
0.070313	-0.544922	0.492188	-0.365598	-0.309353	-0.459342	-0.375000	0.058594	0.011719	998	17_29_26_1823570
0.099609	-0.527344	0.474609	-0.346850	-0.299978	-0.449967	-0.386719	0.035156	0.035156	999	17_29_26_1984860
0.099609	-0.515625	0.459961	-0.365598	-0.309353	-0.440593	-0.269531	0.117188	0.082031	1000	17_29_26_2146150
0.111328	-0.544922	0.465820	-0.356224	-0.318727	-0.440593	-0.386719	0.046875	0.035156	1001	17_29_26_2307440
0.152344	-0.533203	0.465820	-0.365598	-0.299978	-0.431219	-0.386719	0.058594	0.046875	1002	17_29_26_2468730
0.164063	-0.527344	0.448242	-0.356224	-0.271855	-0.412470	-0.398438	0.046875	0.046875	1003	17_29_26_2630020
0.181641	-0.562500	0.445313	-0.365598	-0.243732	-0.393721	-0.398438	0.070313	0.046875	1004	17_29_26_2791310
0.152344	-0.594727	0.430664	-0.365598	-0.215609	-0.384347	-0.375000	0.128906	0.328125	1005	17_29_26_2952600
0.076172	-0.580078	0.395508	-0.365598	-0.187486	-0.384347	-0.398438	0.046875	0.082031	1006	17_29_26_3113890
0.067383	-0.583008	0.360352	-0.365598	-0.187486	-0.384347	-0.398438	0.046875	0.082031	1007	17_29_26_3275180
0.029297	-0.562500	0.345703	-0.374973	-0.178112	-0.393721	-0.398438	0.046875	0.117188	1008	17_29_26_3436470
0.076172	-0.559570	0.331055	-0.393721	-0.178112	-0.403096	-0.410156	0.070313	0.152344	1009	17_29_26_3597760
0.052734	-0.583008	0.339844	-0.421844	-0.168738	-0.412470	-0.410156	0.070313	0.128906	1010	17_29_26_3759050
0.020508	-0.580078	0.304688	-0.421844	-0.149989	-0.421844	-0.421875	0.070313	0.140625	1011	17_29_26_3920340
-0.020508	-0.609375	0.301758	-0.440593	-0.159363	-0.440593	-0.398438	0.070313	0.152344	1012	17_29_26_4081630
-0.038086	-0.594727	0.310547	-0.449967	-0.168738	-0.459342	-0.421875	0.070313	0.152344	1013	17_29_26_4242920
-0.005859	-0.609375	0.316406	-0.478090	-0.187486	-0.478090	-0.234375	0.105469	0.304688	1014	17_29_26_4404210
-0.017578	-0.618164	0.290039	-0.496839	-0.206235	-0.496839	-0.457031	0.058594	0.152344	1015	17_29_26_4565500
0.000000	-0.609375	0.284180	-0.496839	-0.234358	-0.496839	-0.398438	0.082031	0.175781	1016	17_29_26_4726790
-0.046875	-0.644531	0.269531	-0.478090	-0.224984	-0.478090	-0.410156	0.035156	0.187500	1017	17_29_26_4888080
0.000000	-0.618164	0.272461	-0.506213	-0.281230	-0.478090	-0.421875	0.105469	0.175781	1018	17_29_26_5049370
0.058594	-0.656250	0.260742	-0.534336	-0.309353	-0.487465	-0.421875	0.093750	0.199219	1019	17_29_26_5210660
0.087891	-0.670898	0.260742	-0.543711	-0.281230	-0.468716	-0.328125	0.117188	0.246094	1020	17_29_26_5371950
0.073242	-0.703125	0.246094	-0.524962	-0.262481	-0.478090	-0.398438	0.093750	0.175781	1021	17_29_26_5533240
0.073242	-0.703125	0.237305	-0.506213	-0.281230	-0.478090	-0.421875	0.070313	0.199219	1022	17_29_26_5694530
0.076172	-0.714844	0.219727	-0.487465	-0.290604	-0.478090	-0.410156	0.058594	0.234375	1023	17_29_26_5855820
0.146484	-0.653320	0.216797	-0.487465	-0.290604	-0.478090	-0.421875	0.070313	0.234375	1024	17_29_26_6017110
0.169922	-0.635742	0.219727	-0.515588	-0.253107	-0.459342	-0.386719	0.082031	0.246094	1025	17_29_26_6178400
0.152344	-0.650391	0.237305	-0.496839	-0.178112	-0.459342	-0.410156	0.093750	0.210938	1026	17_29_26_6339690
0.105469	-0.641602	0.199219	-0.496839	-0.159363	-0.468716	-0.433594	0.058594	0.222656	1027	17_29_26_6500980
0.128906	-0.670898	0.108398	-0.515588	-0.187486	-0.487465	-0.433594	0.023438	0.269531	1028	17_29_26_6662270
0.146484	-0.708984	0.087891	-0.553085	-0.206235	-0.496839	-0.433594	-0.058594	0.257813	1029	17_29_26_6823560
0.181641	-0.714844	0.246094	-0.628079	-0.131240	-0.506213	-0.328125	0.058594	0.328125	1030	17_29_26_6984850
0.208008	-0.685547	0.369141	-0.674951	-0.018749	-0.478090	-0.433594	0.070313	0.269531	1031	17_29_26_7146140
0.263672	-0.755859	0.433594	-0.684325	0.093743	-0.431219	-0.445313	0.105469	0.246094	1032	17_29_26_7307430
0.213867	-0.764648	0.436523	-0.665577	0.243732	-0.384347	-0.234375	0.128906	0.363281	1033	17_29_26_7468720
0.096680	-0.750000	0.439453	-0.609331	0.393721	-0.337475	-0.457031	0.105469	0.292969	1034	17_29_26_7630010
0.046875	-0.843750	0.401367	-0.637454	0.431219	-0.318727	-0.421875	0.093750	0.316406	1035	17_29_26_7791300
0.026367	-0.887695	0.336914	-0.693700	0.384347	-0.318727	-0.445313	0.023438	0.304688	1036	17_29_26_7952590
0.099609	-0.878906	0.263672	-0.768694	0.346850	-0.318727	-0.468750	0.046875	0.292969	1037	17_29_26_8113880
0.187500	-0.849609	0.231445	-0.843689	0.337475	-0.299978	-0.503906	0.070313	0.316406	1038	17_29_26_8275170
0.213867	-0.820313	0.219727	-0.881186	0.356224	-0.271855	-0.492188	0.023438	0.292969	1039	17_29_26_8436460
0.164063	-0.843750	0.219727	-0.890560	0.384347	-0.243732	-0.492188	0.093750	0.269531	1040	17_29_26_8597750
0.067383	-0.846680	0.190430	-0.918683	0.365598	-0.243732	-0.492188	0.070313	0.281250	1041	17_29_26_8759040
-0.017578	-0.814453	0.131836	-0.928058	0.299978	-0.243732	-0.527344	0.035156	0.269531	1042	17_29_26_8920330
-0.005859	-0.802734	0.076172	-0.974929	0.159363	-0.262481	-0.351563	0.128906	0.339844	1043	17_29_26_9081620
0.041016	-0.793945	0.090820	-1.012426	0.046872	-0.281230	-0.527344	0.023438	0.257813	1044	17_29_26_9242910
0.114258	-0.802734	0.082031	-1.059298	-0.009374	-0.318727	-0.539063	0.023438	0.257813	1045	17_29_26_9404200
0.190430	-0.779297	0.084961	-1.087421	-0.028123	-0.365598	-0.550781	0.082031	0.269531	1046	17_29_26_9565490
0.205078	-0.785156	0.087891	-1.115544	0.018749	-0.403096	-0.550781	0.070313	0.246094	1047	17_29_26_9726780
0.166992	-0.732422	0.073242	-1.115544	0.065620	-0.403096	-0.515625	0.117188	0.398438	1048	17_29_26_9888070
0.134766	-0.720703	0.055664	-1.068672	0.084369	-0.384347	-0.550781	0.046875	0.222656	1049	17_29_27_0049360
0.105469	-0.708984	0.046875	-1.059298	0.084369	-0.384347	-0.550781	0.058594	0.175781	1050	17_29_27_0210650
0.123047	-0.662109	0.046875	-1.049924	0.074995	-0.384347	-0.562500	0.046875	0.187500	1051	17_29_27_0371940
0.155273	-0.635742	0.038086	-1.040549	0.037497	-0.403096	-0.562500	0.046875	0.187500	1052	17_29_27_0533230
0.178711	-0.629883	0.002930	-1.021801	0.018749	-0.421844	-0.527344	0.023438	0.187500	1053	17_29_27_0694520
0.181641	-0.621094	-0.005859	-0.993678	0.000000	-0.431219	-0.527344	-0.023438	0.175781	1054	17_29_27_0855810
0.181641	-0.609375	-0.026367	-0.956181	0.000000	-0.412470	-0.539063	0.011719	0.175781	1055	17_29_27_1017100
0.161133	-0.588867	-0.035156	-0.918683	-0.009374	-0.403096	-0.527344	-0.035156	0.164063	1056	17_29_27_1178390
0.120117	-0.544922	-0.029297	-0.862437	-0.009374	-0.384347	-0.492188	0.117188	0.316406	1057	17_29_27_1339680
0.046875	-0.521484	0.000000	-0.787443	-0.018749	-0.374973	-0.562500	0.035156	0.175781	1058	17_29_27_1500970
-0.041016	-0.477539	-0.008789	-0.721823	-0.074995	-0.365598	-0.562500	0.058594	0.175781	1059	17_29_27_1662260
-0.043945	-0.480469	-0.014648	-0.628079	-0.149989	-0.328101	-0.562500	0.058594	0.140625	1060	17_29_27_1823550
-0.061523	-0.442383	-0.029297	-0.562459	-0.243732	-0.309353	-0.574219	0.046875	0.152344	1061	17_29_27_1984840
0.000000	-0.503906	0.002930	-0.534336	-0.281230	-0.299978	-0.562500	0.093750	0.152344	1062	17_29_27_2146130
0.055664	-0.559570	0.041016	-0.562459	-0.234358	-0.299978	-0.574219	0.058594	0.152344	1063	17_29_27_2307420
0.087891	-0.629883	0.067383	-0.571833	-0.215609	-0.299978	-0.433594	0.035156	0.257813	1064	17_29_27_2468710
0.164063	-0.752930	0.108398	-0.534336	-0.224984	-0.271855	-0.539063	0.023438	0.175781	1065	17_29_27_2630000
0.243164	-0.837891	0.213867	-0.524962	-0.149989	-0.290604	-0.562500	0.082031	0.164063	1066	17_29_27_2791290
0.231445	-0.890625	0.333984	-0.562459	0.037497	-0.337475	-0.597656	0.070313	0.175781	1067	17_29_27_2952580
0.076172	-0.861328	0.495117	-0.637454	0.187486	-0.478090	-0.597656	0.058594	0.164063	1068	17_29_27_3113870
-0.082031	-0.826172	0.571289	-0.665577	0.234358	-0.571833	-0.585938	-0.011719	0.187500	1069	17_29_27_3275160
-0.111328	-0.814453	0.506836	-0.609331	0.149989	-0.581208	-0.597656	-0.023438	0.187500	1070	17_29_27_3436450
-0.029297	-0.755859	0.319336	-0.581208	0.018749	-0.571833	-0.585938	0.046875	0.175781	1071	17_29_27_3597740
0.073242	-0.647461	0.152344	-0.524962	-0.168738	-0.524962	-0.585938	0.011719	0.199219	1072	17_29_27_3759030
0.169922	-0.533203	-0.043945	-0.393721	-0.243732	-0.421844	-0.585938	0.046875	0.187500	1073	17_29_27_3920320
0.196289	-0.864258	-0.348633	-0.262481	-0.187486	-0.431219	-0.585938	0.023438	0.199219	1074	17_29_27_4081610
0.199219	-1.497070	-0.049805	-0.271855	-0.178112	-0.731197	-0.562500	-0.046875	0.234375	1075	17_29_27_4242900
-0.161133	-1.394531	0.659180	-1.012426	0.374973	-0.768694	-0.550781	0.011719	0.199219	1076	17_29_27_4404190
-0.477539	-0.708984	0.489258	-0.628079	0.028123	-0.431219	-0.574219	0.046875	0.199219	1077	17_29_27_4565480
-0.298828	0.111328	-0.199219	-0.337475	-0.543711	-0.009374	-0.562500	0.046875	0.222656	1078	17_29_27_4726770
0.553711	-0.495117	-0.659180	-0.534336	-0.974929	-0.234358	-0.503906	0.046875	0.246094	1079	17_29_27_4888060
1.042969	-0.550781	0.108398	-0.787443	-0.599956	-0.637454	-0.597656	0.058594	0.234375	1080	17_29_27_5049350
0.747070	-0.755859	-0.032227	-0.515588	0.084369	-0.346850	-0.527344	0.046875	0.246094	1081	17_29_27_5210640
0.254883	-0.934570	-0.216797	-0.515588	0.299978	-0.262481	-0.609375	-0.035156	0.222656	1082	17_29_27_5371930
-0.055664	-0.714844	-0.166992	-0.599956	0.159363	-0.468716	-0.609375	-0.046875	0.269531	1083	17_29_27_5533220
-0.076172	-0.653320	-0.134766	-0.628079	-0.140615	-0.496839	-0.574219	-0.023438	0.269531	1084	17_29_27_5694510
0.099609	-0.732422	-0.155273	-0.628079	-0.374973	-0.440593	-0.609375	0.023438	0.246094	1085	17_29_27_5855800
0.281250	-0.726563	-0.137695	-0.581208	-0.496839	-0.356224	-0.609375	-0.023438	0.246094	1086	17_29_27_6017090
0.325195	-0.685547	-0.137695	-0.524962	-0.524962	-0.365598	-0.609375	0.000000	0.269531	1087	17_29_27_6178380
0.319336	-0.667969	-0.161133	-0.459342	-0.524962	-0.412470	-0.574219	-0.011719	0.292969	1088	17_29_27_6339670
0.319336	-0.656250	-0.155273	-0.431219	-0.478090	-0.449967	-0.585938	0.046875	0.281250	1089	17_29_27_6500960
0.316406	-0.720703	-0.161133	-0.403096	-0.384347	-0.449967	-0.585938	0.035156	0.316406	1090	17_29_27_6662250
0.310547	-0.714844	-0.181641	-0.393721	-0.337475	-0.459342	-0.585938	0.011719	0.316406	1091	17_29_27_6823540
0.322266	-0.676758	-0.155273	-0.384347	-0.281230	-0.459342	-0.550781	0.023438	0.351563	1092	17_29_27_6984830
0.284180	-0.720703	-0.161133	-0.346850	-0.243732	-0.487465	-0.621094	0.035156	0.339844	1093	17_29_27_7146120
0.205078	-0.711914	-0.158203	-0.337475	-0.234358	-0.487465	-0.621094	-0.058594	0.339844	1094	17_29_27_7307410
