sensor_ID	000666015735
Accel_X	Accel_Y	Accel_Z	Roll	Pitch	Yaw	Mag_X	Mag_Y	Mag_Z	Count	SysTime
0.128906	-0.158203	0.750000	-0.853063	-0.721823	-0.403096	-0.175781	0.351563	0.386719	0	17_29_10_0706150
0.134766	-0.166992	0.752930	-0.853063	-0.721823	-0.403096	-0.152344	0.339844	0.457031	1	17_29_10_0867440
0.134766	-0.158203	0.764648	-0.862437	-0.721823	-0.403096	-0.140625	0.351563	0.398438	2	17_29_10_1028730
0.123047	-0.166992	0.755859	-0.853063	-0.721823	-0.412470	-0.128906	0.351563	0.363281	3	17_29_10_1190020
0.128906	-0.158203	0.747070	-0.853063	-0.731197	-0.403096	-0.152344	0.351563	0.375000	4	17_29_10_1351310
0.125977	-0.164063	0.758789	-0.843689	-0.731197	-0.403096	-0.152344	0.339844	0.492188	5	17_29_10_1512600
0.128906	-0.161133	0.755859	-0.853063	-0.721823	-0.403096	-0.152344	0.316406	0.492188	6	17_29_10_1673890
0.134766	-0.164063	0.752930	-0.853063	-0.731197	-0.403096	-0.152344	0.316406	0.492188	7	17_29_10_1835180
0.123047	-0.161133	0.758789	-0.853063	-0.731197	-0.393721	-0.164063	0.339844	0.492188	8	17_29_10_1996470
0.134766	-0.161133	0.758789	-0.853063	-0.721823	-0.403096	-0.152344	0.328125	0.433594	9	17_29_10_2157760
0.128906	-0.169922	0.761719	-0.853063	-0.721823	-0.412470	-0.187500	0.351563	0.445313	10	17_29_10_2319050
0.134766	-0.158203	0.758789	-0.862437	-0.731197	-0.412470	-0.164063	0.351563	0.457031	11	17_29_10_2480340
0.140625	-0.175781	0.761719	-0.853063	-0.731197	-0.403096	-0.152344	0.351563	0.457031	12	17_29_10_2641630
0.123047	-0.166992	0.761719	-0.862437	-0.721823	-0.403096	-0.164063	0.351563	0.433594	13	17_29_10_2802920
0.131836	-0.158203	0.764648	-0.853063	-0.721823	-0.403096	-0.152344	0.351563	0.410156	14	17_29_10_2964210
0.137695	-0.161133	0.761719	-0.853063	-0.721823	-0.403096	-0.117188	0.351563	0.433594	15	17_29_10_3125500
0.131836	-0.158203	0.758789	-0.862437	-0.721823	-0.403096	-0.093750	0.656250	0.457031	16	17_29_10_3286790
0.128906	-0.155273	0.758789	-0.862437	-0.731197	-0.403096	-0.152344	0.316406	0.468750	17	17_29_10_3448080
0.123047	-0.164063	0.764648	-0.853063	-0.731197	-0.403096	-0.105469	0.386719	0.457031	18	17_29_10_3609370
0.123047	-0.152344	0.752930	-0.853063	-0.721823	-0.403096	-0.152344	0.351563	0.410156	19	17_29_10_3770660
0.134766	-0.158203	0.770508	-0.853063	-0.721823	-0.403096	-0.152344	0.351563	0.433594	20	17_29_10_3931950
0.128906	-0.161133	0.770508	-0.853063	-0.721823	-0.403096	-0.152344	0.351563	0.433594	21	17_29_10_4093240
0.125977	-0.158203	0.752930	-0.853063	-0.721823	-0.403096	-0.175781	0.351563	0.410156	22	17_29_10_4254530
0.134766	-0.155273	0.770508	-0.853063	-0.721823	-0.403096	-0.152344	0.328125	0.445313	23	17_29_10_4415820
0.134766	-0.161133	0.758789	-0.853063	-0.721823	-0.403096	-0.128906	0.363281	0.410156	24	17_29_10_4577110
0.131836	-0.158203	0.758789	-0.843689	-0.721823	-0.403096	-0.152344	0.351563	0.398438	25	17_29_10_4738400
0.128906	-0.146484	0.764648	-0.862437	-0.721823	-0.403096	-0.046875	0.726563	0.457031	26	17_29_10_4899690
0.137695	-0.149414	0.764648	-0.853063	-0.721823	-0.403096	-0.152344	0.351563	0.445313	27	17_29_10_5060980
0.131836	-0.161133	0.761719	-0.853063	-0.721823	-0.403096	-0.152344	0.316406	0.445313	28	17_29_10_5222270
0.131836	-0.149414	0.761719	-0.853063	-0.721823	-0.403096	-0.128906	0.328125	0.468750	29	17_29_10_5383560
0.128906	-0.164063	0.761719	-0.853063	-0.731197	-0.403096	-0.187500	0.351563	0.457031	30	17_29_10_5544850
0.123047	-0.155273	0.755859	-0.853063	-0.721823	-0.403096	-0.152344	0.316406	0.480469	31	17_29_10_5706140
0.128906	-0.166992	0.758789	-0.853063	-0.721823	-0.403096	-0.152344	0.351563	0.468750	32	17_29_10_5867430
0.131836	-0.161133	0.761719	-0.853063	-0.712448	-0.403096	-0.140625	0.351563	0.421875	33	17_29_10_6028720
0.123047	-0.166992	0.758789	-0.862437	-0.721823	-0.403096	-0.152344	0.351563	0.433594	34	17_29_10_6190010
0.125977	-0.152344	0.755859	-0.862437	-0.721823	-0.403096	-0.140625	0.351563	0.421875	35	17_29_10_6351300
0.134766	-0.155273	0.761719	-0.853063	-0.721823	-0.403096	-0.152344	0.351563	0.433594	36	17_29_10_6512590
0.134766	-0.164063	0.767578	-0.853063	-0.721823	-0.403096	-0.152344	0.351563	0.421875	37	17_29_10_6673880
0.128906	-0.158203	0.752930	-0.862437	-0.731197	-0.403096	-0.164063	0.339844	0.410156	38	17_29_10_6835170
0.123047	-0.158203	0.758789	-0.862437	-0.721823	-0.403096	-0.093750	0.386719	0.421875	39	17_29_10_6996460
0.134766	-0.161133	0.761719	-0.853063	-0.721823	-0.403096	-0.175781	0.328125	0.433594	40	17_29_10_7157750
0.131836	-0.164063	0.758789	-0.862437	-0.721823	-0.403096	-0.082031	0.445313	0.457031	41	17_29_10_7319040
0.131836	-0.158203	0.758789	-0.853063	-0.721823	-0.403096	-0.175781	0.351563	0.433594	42	17_29_10_7480330
0.134766	-0.158203	0.764648	-0.843689	-0.721823	-0.403096	-0.164063	0.351563	0.457031	43	17_29_10_7641620
0.134766	-0.164063	0.770508	-0.853063	-0.721823	-0.403096	-0.164063	0.339844	0.457031	44	17_29_10_7802910
0.137695	-0.166992	0.764648	-0.862437	-0.721823	-0.403096	0.058594	0.691406	0.574219	45	17_29_10_7964200
0.134766	-0.158203	0.761719	-0.853063	-0.721823	-0.403096	-0.164063	0.328125	0.574219	46	17_29_10_8125490
0.140625	-0.169922	0.770508	-0.862437	-0.721823	-0.403096	-0.152344	0.351563	0.492188	47	17_29_10_8286780
0.123047	-0.155273	0.761719	-0.862437	-0.721823	-0.403096	-0.175781	0.363281	0.468750	48	17_29_10_8448070
0.134766	-0.161133	0.758789	-0.862437	-0.721823	-0.403096	-0.152344	0.351563	0.433594	49	17_29_10_8609360
0.131836	-0.155273	0.750000	-0.853063	-0.721823	-0.403096	-0.128906	0.351563	0.433594	50	17_29_10_8770650
0.120117	-0.158203	0.761719	-0.853063	-0.712448	-0.403096	-0.152344	0.351563	0.457031	51	17_29_10_8931940
0.128906	-0.166992	0.758789	-0.862437	-0.721823	-0.403096	-0.152344	0.351563	0.421875	52	17_29_10_9093230
0.128906	-0.152344	0.767578	-0.862437	-0.721823	-0.403096	-0.035156	0.492188	0.433594	53	17_29_10_9254520
0.128906	-0.169922	0.761719	-0.862437	-0.721823	-0.403096	-0.152344	0.351563	0.457031	54	17_29_10_9415810
0.123047	-0.155273	0.758789	-0.862437	-0.721823	-0.403096	-0.175781	0.351563	0.433594	55	17_29_10_9577100
0.128906	-0.169922	0.764648	-0.862437	-0.721823	-0.403096	-0.152344	0.351563	0.468750	56	17_29_10_9738390
0.125977	-0.161133	0.758789	-0.843689	-0.721823	-0.403096	-0.152344	0.339844	0.503906	57	17_29_10_9899680
0.134766	-0.152344	0.758789	-0.862437	-0.731197	-0.403096	-0.164063	0.316406	0.503906	58	17_29_11_0060970
0.131836	-0.164063	0.758789	-0.853063	-0.731197	-0.403096	-0.164063	0.316406	0.492188	59	17_29_11_0222260
0.125977	-0.158203	0.758789	-0.862437	-0.721823	-0.403096	-0.164063	0.351563	0.433594	60	17_29_11_0383550
0.128906	-0.158203	0.764648	-0.862437	-0.721823	-0.403096	-0.128906	0.351563	0.468750	61	17_29_11_0544840
0.128906	-0.152344	0.755859	-0.853063	-0.721823	-0.403096	-0.152344	0.351563	0.480469	62	17_29_11_0706130
0.134766	-0.149414	0.764648	-0.853063	-0.721823	-0.412470	-0.152344	0.351563	0.445313	63	17_29_11_0867420
0.125977	-0.152344	0.758789	-0.853063	-0.721823	-0.403096	-0.164063	0.316406	0.433594	64	17_29_11_1028710
0.131836	-0.164063	0.752930	-0.853063	-0.721823	-0.403096	-0.152344	0.328125	0.398438	65	17_29_11_1190000
0.137695	-0.158203	0.761719	-0.853063	-0.721823	-0.403096	-0.152344	0.351563	0.421875	66	17_29_11_1351290
0.131836	-0.158203	0.752930	-0.862437	-0.721823	-0.403096	-0.023438	0.703125	0.492188	67	17_29_11_1512580
0.131836	-0.155273	0.761719	-0.862437	-0.721823	-0.403096	-0.152344	0.351563	0.363281	68	17_29_11_1673870
0.128906	-0.152344	0.767578	-0.853063	-0.721823	-0.403096	-0.152344	0.339844	0.421875	69	17_29_11_1835160
0.134766	-0.166992	0.741211	-0.843689	-0.721823	-0.403096	-0.128906	0.304688	0.503906	70	17_29_11_1996450
0.131836	-0.158203	0.758789	-0.853063	-0.721823	-0.403096	-0.152344	0.339844	0.433594	71	17_29_11_2157740
0.125977	-0.158203	0.752930	-0.853063	-0.721823	-0.403096	-0.175781	0.351563	0.468750	72	17_29_11_2319030
0.123047	-0.158203	0.752930	-0.843689	-0.721823	-0.412470	-0.164063	0.351563	0.421875	73	17_29_11_2480320
0.128906	-0.152344	0.764648	-0.862437	-0.721823	-0.403096	-0.152344	0.339844	0.386719	74	17_29_11_2641610
0.123047	-0.161133	0.761719	-0.862437	-0.721823	-0.403096	0.070313	0.656250	0.503906	75	17_29_11_2802900
0.125977	-0.161133	0.758789	-0.862437	-0.721823	-0.403096	0.070313	0.703125	0.597656	76	17_29_11_2964190
0.131836	-0.161133	0.764648	-0.862437	-0.721823	-0.403096	-0.152344	0.351563	0.457031	77	17_29_11_3125480
0.125977	-0.158203	0.750000	-0.862437	-0.721823	-0.403096	-0.128906	0.363281	0.410156	78	17_29_11_3286770
0.131836	-0.155273	0.761719	-0.862437	-0.721823	-0.403096	-0.140625	0.351563	0.445313	79	17_29_11_3448060
0.134766	-0.152344	0.764648	-0.843689	-0.721823	-0.403096	-0.164063	0.339844	0.421875	80	17_29_11_3609350
0.131836	-0.158203	0.764648	-0.853063	-0.721823	-0.403096	-0.152344	0.316406	0.398438	81	17_29_11_3770640
0.123047	-0.164063	0.758789	-0.843689	-0.731197	-0.403096	-0.164063	0.304688	0.421875	82	17_29_11_3931930
0.125977	-0.158203	0.758789	-0.853063	-0.721823	-0.403096	-0.152344	0.316406	0.410156	83	17_29_11_4093220
0.137695	-0.164063	0.758789	-0.862437	-0.721823	-0.403096	-0.187500	0.351563	0.433594	84	17_29_11_4254510
0.128906	-0.164063	0.764648	-0.853063	-0.721823	-0.403096	-0.164063	0.316406	0.445313	85	17_29_11_4415800
0.137695	-0.161133	0.755859	-0.853063	-0.721823	-0.403096	-0.175781	0.351563	0.410156	86	17_29_11_4577090
0.134766	-0.164063	0.764648	-0.862437	-0.721823	-0.403096	-0.152344	0.351563	0.375000	87	17_29_11_4738380
0.131836	-0.161133	0.755859	-0.853063	-0.721823	-0.403096	-0.140625	0.351563	0.375000	88	17_29_11_4899670
0.131836	-0.164063	0.758789	-0.853063	-0.721823	-0.403096	-0.152344	0.339844	0.386719	89	17_29_11_5060960
0.123047	-0.152344	0.752930	-0.853063	-0.721823	-0.412470	-0.164063	0.351563	0.386719	90	17_29_11_5222250
0.125977	-0.155273	0.752930	-0.853063	-0.721823	-0.403096	-0.152344	0.351563	0.398438	91	17_29_11_5383540
0.125977	-0.158203	0.767578	-0.862437	-0.721823	-0.403096	-0.070313	0.457031	0.433594	92	17_29_11_5544830
0.134766	-0.152344	0.758789	-0.853063	-0.721823	-0.403096	-0.175781	0.351563	0.468750	93	17_29_11_5706120
0.131836	-0.164063	0.764648	-0.871812	-0.731197	-0.403096	0.023438	0.562500	0.515625	94	17_29_11_5867410
0.120117	-0.164063	0.761719	-0.853063	-0.721823	-0.403096	-0.152344	0.351563	0.503906	95	17_29_11_6028700
0.131836	-0.158203	0.761719	-0.853063	-0.721823	-0.403096	-0.164063	0.351563	0.492188	96	17_29_11_6189990
0.125977	-0.155273	0.758789	-0.853063	-0.721823	-0.403096	-0.152344	0.339844	0.457031	97	17_29_11_6351280
0.125977	-0.161133	0.761719	-0.853063	-0.721823	-0.403096	-0.152344	0.328125	0.503906	98	17_29_11_6512570
0.131836	-0.166992	0.761719	-0.862437	-0.721823	-0.403096	-0.117188	0.351563	0.527344	99	17_29_11_6673860
0.128906	-0.164063	0.770508	-0.862437	-0.721823	-0.403096	-0.164063	0.351563	0.421875	100	17_29_11_6835150
0.128906	-0.164063	0.758789	-0.853063	-0.721823	-0.403096	-0.152344	0.351563	0.421875	101	17_29_11_6996440
0.128906	-0.164063	0.761719	-0.862437	-0.721823	-0.412470	-0.175781	0.351563	0.468750	102	17_29_11_7157730
0.125977	-0.164063	0.752930	-0.862437	-0.721823	-0.403096	-0.152344	0.339844	0.492188	103	17_29_11_7319020
0.123047	-0.164063	0.758789	-0.862437	-0.721823	-0.403096	-0.164063	0.339844	0.457031	104	17_29_11_7480310
0.128906	-0.161133	0.755859	-0.862437	-0.721823	-0.403096	-0.152344	0.328125	0.386719	105	17_29_11_7641600
0.128906	-0.158203	0.750000	-0.862437	-0.721823	-0.403096	0.046875	0.585938	0.433594	106	17_29_11_7802890
0.125977	-0.166992	0.764648	-0.862437	-0.721823	-0.403096	-0.152344	0.339844	0.468750	107	17_29_11_7964180
0.125977	-0.158203	0.761719	-0.853063	-0.721823	-0.403096	-0.152344	0.304688	0.480469	108	17_29_11_8125470
0.123047	-0.161133	0.770508	-0.862437	-0.712448	-0.403096	-0.128906	0.386719	0.492188	109	17_29_11_8286760
0.123047	-0.164063	0.755859	-0.843689	-0.721823	-0.412470	-0.128906	0.351563	0.468750	110	17_29_11_8448050
0.123047	-0.166992	0.758789	-0.853063	-0.721823	-0.412470	-0.152344	0.339844	0.550781	111	17_29_11_8609340
0.128906	-0.161133	0.758789	-0.853063	-0.721823	-0.412470	-0.152344	0.328125	0.539063	112	17_29_11_8770630
0.137695	-0.149414	0.761719	-0.853063	-0.721823	-0.412470	-0.175781	0.339844	0.421875	113	17_29_11_8931920
0.123047	-0.164063	0.761719	-0.853063	-0.721823	-0.403096	-0.152344	0.328125	0.445313	114	17_29_11_9093210
0.137695	-0.158203	0.758789	-0.853063	-0.731197	-0.403096	-0.070313	0.492188	0.468750	115	17_29_11_9254500
0.134766	-0.164063	0.764648	-0.862437	-0.721823	-0.412470	-0.140625	0.351563	0.410156	116	17_29_11_9415790
0.131836	-0.158203	0.758789	-0.853063	-0.721823	-0.403096	-0.164063	0.351563	0.398438	117	17_29_11_9577080
0.128906	-0.172852	0.758789	-0.853063	-0.721823	-0.403096	-0.152344	0.351563	0.457031	118	17_29_11_9738370
0.128906	-0.161133	0.758789	-0.862437	-0.721823	-0.403096	0.000000	0.820313	0.515625	119	17_29_11_9899660
0.131836	-0.152344	0.761719	-0.862437	-0.721823	-0.403096	-0.093750	0.679688	0.457031	120	17_29_12_0060950
0.125977	-0.152344	0.758789	-0.862437	-0.731197	-0.403096	-0.152344	0.515625	0.515625	121	17_29_12_0222240
0.128906	-0.155273	0.761719	-0.853063	-0.721823	-0.403096	-0.140625	0.351563	0.550781	122	17_29_12_0383530
0.131836	-0.169922	0.752930	-0.853063	-0.721823	-0.403096	-0.187500	0.351563	0.503906	123	17_29_12_0544820
0.131836	-0.155273	0.758789	-0.862437	-0.721823	-0.403096	-0.140625	0.363281	0.421875	124	17_29_12_0706110
0.128906	-0.164063	0.770508	-0.853063	-0.721823	-0.403096	-0.128906	0.351563	0.398438	125	17_29_12_0867400
0.137695	-0.158203	0.750000	-0.853063	-0.721823	-0.403096	-0.175781	0.339844	0.386719	126	17_29_12_1028690
0.131836	-0.166992	0.761719	-0.862437	-0.721823	-0.403096	-0.152344	0.328125	0.445313	127	17_29_12_1189980
0.125977	-0.169922	0.770508	-0.853063	-0.721823	-0.403096	-0.152344	0.351563	0.492188	128	17_29_12_1351270
0.125977	-0.158203	0.752930	-0.853063	-0.721823	-0.403096	-0.152344	0.339844	0.457031	129	17_29_12_1512560
0.134766	-0.164063	0.761719	-0.862437	-0.731197	-0.403096	-0.046875	0.691406	0.410156	130	17_29_12_1673850
0.128906	-0.158203	0.761719	-0.853063	-0.731197	-0.412470	-0.152344	0.351563	0.480469	131	17_29_12_1835140
0.134766	-0.161133	0.758789	-0.862437	-0.731197	-0.403096	-0.117188	0.421875	0.480469	132	17_29_12_1996430
0.125977	-0.158203	0.758789	-0.853063	-0.721823	-0.403096	-0.164063	0.351563	0.421875	133	17_29_12_2157720
0.128906	-0.164063	0.758789	-0.853063	-0.721823	-0.403096	-0.152344	0.351563	0.398438	134	17_29_12_2319010
0.123047	-0.164063	0.758789	-0.853063	-0.721823	-0.403096	-0.152344	0.351563	0.421875	135	17_29_12_2480300
0.128906	-0.169922	0.755859	-0.862437	-0.721823	-0.403096	0.046875	0.585938	0.433594	136	17_29_12_2641590
0.131836	-0.155273	0.764648	-0.853063	-0.721823	-0.403096	-0.164063	0.351563	0.410156	137	17_29_12_2802880
0.128906	-0.152344	0.752930	-0.862437	-0.721823	-0.403096	0.011719	0.609375	0.445313	138	17_29_12_2964170
0.128906	-0.158203	0.752930	-0.853063	-0.721823	-0.403096	-0.199219	0.351563	0.433594	139	17_29_12_3125460
0.123047	-0.161133	0.755859	-0.853063	-0.721823	-0.403096	-0.152344	0.351563	0.421875	140	17_29_12_3286750
0.125977	-0.164063	0.761719	-0.862437	-0.721823	-0.403096	-0.175781	0.351563	0.433594	141	17_29_12_3448040
0.128906	-0.169922	0.758789	-0.862437	-0.721823	-0.403096	-0.152344	0.351563	0.421875	142	17_29_12_3609330
0.120117	-0.149414	0.758789	-0.853063	-0.721823	-0.403096	-0.140625	0.351563	0.375000	143	17_29_12_3770620
0.131836	-0.161133	0.758789	-0.853063	-0.731197	-0.403096	-0.175781	0.351563	0.363281	144	17_29_12_3931910
0.134766	-0.169922	0.764648	-0.862437	-0.721823	-0.403096	-0.152344	0.351563	0.433594	145	17_29_12_4093200
0.134766	-0.169922	0.761719	-0.853063	-0.731197	-0.412470	-0.152344	0.351563	0.492188	146	17_29_12_4254490
0.123047	-0.152344	0.761719	-0.853063	-0.721823	-0.403096	-0.152344	0.339844	0.457031	147	17_29_12_4415780
0.134766	-0.161133	0.758789	-0.853063	-0.721823	-0.403096	-0.187500	0.328125	0.445313	148	17_29_12_4577070
0.131836	-0.169922	0.761719	-0.853063	-0.721823	-0.403096	-0.152344	0.351563	0.457031	149	17_29_12_4738360
0.131836	-0.158203	0.770508	-0.853063	-0.731197	-0.403096	-0.152344	0.351563	0.421875	150	17_29_12_4899650
0.123047	-0.164063	0.764648	-0.862437	-0.721823	-0.403096	-0.140625	0.351563	0.375000	151	17_29_12_5060940
0.123047	-0.149414	0.758789	-0.871812	-0.712448	-0.403096	-0.093750	0.644531	0.445313	152	17_29_12_5222230
0.125977	-0.161133	0.758789	-0.862437	-0.712448	-0.403096	-0.128906	0.410156	0.457031	153	17_29_12_5383520
0.131836	-0.161133	0.758789	-0.862437	-0.731197	-0.403096	-0.152344	0.351563	0.375000	154	17_29_12_5544810
0.131836	-0.158203	0.752930	-0.853063	-0.721823	-0.403096	-0.152344	0.351563	0.445313	155	17_29_12_5706100
0.128906	-0.155273	0.761719	-0.853063	-0.721823	-0.403096	-0.140625	0.363281	0.515625	156	17_29_12_5867390
0.128906	-0.161133	0.767578	-0.853063	-0.721823	-0.403096	-0.128906	0.351563	0.468750	157	17_29_12_6028680
0.125977	-0.155273	0.755859	-0.862437	-0.721823	-0.412470	-0.140625	0.351563	0.375000	158	17_29_12_6189970
0.128906	-0.158203	0.761719	-0.853063	-0.721823	-0.412470	-0.164063	0.351563	0.363281	159	17_29_12_6351260
0.128906	-0.158203	0.758789	-0.853063	-0.721823	-0.403096	-0.164063	0.351563	0.375000	160	17_29_12_6512550
0.134766	-0.164063	0.755859	-0.853063	-0.721823	-0.403096	-0.152344	0.316406	0.398438	161	17_29_12_6673840
0.134766	-0.155273	0.755859	-0.862437	-0.721823	-0.403096	-0.152344	0.316406	0.375000	162	17_29_12_6835130
0.131836	-0.158203	0.758789	-0.862437	-0.721823	-0.403096	-0.128906	0.386719	0.398438	163	17_29_12_6996420
0.125977	-0.155273	0.758789	-0.853063	-0.721823	-0.403096	-0.152344	0.351563	0.398438	164	17_29_12_7157710
0.128906	-0.158203	0.761719	-0.862437	-0.731197	-0.403096	-0.152344	0.351563	0.421875	165	17_29_12_7319000
0.128906	-0.158203	0.758789	-0.853063	-0.721823	-0.403096	-0.164063	0.351563	0.457031	166	17_29_12_7480290
0.131836	-0.161133	0.764648	-0.853063	-0.721823	-0.403096	-0.140625	0.386719	0.445313	167	17_29_12_7641580
0.117188	-0.161133	0.764648	-0.853063	-0.721823	-0.403096	-0.152344	0.351563	0.410156	168	17_29_12_7802870
0.128906	-0.158203	0.752930	-0.862437	-0.721823	-0.403096	-0.152344	0.351563	0.421875	169	17_29_12_7964160
0.125977	-0.155273	0.761719	-0.853063	-0.731197	-0.403096	0.011719	0.632813	0.468750	170	17_29_12_8125450
0.128906	-0.152344	0.758789	-0.853063	-0.721823	-0.403096	-0.140625	0.351563	0.433594	171	17_29_12_8286740
0.128906	-0.158203	0.752930	-0.853063	-0.721823	-0.403096	-0.175781	0.351563	0.398438	172	17_29_12_8448030
0.128906	-0.161133	0.761719	-0.871812	-0.721823	-0.403096	-0.105469	0.609375	0.351563	173	17_29_12_8609320
0.128906	-0.161133	0.758789	-0.853063	-0.721823	-0.403096	-0.152344	0.339844	0.375000	174	17_29_12_8770610
0.128906	-0.161133	0.758789	-0.853063	-0.721823	-0.403096	-0.152344	0.328125	0.421875	175	17_29_12_8931900
0.128906	-0.161133	0.767578	-0.853063	-0.721823	-0.403096	-0.164063	0.351563	0.433594	176	17_29_12_9093190
0.134766	-0.169922	0.761719	-0.862437	-0.721823	-0.403096	-0.152344	0.351563	0.468750	177	17_29_12_9254480
0.120117	-0.158203	0.758789	-0.853063	-0.721823	-0.403096	-0.152344	0.328125	0.468750	178	17_29_12_9415770
0.131836	-0.152344	0.758789	-0.862437	-0.721823	-0.403096	-0.152344	0.328125	0.468750	179	17_29_12_9577060
0.131836	-0.152344	0.758789	-0.862437	-0.721823	-0.403096	0.117188	0.714844	0.480469	180	17_29_12_9738350
0.128906	-0.152344	0.752930	-0.862437	-0.721823	-0.403096	0.011719	0.656250	0.480469	181	17_29_12_9899640
0.134766	-0.161133	0.758789	-0.862437	-0.721823	-0.403096	-0.117188	0.398438	0.433594	182	17_29_13_0060930
0.125977	-0.152344	0.752930	-0.862437	-0.721823	-0.403096	-0.140625	0.339844	0.410156	183	17_29_13_0222220
0.134766	-0.161133	0.761719	-0.862437	-0.721823	-0.403096	-0.152344	0.375000	0.457031	184	17_29_13_0383510
0.131836	-0.158203	0.767578	-0.853063	-0.721823	-0.403096	-0.140625	0.339844	0.480469	185	17_29_13_0544800
0.134766	-0.155273	0.758789	-0.853063	-0.731197	-0.403096	-0.152344	0.328125	0.421875	186	17_29_13_0706090
0.125977	-0.164063	0.758789	-0.843689	-0.721823	-0.403096	-0.164063	0.351563	0.457031	187	17_29_13_0867380
0.134766	-0.161133	0.758789	-0.843689	-0.721823	-0.403096	-0.187500	0.351563	0.433594	188	17_29_13_1028670
0.123047	-0.152344	0.761719	-0.862437	-0.721823	-0.403096	0.011719	0.574219	0.410156	189	17_29_13_1189960
0.134766	-0.158203	0.767578	-0.853063	-0.721823	-0.403096	-0.152344	0.351563	0.457031	190	17_29_13_1351250
0.120117	-0.161133	0.770508	-0.853063	-0.721823	-0.403096	-0.152344	0.339844	0.480469	191	17_29_13_1512540
0.128906	-0.166992	0.755859	-0.843689	-0.731197	-0.403096	-0.164063	0.339844	0.445313	192	17_29_13_1673830
0.123047	-0.166992	0.764648	-0.843689	-0.721823	-0.403096	-0.152344	0.351563	0.410156	193	17_29_13_1835120
0.131836	-0.166992	0.761719	-0.853063	-0.721823	-0.403096	-0.128906	0.351563	0.433594	194	17_29_13_1996410
0.125977	-0.164063	0.764648	-0.871812	-0.721823	-0.403096	-0.105469	0.433594	0.457031	195	17_29_13_2157700
0.123047	-0.164063	0.758789	-0.853063	-0.731197	-0.403096	-0.140625	0.351563	0.492188	196	17_29_13_2318990
0.131836	-0.164063	0.761719	-0.862437	-0.721823	-0.403096	-0.164063	0.328125	0.468750	197	17_29_13_2480280
0.140625	-0.152344	0.752930	-0.853063	-0.721823	-0.403096	-0.128906	0.328125	0.480469	198	17_29_13_2641570
0.128906	-0.161133	0.750000	-0.862437	-0.721823	-0.403096	-0.140625	0.351563	0.527344	199	17_29_13_2802860
0.123047	-0.166992	0.758789	-0.853063	-0.721823	-0.412470	-0.152344	0.351563	0.492188	200	17_29_13_2964150
0.131836	-0.152344	0.752930	-0.853063	-0.721823	-0.403096	-0.164063	0.351563	0.457031	201	17_29_13_3125440
0.131836	-0.158203	0.761719	-0.853063	-0.721823	-0.403096	-0.164063	0.351563	0.468750	202	17_29_13_3286730
0.128906	-0.164063	0.758789	-0.853063	-0.721823	-0.403096	-0.152344	0.339844	0.468750	203	17_29_13_3448020
0.123047	-0.161133	0.761719	-0.862437	-0.721823	-0.403096	-0.152344	0.316406	0.468750	204	17_29_13_3609310
0.128906	-0.161133	0.752930	-0.843689	-0.731197	-0.403096	-0.152344	0.339844	0.480469	205	17_29_13_3770600
0.128906	-0.158203	0.752930	-0.853063	-0.721823	-0.403096	-0.152344	0.339844	0.480469	206	17_29_13_3931890
0.128906	-0.166992	0.770508	-0.862437	-0.721823	-0.403096	-0.164063	0.328125	0.480469	207	17_29_13_4093180
0.131836	-0.161133	0.758789	-0.853063	-0.721823	-0.403096	-0.152344	0.339844	0.468750	208	17_29_13_4254470
0.134766	-0.158203	0.758789	-0.862437	-0.731197	-0.403096	-0.152344	0.339844	0.457031	209	17_29_13_4415760
0.128906	-0.158203	0.758789	-0.853063	-0.721823	-0.403096	-0.187500	0.339844	0.457031	210	17_29_13_4577050
0.120117	-0.161133	0.767578	-0.862437	-0.731197	-0.412470	0.023438	0.574219	0.503906	211	17_29_13_4738340
0.128906	-0.158203	0.755859	-0.843689	-0.721823	-0.403096	-0.152344	0.363281	0.457031	212	17_29_13_4899630
0.140625	-0.155273	0.758789	-0.853063	-0.721823	-0.403096	-0.164063	0.351563	0.410156	213	17_29_13_5060920
0.128906	-0.169922	0.752930	-0.862437	-0.721823	-0.403096	-0.152344	0.351563	0.410156	214	17_29_13_5222210
0.128906	-0.158203	0.764648	-0.862437	-0.721823	-0.403096	-0.152344	0.351563	0.433594	215	17_29_13_5383500
0.125977	-0.149414	0.764648	-0.862437	-0.731197	-0.403096	-0.128906	0.351563	0.445313	216	17_29_13_5544790
0.140625	-0.158203	0.755859	-0.853063	-0.712448	-0.403096	-0.152344	0.351563	0.468750	217	17_29_13_5706080
0.131836	-0.155273	0.767578	-0.843689	-0.721823	-0.403096	-0.164063	0.351563	0.457031	218	17_29_13_5867370
0.131836	-0.155273	0.761719	-0.862437	-0.721823	-0.403096	-0.152344	0.351563	0.421875	219	17_29_13_6028660
0.114258	-0.158203	0.758789	-0.862437	-0.731197	-0.403096	-0.070313	0.527344	0.457031	220	17_29_13_6189950
0.131836	-0.152344	0.752930	-0.862437	-0.721823	-0.403096	-0.187500	0.328125	0.480469	221	17_29_13_6351240
0.134766	-0.158203	0.761719	-0.862437	-0.721823	-0.403096	0.070313	0.832031	0.457031	222	17_29_13_6512530
0.131836	-0.152344	0.755859	-0.853063	-0.721823	-0.403096	-0.152344	0.351563	0.433594	223	17_29_13_6673820
0.137695	-0.158203	0.764648	-0.862437	-0.721823	-0.403096	-0.164063	0.351563	0.433594	224	17_29_13_6835110
0.131836	-0.152344	0.761719	-0.862437	-0.721823	-0.403096	-0.152344	0.328125	0.410156	225	17_29_13_6996400
0.131836	-0.161133	0.761719	-0.862437	-0.721823	-0.403096	-0.082031	0.421875	0.445313	226	17_29_13_7157690
0.143555	-0.161133	0.758789	-0.843689	-0.721823	-0.403096	-0.152344	0.351563	0.515625	227	17_29_13_7318980
0.134766	-0.161133	0.758789	-0.862437	-0.721823	-0.403096	-0.175781	0.339844	0.492188	228	17_29_13_7480270
0.128906	-0.164063	0.764648	-0.862437	-0.731197	-0.403096	-0.152344	0.351563	0.468750	229	17_29_13_7641560
0.131836	-0.158203	0.761719	-0.853063	-0.721823	-0.403096	-0.152344	0.351563	0.433594	230	17_29_13_7802850
0.134766	-0.158203	0.755859	-0.862437	-0.721823	-0.403096	0.000000	0.585938	0.410156	231	17_29_13_7964140
0.131836	-0.158203	0.758789	-0.862437	-0.721823	-0.403096	-0.140625	0.363281	0.480469	232	17_29_13_8125430
0.123047	-0.164063	0.752930	-0.862437	-0.721823	-0.403096	0.035156	0.726563	0.480469	233	17_29_13_8286720
0.131836	-0.149414	0.761719	-0.862437	-0.721823	-0.403096	-0.128906	0.363281	0.492188	234	17_29_13_8448010
0.131836	-0.155273	0.755859	-0.843689	-0.721823	-0.403096	-0.164063	0.351563	0.457031	235	17_29_13_8609300
0.123047	-0.158203	0.755859	-0.862437	-0.731197	-0.403096	-0.164063	0.363281	0.445313	236	17_29_13_8770590
0.128906	-0.164063	0.758789	-0.853063	-0.721823	-0.403096	-0.152344	0.351563	0.445313	237	17_29_13_8931880
0.128906	-0.164063	0.761719	-0.853063	-0.731197	-0.403096	-0.175781	0.351563	0.386719	238	17_29_13_9093170
0.128906	-0.158203	0.767578	-0.862437	-0.721823	-0.403096	-0.128906	0.363281	0.410156	239	17_29_13_9254460
0.123047	-0.146484	0.758789	-0.853063	-0.721823	-0.403096	-0.152344	0.351563	0.421875	240	17_29_13_9415750
0.128906	-0.158203	0.761719	-0.853063	-0.731197	-0.403096	-0.175781	0.363281	0.398438	241	17_29_13_9577040
0.125977	-0.161133	0.764648	-0.862437	-0.721823	-0.403096	-0.152344	0.351563	0.410156	242	17_29_13_9738330
0.128906	-0.166992	0.758789	-0.853063	-0.721823	-0.403096	-0.140625	0.351563	0.503906	243	17_29_13_9899620
0.140625	-0.161133	0.764648	-0.853063	-0.721823	-0.403096	-0.152344	0.339844	0.457031	244	17_29_14_0060910
0.134766	-0.149414	0.758789	-0.853063	-0.721823	-0.412470	-0.140625	0.351563	0.410156	245	17_29_14_0222200
0.125977	-0.164063	0.761719	-0.862437	-0.712448	-0.403096	-0.152344	0.351563	0.410156	246	17_29_14_0383490
0.131836	-0.158203	0.758789	-0.853063	-0.721823	-0.403096	-0.152344	0.351563	0.445313	247	17_29_14_0544780
0.125977	-0.158203	0.758789	-0.843689	-0.731197	-0.403096	-0.152344	0.351563	0.457031	248	17_29_14_0706070
0.134766	-0.164063	0.764648	-0.862437	-0.721823	-0.403096	-0.152344	0.351563	0.433594	249	17_29_14_0867360
0.123047	-0.166992	0.752930	-0.853063	-0.721823	-0.403096	-0.164063	0.339844	0.468750	250	17_29_14_1028650
0.120117	-0.155273	0.761719	-0.853063	-0.731197	-0.403096	-0.152344	0.339844	0.527344	251	17_29_14_1189940
0.128906	-0.158203	0.767578	-0.853063	-0.721823	-0.412470	-0.152344	0.316406	0.515625	252	17_29_14_1351230
0.131836	-0.152344	0.761719	-0.862437	-0.721823	-0.403096	-0.175781	0.328125	0.445313	253	17_29_14_1512520
0.128906	-0.158203	0.764648	-0.853063	-0.721823	-0.403096	-0.152344	0.351563	0.457031	254	17_29_14_1673810
0.134766	-0.149414	0.761719	-0.853063	-0.721823	-0.403096	-0.117188	0.339844	0.457031	255	17_29_14_1835100
0.128906	-0.169922	0.755859	-0.862437	-0.721823	-0.403096	-0.175781	0.328125	0.433594	256	17_29_14_1996390
0.131836	-0.161133	0.758789	-0.853063	-0.721823	-0.403096	-0.152344	0.351563	0.410156	257	17_29_14_2157680
0.128906	-0.152344	0.767578	-0.862437	-0.721823	-0.403096	-0.058594	0.433594	0.457031	258	17_29_14_2318970
0.125977	-0.169922	0.761719	-0.853063	-0.712448	-0.403096	-0.152344	0.316406	0.515625	259	17_29_14_2480260
0.128906	-0.158203	0.755859	-0.862437	-0.721823	-0.403096	-0.152344	0.316406	0.445313	260	17_29_14_2641550
0.131836	-0.169922	0.770508	-0.853063	-0.721823	-0.403096	-0.152344	0.351563	0.375000	261	17_29_14_2802840
0.123047	-0.161133	0.758789	-0.853063	-0.721823	-0.412470	-0.152344	0.351563	0.410156	262	17_29_14_2964130
0.128906	-0.152344	0.764648	-0.862437	-0.721823	-0.412470	-0.128906	0.351563	0.480469	263	17_29_14_3125420
0.128906	-0.166992	0.761719	-0.862437	-0.721823	-0.403096	-0.152344	0.351563	0.492188	264	17_29_14_3286710
0.120117	-0.166992	0.758789	-0.853063	-0.721823	-0.403096	-0.152344	0.351563	0.433594	265	17_29_14_3448000
0.128906	-0.161133	0.764648	-0.853063	-0.721823	-0.403096	-0.152344	0.339844	0.410156	266	17_29_14_3609290
0.125977	-0.158203	0.758789	-0.862437	-0.721823	-0.403096	-0.152344	0.316406	0.421875	267	17_29_14_3770580
0.128906	-0.161133	0.758789	-0.843689	-0.721823	-0.403096	-0.175781	0.351563	0.386719	268	17_29_14_3931870
0.123047	-0.158203	0.770508	-0.853063	-0.721823	-0.403096	-0.128906	0.351563	0.410156	269	17_29_14_4093160
0.123047	-0.161133	0.761719	-0.853063	-0.721823	-0.403096	-0.152344	0.351563	0.433594	270	17_29_14_4254450
0.123047	-0.164063	0.758789	-0.862437	-0.721823	-0.403096	-0.046875	0.503906	0.433594	271	17_29_14_4415740
0.125977	-0.161133	0.761719	-0.862437	-0.721823	-0.403096	-0.152344	0.351563	0.398438	272	17_29_14_4577030
0.131836	-0.155273	0.761719	-0.862437	-0.721823	-0.403096	-0.140625	0.375000	0.457031	273	17_29_14_4738320
0.120117	-0.161133	0.758789	-0.853063	-0.721823	-0.403096	-0.140625	0.375000	0.492188	274	17_29_14_4899610
0.128906	-0.166992	0.758789	-0.853063	-0.721823	-0.403096	-0.152344	0.351563	0.480469	275	17_29_14_5060900
0.131836	-0.158203	0.758789	-0.853063	-0.731197	-0.403096	-0.152344	0.351563	0.457031	276	17_29_14_5222190
0.140625	-0.158203	0.752930	-0.853063	-0.721823	-0.403096	-0.152344	0.351563	0.363281	277	17_29_14_5383480
0.123047	-0.155273	0.758789	-0.862437	-0.731197	-0.403096	-0.128906	0.410156	0.421875	278	17_29_14_5544770
0.128906	-0.158203	0.764648	-0.853063	-0.721823	-0.403096	-0.187500	0.351563	0.468750	279	17_29_14_5706060
0.128906	-0.169922	0.758789	-0.843689	-0.721823	-0.403096	-0.152344	0.339844	0.468750	280	17_29_14_5867350
0.125977	-0.161133	0.761719	-0.871812	-0.721823	-0.403096	-0.187500	0.328125	0.480469	281	17_29_14_6028640
0.128906	-0.152344	0.761719	-0.862437	-0.721823	-0.403096	-0.105469	0.433594	0.480469	282	17_29_14_6189930
0.131836	-0.164063	0.758789	-0.853063	-0.721823	-0.412470	-0.164063	0.351563	0.433594	283	17_29_14_6351220
0.128906	-0.164063	0.764648	-0.853063	-0.721823	-0.403096	-0.152344	0.351563	0.421875	284	17_29_14_6512510
0.120117	-0.158203	0.758789	-0.853063	-0.721823	-0.403096	-0.152344	0.328125	0.433594	285	17_29_14_6673800
0.137695	-0.158203	0.761719	-0.843689	-0.721823	-0.403096	-0.175781	0.351563	0.421875	286	17_29_14_6835090
0.134766	-0.158203	0.758789	-0.853063	-0.731197	-0.403096	-0.152344	0.585938	0.445313	287	17_29_14_6996380
0.120117	-0.169922	0.761719	-0.862437	-0.721823	-0.403096	-0.152344	0.351563	0.433594	288	17_29_14_7157670
0.117188	-0.161133	0.761719	-0.853063	-0.721823	-0.403096	-0.175781	0.363281	0.410156	289	17_29_14_7318960
0.120117	-0.161133	0.764648	-0.862437	-0.731197	-0.403096	-0.152344	0.351563	0.421875	290	17_29_14_7480250
0.123047	-0.155273	0.764648	-0.862437	-0.721823	-0.412470	-0.082031	0.457031	0.410156	291	17_29_14_7641540
0.137695	-0.152344	0.770508	-0.862437	-0.721823	-0.403096	-0.117188	0.351563	0.410156	292	17_29_14_7802830
0.134766	-0.164063	0.758789	-0.853063	-0.721823	-0.403096	-0.175781	0.339844	0.433594	293	17_29_14_7964120
0.134766	-0.166992	0.758789	-0.853063	-0.721823	-0.403096	-0.164063	0.328125	0.433594	294	17_29_14_8125410
0.123047	-0.164063	0.758789	-0.862437	-0.721823	-0.403096	-0.152344	0.351563	0.468750	295	17_29_14_8286700
0.120117	-0.169922	0.761719	-0.853063	-0.712448	-0.403096	-0.152344	0.351563	0.457031	296	17_29_14_8447990
0.128906	-0.161133	0.758789	-0.843689	-0.721823	-0.403096	-0.140625	0.351563	0.445313	297	17_29_14_8609280
0.120117	-0.161133	0.770508	-0.862437	-0.731197	-0.403096	-0.117188	0.351563	0.410156	298	17_29_14_8770570
0.131836	-0.155273	0.758789	-0.862437	-0.721823	-0.403096	-0.140625	0.351563	0.386719	299	17_29_14_8931860
0.120117	-0.158203	0.764648	-0.853063	-0.721823	-0.403096	-0.164063	0.363281	0.421875	300	17_29_14_9093150
0.111328	-0.158203	0.767578	-0.862437	-0.721823	-0.403096	-0.175781	0.339844	0.433594	301	17_29_14_9254440
0.131836	-0.166992	0.761719	-0.862437	-0.731197	-0.403096	-0.175781	0.316406	0.398438	302	17_29_14_9415730
0.123047	-0.158203	0.750000	-0.853063	-0.712448	-0.403096	-0.128906	0.351563	0.386719	303	17_29_14_9577020
0.123047	-0.169922	0.758789	-0.853063	-0.721823	-0.403096	-0.152344	0.328125	0.421875	304	17_29_14_9738310
0.123047	-0.166992	0.758789	-0.862437	-0.731197	-0.403096	-0.140625	0.351563	0.457031	305	17_29_14_9899600
0.123047	-0.166992	0.761719	-0.862437	-0.731197	-0.403096	-0.128906	0.386719	0.433594	306	17_29_15_0060890
0.131836	-0.164063	0.764648	-0.853063	-0.721823	-0.403096	-0.152344	0.351563	0.468750	307	17_29_15_0222180
0.128906	-0.155273	0.758789	-0.853063	-0.721823	-0.403096	-0.152344	0.351563	0.492188	308	17_29_15_0383470
0.120117	-0.161133	0.758789	-0.853063	-0.712448	-0.403096	-0.152344	0.351563	0.445313	309	17_29_15_0544760
0.123047	-0.169922	0.758789	-0.862437	-0.721823	-0.412470	-0.105469	0.421875	0.468750	310	17_29_15_0706050
0.131836	-0.158203	0.758789	-0.853063	-0.712448	-0.403096	-0.187500	0.351563	0.421875	311	17_29_15_0867340
0.128906	-0.161133	0.761719	-0.853063	-0.721823	-0.403096	-0.175781	0.351563	0.386719	312	17_29_15_1028630
0.123047	-0.155273	0.752930	-0.853063	-0.721823	-0.403096	-0.187500	0.351563	0.410156	313	17_29_15_1189920
0.128906	-0.161133	0.755859	-0.862437	-0.721823	-0.403096	-0.175781	0.351563	0.445313	314	17_29_15_1351210
0.128906	-0.161133	0.761719	-0.843689	-0.721823	-0.403096	-0.164063	0.339844	0.468750	315	17_29_15_1512500
0.128906	-0.155273	0.758789	-0.862437	-0.731197	-0.403096	0.023438	0.667969	0.527344	316	17_29_15_1673790
0.125977	-0.152344	0.761719	-0.853063	-0.731197	-0.412470	-0.152344	0.328125	0.480469	317	17_29_15_1835080
0.120117	-0.155273	0.761719	-0.853063	-0.731197	-0.403096	-0.152344	0.351563	0.410156	318	17_29_15_1996370
0.137695	-0.158203	0.764648	-0.853063	-0.731197	-0.403096	-0.152344	0.351563	0.386719	319	17_29_15_2157660
0.131836	-0.158203	0.758789	-0.862437	-0.731197	-0.412470	-0.152344	0.351563	0.421875	320	17_29_15_2318950
0.134766	-0.161133	0.758789	-0.853063	-0.721823	-0.412470	-0.152344	0.339844	0.398438	321	17_29_15_2480240
0.128906	-0.158203	0.761719	-0.853063	-0.721823	-0.403096	-0.187500	0.339844	0.375000	322	17_29_15_2641530
0.128906	-0.166992	0.761719	-0.862437	-0.721823	-0.403096	-0.140625	0.351563	0.421875	323	17_29_15_2802820
0.125977	-0.152344	0.767578	-0.853063	-0.721823	-0.403096	-0.152344	0.351563	0.421875	324	17_29_15_2964110
0.123047	-0.166992	0.758789	-0.853063	-0.721823	-0.403096	-0.070313	0.468750	0.457031	325	17_29_15_3125400
0.125977	-0.164063	0.761719	-0.853063	-0.721823	-0.403096	-0.152344	0.351563	0.457031	326	17_29_15_3286690
0.128906	-0.158203	0.758789	-0.853063	-0.721823	-0.403096	-0.152344	0.351563	0.421875	327	17_29_15_3447980
0.134766	-0.161133	0.761719	-0.862437	-0.721823	-0.403096	-0.105469	0.398438	0.433594	328	17_29_15_3609270
0.134766	-0.161133	0.767578	-0.862437	-0.721823	-0.403096	-0.117188	0.421875	0.433594	329	17_29_15_3770560
0.128906	-0.155273	0.761719	-0.862437	-0.731197	-0.403096	-0.152344	0.351563	0.421875	330	17_29_15_3931850
0.131836	-0.155273	0.758789	-0.862437	-0.721823	-0.403096	-0.152344	0.351563	0.421875	331	17_29_15_4093140
0.117188	-0.164063	0.758789	-0.853063	-0.721823	-0.403096	-0.140625	0.339844	0.410156	332	17_29_15_4254430
0.128906	-0.152344	0.761719	-0.853063	-0.721823	-0.403096	-0.175781	0.339844	0.468750	333	17_29_15_4415720
0.123047	-0.152344	0.761719	-0.853063	-0.731197	-0.403096	-0.152344	0.351563	0.445313	334	17_29_15_4577010
0.134766	-0.161133	0.755859	-0.843689	-0.721823	-0.403096	-0.152344	0.351563	0.433594	335	17_29_15_4738300
0.134766	-0.158203	0.758789	-0.853063	-0.731197	-0.412470	0.046875	0.609375	0.515625	336	17_29_15_4899590
0.120117	-0.158203	0.761719	-0.862437	-0.721823	-0.403096	-0.152344	0.351563	0.480469	337	17_29_15_5060880
0.128906	-0.164063	0.758789	-0.853063	-0.731197	-0.403096	-0.152344	0.351563	0.445313	338	17_29_15_5222170
0.131836	-0.161133	0.758789	-0.862437	-0.721823	-0.403096	-0.187500	0.316406	0.445313	339	17_29_15_5383460
0.128906	-0.155273	0.758789	-0.853063	-0.731197	-0.403096	-0.164063	0.351563	0.457031	340	17_29_15_5544750
0.120117	-0.164063	0.758789	-0.862437	-0.731197	-0.403096	-0.175781	0.351563	0.445313	341	17_29_15_5706040
0.120117	-0.161133	0.761719	-0.853063	-0.721823	-0.403096	-0.164063	0.351563	0.421875	342	17_29_15_5867330
0.125977	-0.152344	0.761719	-0.862437	-0.731197	-0.403096	-0.175781	0.351563	0.468750	343	17_29_15_6028620
0.131836	-0.152344	0.755859	-0.853063	-0.731197	-0.403096	-0.152344	0.351563	0.468750	344	17_29_15_6189910
0.128906	-0.152344	0.761719	-0.862437	-0.721823	-0.403096	-0.152344	0.351563	0.433594	345	17_29_15_6351200
0.128906	-0.158203	0.758789	-0.853063	-0.721823	-0.403096	-0.128906	0.351563	0.468750	346	17_29_15_6512490
0.131836	-0.155273	0.761719	-0.853063	-0.731197	-0.403096	-0.152344	0.351563	0.433594	347	17_29_15_6673780
0.134766	-0.155273	0.758789	-0.862437	-0.731197	-0.403096	-0.187500	0.351563	0.410156	348	17_29_15_6835070
0.120117	-0.158203	0.758789	-0.862437	-0.721823	-0.403096	-0.187500	0.351563	0.445313	349	17_29_15_6996360
0.137695	-0.158203	0.761719	-0.853063	-0.721823	-0.403096	-0.128906	0.339844	0.410156	350	17_29_15_7157650
0.125977	-0.158203	0.764648	-0.853063	-0.731197	-0.403096	-0.128906	0.316406	0.421875	351	17_29_15_7318940
0.125977	-0.161133	0.761719	-0.862437	-0.721823	-0.412470	-0.117188	0.433594	0.445313	352	17_29_15_7480230
0.123047	-0.155273	0.761719	-0.862437	-0.721823	-0.403096	-0.152344	0.339844	0.503906	353	17_29_15_7641520
0.128906	-0.169922	0.758789	-0.853063	-0.731197	-0.403096	-0.152344	0.351563	0.480469	354	17_29_15_7802810
0.131836	-0.169922	0.758789	-0.862437	-0.731197	-0.403096	-0.187500	0.351563	0.480469	355	17_29_15_7964100
0.134766	-0.158203	0.767578	-0.853063	-0.721823	-0.403096	-0.164063	0.339844	0.527344	356	17_29_15_8125390
0.114258	-0.164063	0.758789	-0.853063	-0.721823	-0.403096	-0.152344	0.339844	0.468750	357	17_29_15_8286680
0.123047	-0.161133	0.755859	-0.853063	-0.721823	-0.403096	-0.152344	0.316406	0.445313	358	17_29_15_8447970
0.131836	-0.161133	0.752930	-0.862437	-0.721823	-0.403096	-0.152344	0.339844	0.457031	359	17_29_15_8609260
0.123047	-0.158203	0.752930	-0.853063	-0.721823	-0.403096	-0.140625	0.304688	0.421875	360	17_29_15_8770550
0.125977	-0.155273	0.758789	-0.853063	-0.721823	-0.403096	-0.152344	0.339844	0.386719	361	17_29_15_8931840
0.143555	-0.166992	0.764648	-0.862437	-0.731197	-0.403096	-0.164063	0.351563	0.398438	362	17_29_15_9093130
0.128906	-0.152344	0.764648	-0.853063	-0.731197	-0.403096	-0.175781	0.351563	0.468750	363	17_29_15_9254420
0.128906	-0.158203	0.764648	-0.862437	-0.721823	-0.403096	-0.152344	0.339844	0.515625	364	17_29_15_9415710
0.134766	-0.155273	0.761719	-0.862437	-0.721823	-0.403096	-0.128906	0.351563	0.492188	365	17_29_15_9577000
0.120117	-0.155273	0.767578	-0.843689	-0.712448	-0.403096	-0.128906	0.363281	0.457031	366	17_29_15_9738290
0.134766	-0.155273	0.761719	-0.853063	-0.721823	-0.403096	-0.152344	0.351563	0.457031	367	17_29_15_9899580
0.131836	-0.158203	0.761719	-0.843689	-0.721823	-0.403096	-0.164063	0.363281	0.445313	368	17_29_16_0060870
0.128906	-0.164063	0.758789	-0.853063	-0.721823	-0.403096	-0.152344	0.339844	0.457031	369	17_29_16_0222160
0.137695	-0.155273	0.758789	-0.853063	-0.721823	-0.403096	-0.175781	0.328125	0.445313	370	17_29_16_0383450
0.131836	-0.166992	0.758789	-0.853063	-0.721823	-0.403096	-0.152344	0.386719	0.457031	371	17_29_16_0544740
0.134766	-0.149414	0.770508	-0.862437	-0.721823	-0.403096	-0.164063	0.328125	0.468750	372	17_29_16_0706030
0.134766	-0.164063	0.752930	-0.853063	-0.721823	-0.403096	-0.082031	0.457031	0.421875	373	17_29_16_0867320
0.123047	-0.155273	0.755859	-0.853063	-0.721823	-0.403096	-0.152344	0.351563	0.386719	374	17_29_16_1028610
0.131836	-0.161133	0.758789	-0.862437	-0.721823	-0.403096	-0.152344	0.351563	0.410156	375	17_29_16_1189900
0.128906	-0.161133	0.758789	-0.862437	-0.721823	-0.403096	-0.152344	0.351563	0.480469	376	17_29_16_1351190
0.125977	-0.164063	0.752930	-0.843689	-0.721823	-0.403096	-0.152344	0.351563	0.468750	377	17_29_16_1512480
0.128906	-0.158203	0.764648	-0.862437	-0.721823	-0.403096	0.035156	0.714844	0.410156	378	17_29_16_1673770
0.140625	-0.152344	0.758789	-0.862437	-0.731197	-0.403096	0.023438	0.773438	0.421875	379	17_29_16_1835060
0.131836	-0.164063	0.761719	-0.853063	-0.731197	-0.403096	-0.152344	0.351563	0.410156	380	17_29_16_1996350
0.140625	-0.164063	0.761719	-0.862437	-0.731197	-0.403096	-0.152344	0.351563	0.375000	381	17_29_16_2157640
0.137695	-0.161133	0.764648	-0.862437	-0.721823	-0.403096	-0.082031	0.421875	0.339844	382	17_29_16_2318930
0.131836	-0.166992	0.767578	-0.862437	-0.721823	-0.403096	-0.082031	0.445313	0.386719	383	17_29_16_2480220
0.134766	-0.164063	0.758789	-0.862437	-0.731197	-0.403096	-0.152344	0.351563	0.457031	384	17_29_16_2641510
0.128906	-0.158203	0.758789	-0.853063	-0.721823	-0.412470	-0.152344	0.351563	0.445313	385	17_29_16_2802800
0.131836	-0.158203	0.752930	-0.853063	-0.721823	-0.403096	-0.035156	0.527344	0.468750	386	17_29_16_2964090
0.134766	-0.158203	0.758789	-0.862437	-0.721823	-0.403096	-0.152344	0.363281	0.492188	387	17_29_16_3125380
0.134766	-0.161133	0.755859	-0.853063	-0.721823	-0.403096	-0.128906	0.351563	0.457031	388	17_29_16_3286670
0.134766	-0.161133	0.758789	-0.843689	-0.721823	-0.403096	-0.140625	0.351563	0.421875	389	17_29_16_3447960
0.125977	-0.169922	0.752930	-0.862437	-0.721823	-0.403096	-0.011719	0.750000	0.421875	390	17_29_16_3609250
0.131836	-0.146484	0.758789	-0.853063	-0.731197	-0.403096	-0.187500	0.351563	0.468750	391	17_29_16_3770540
0.140625	-0.164063	0.758789	-0.843689	-0.731197	-0.403096	-0.140625	0.351563	0.503906	392	17_29_16_3931830
0.131836	-0.155273	0.761719	-0.843689	-0.731197	-0.403096	-0.152344	0.328125	0.480469	393	17_29_16_4093120
0.134766	-0.161133	0.758789	-0.853063	-0.721823	-0.403096	-0.164063	0.351563	0.386719	394	17_29_16_4254410
0.131836	-0.164063	0.758789	-0.853063	-0.721823	-0.412470	-0.140625	0.339844	0.410156	395	17_29_16_4415700
0.134766	-0.164063	0.758789	-0.862437	-0.731197	-0.403096	-0.058594	0.515625	0.503906	396	17_29_16_4576990
0.137695	-0.155273	0.761719	-0.853063	-0.721823	-0.403096	-0.175781	0.351563	0.445313	397	17_29_16_4738280
0.128906	-0.158203	0.758789	-0.843689	-0.731197	-0.403096	-0.175781	0.328125	0.375000	398	17_29_16_4899570
0.128906	-0.158203	0.761719	-0.853063	-0.721823	-0.403096	-0.152344	0.351563	0.410156	399	17_29_16_5060860
0.125977	-0.152344	0.752930	-0.871812	-0.731197	-0.403096	0.011719	0.726563	0.539063	400	17_29_16_5222150
0.140625	-0.164063	0.758789	-0.862437	-0.731197	-0.403096	-0.128906	0.667969	0.468750	401	17_29_16_5383440
0.125977	-0.161133	0.752930	-0.853063	-0.731197	-0.403096	-0.152344	0.351563	0.410156	402	17_29_16_5544730
0.123047	-0.158203	0.758789	-0.853063	-0.721823	-0.403096	-0.199219	0.339844	0.386719	403	17_29_16_5706020
0.128906	-0.161133	0.764648	-0.862437	-0.731197	-0.403096	-0.117188	0.363281	0.421875	404	17_29_16_5867310
0.131836	-0.155273	0.764648	-0.843689	-0.731197	-0.403096	-0.128906	0.351563	0.480469	405	17_29_16_6028600
0.125977	-0.152344	0.758789	-0.853063	-0.721823	-0.412470	-0.152344	0.351563	0.468750	406	17_29_16_6189890
0.123047	-0.161133	0.752930	-0.853063	-0.721823	-0.403096	-0.152344	0.363281	0.445313	407	17_29_16_6351180
0.128906	-0.158203	0.764648	-0.862437	-0.731197	-0.403096	-0.152344	0.363281	0.445313	408	17_29_16_6512470
0.128906	-0.158203	0.752930	-0.853063	-0.731197	-0.403096	-0.128906	0.351563	0.433594	409	17_29_16_6673760
0.134766	-0.158203	0.752930	-0.853063	-0.731197	-0.403096	-0.140625	0.351563	0.433594	410	17_29_16_6835050
0.140625	-0.164063	0.758789	-0.862437	-0.721823	-0.403096	-0.164063	0.363281	0.492188	411	17_29_16_6996340
0.134766	-0.158203	0.758789	-0.853063	-0.721823	-0.403096	-0.199219	0.351563	0.445313	412	17_29_16_7157630
0.131836	-0.158203	0.770508	-0.853063	-0.731197	-0.403096	-0.140625	0.351563	0.398438	413	17_29_16_7318920
0.120117	-0.164063	0.758789	-0.862437	-0.731197	-0.403096	-0.093750	0.433594	0.468750	414	17_29_16_7480210
0.125977	-0.161133	0.761719	-0.853063	-0.721823	-0.403096	-0.187500	0.363281	0.457031	415	17_29_16_7641500
0.140625	-0.169922	0.758789	-0.862437	-0.721823	-0.403096	-0.152344	0.351563	0.457031	416	17_29_16_7802790
0.140625	-0.158203	0.755859	-0.862437	-0.721823	-0.412470	-0.140625	0.363281	0.433594	417	17_29_16_7964080
0.128906	-0.158203	0.750000	-0.862437	-0.721823	-0.403096	-0.164063	0.351563	0.386719	418	17_29_16_8125370
0.137695	-0.164063	0.758789	-0.862437	-0.721823	-0.403096	-0.140625	0.375000	0.410156	419	17_29_16_8286660
0.134766	-0.155273	0.758789	-0.853063	-0.721823	-0.403096	-0.152344	0.339844	0.421875	420	17_29_16_8447950
0.120117	-0.152344	0.761719	-0.862437	-0.712448	-0.403096	-0.140625	0.328125	0.421875	421	17_29_16_8609240
0.134766	-0.161133	0.758789	-0.853063	-0.721823	-0.403096	-0.152344	0.351563	0.457031	422	17_29_16_8770530
0.125977	-0.152344	0.758789	-0.853063	-0.721823	-0.403096	-0.128906	0.410156	0.457031	423	17_29_16_8931820
0.123047	-0.161133	0.764648	-0.843689	-0.712448	-0.403096	-0.164063	0.328125	0.421875	424	17_29_16_9093110
0.134766	-0.158203	0.758789	-0.853063	-0.721823	-0.403096	-0.140625	0.351563	0.433594	425	17_29_16_9254400
0.125977	-0.158203	0.758789	-0.853063	-0.721823	-0.403096	-0.164063	0.328125	0.445313	426	17_29_16_9415690
0.131836	-0.158203	0.761719	-0.853063	-0.721823	-0.403096	-0.152344	0.328125	0.492188	427	17_29_16_9576980
0.128906	-0.164063	0.758789	-0.862437	-0.721823	-0.403096	-0.140625	0.363281	0.480469	428	17_29_16_9738270
0.131836	-0.149414	0.770508	-0.853063	-0.721823	-0.403096	-0.152344	0.339844	0.468750	429	17_29_16_9899560
0.128906	-0.172852	0.758789	-0.853063	-0.721823	-0.403096	-0.152344	0.328125	0.480469	430	17_29_17_0060850
0.131836	-0.155273	0.758789	-0.853063	-0.721823	-0.403096	-0.164063	0.328125	0.445313	431	17_29_17_0222140
0.128906	-0.164063	0.761719	-0.853063	-0.712448	-0.403096	-0.152344	0.351563	0.457031	432	17_29_17_0383430
0.123047	-0.158203	0.752930	-0.853063	-0.721823	-0.403096	-0.152344	0.351563	0.433594	433	17_29_17_0544720
0.131836	-0.161133	0.758789	-0.853063	-0.721823	-0.403096	-0.152344	0.339844	0.433594	434	17_29_17_0706010
0.131836	-0.164063	0.758789	-0.853063	-0.721823	-0.403096	-0.140625	0.351563	0.457031	435	17_29_17_0867300
0.137695	-0.161133	0.761719	-0.862437	-0.721823	-0.403096	-0.164063	0.304688	0.421875	436	17_29_17_1028590
0.128906	-0.158203	0.764648	-0.853063	-0.721823	-0.403096	-0.128906	0.292969	0.386719	437	17_29_17_1189880
0.125977	-0.158203	0.761719	-0.853063	-0.721823	-0.403096	-0.152344	0.292969	0.445313	438	17_29_17_1351170
0.123047	-0.152344	0.758789	-0.853063	-0.721823	-0.403096	-0.152344	0.351563	0.457031	439	17_29_17_1512460
0.134766	-0.161133	0.758789	-0.853063	-0.721823	-0.403096	-0.140625	0.351563	0.386719	440	17_29_17_1673750
0.125977	-0.155273	0.761719	-0.853063	-0.721823	-0.403096	-0.164063	0.339844	0.398438	441	17_29_17_1835040
0.134766	-0.149414	0.752930	-0.853063	-0.721823	-0.403096	-0.152344	0.351563	0.445313	442	17_29_17_1996330
0.140625	-0.146484	0.767578	-0.853063	-0.731197	-0.403096	-0.152344	0.351563	0.421875	443	17_29_17_2157620
0.134766	-0.155273	0.764648	-0.853063	-0.721823	-0.403096	-0.152344	0.351563	0.363281	444	17_29_17_2318910
0.131836	-0.158203	0.750000	-0.853063	-0.721823	-0.412470	-0.152344	0.375000	0.410156	445	17_29_17_2480200
0.123047	-0.152344	0.758789	-0.853063	-0.721823	-0.403096	-0.187500	0.351563	0.480469	446	17_29_17_2641490
0.140625	-0.158203	0.758789	-0.853063	-0.721823	-0.403096	-0.187500	0.351563	0.457031	447	17_29_17_2802780
0.134766	-0.169922	0.758789	-0.853063	-0.721823	-0.403096	-0.140625	0.363281	0.445313	448	17_29_17_2964070
0.128906	-0.164063	0.761719	-0.853063	-0.731197	-0.403096	-0.187500	0.351563	0.468750	449	17_29_17_3125360
0.120117	-0.158203	0.758789	-0.862437	-0.731197	-0.412470	-0.175781	0.351563	0.457031	450	17_29_17_3286650
0.137695	-0.161133	0.758789	-0.853063	-0.731197	-0.403096	-0.152344	0.339844	0.445313	451	17_29_17_3447940
0.134766	-0.164063	0.752930	-0.853063	-0.731197	-0.403096	-0.164063	0.328125	0.457031	452	17_29_17_3609230
0.140625	-0.164063	0.761719	-0.853063	-0.721823	-0.403096	-0.152344	0.339844	0.410156	453	17_29_17_3770520
0.131836	-0.169922	0.752930	-0.853063	-0.731197	-0.403096	-0.152344	0.328125	0.410156	454	17_29_17_3931810
0.134766	-0.158203	0.761719	-0.853063	-0.721823	-0.403096	-0.140625	0.328125	0.421875	455	17_29_17_4093100
0.131836	-0.158203	0.764648	-0.853063	-0.721823	-0.403096	-0.164063	0.316406	0.398438	456	17_29_17_4254390
0.131836	-0.158203	0.755859	-0.853063	-0.721823	-0.403096	-0.187500	0.339844	0.457031	457	17_29_17_4415680
0.131836	-0.158203	0.758789	-0.862437	-0.721823	-0.412470	-0.128906	0.328125	0.480469	458	17_29_17_4576970
0.120117	-0.152344	0.752930	-0.862437	-0.731197	-0.403096	0.011719	0.562500	0.398438	459	17_29_17_4738260
0.128906	-0.164063	0.758789	-0.853063	-0.721823	-0.403096	-0.152344	0.351563	0.433594	460	17_29_17_4899550
0.134766	-0.158203	0.750000	-0.862437	-0.721823	-0.403096	0.093750	0.667969	0.457031	461	17_29_17_5060840
0.131836	-0.161133	0.764648	-0.862437	-0.721823	-0.403096	-0.164063	0.328125	0.433594	462	17_29_17_5222130
0.123047	-0.158203	0.758789	-0.862437	-0.721823	-0.403096	-0.128906	0.386719	0.410156	463	17_29_17_5383420
0.123047	-0.164063	0.764648	-0.862437	-0.731197	-0.403096	-0.152344	0.539063	0.351563	464	17_29_17_5544710
0.131836	-0.164063	0.758789	-0.862437	-0.731197	-0.403096	-0.140625	0.351563	0.398438	465	17_29_17_5706000
0.128906	-0.169922	0.758789	-0.862437	-0.731197	-0.403096	-0.093750	0.433594	0.468750	466	17_29_17_5867290
0.128906	-0.152344	0.761719	-0.853063	-0.731197	-0.403096	-0.152344	0.351563	0.468750	467	17_29_17_6028580
0.134766	-0.155273	0.770508	-0.862437	-0.731197	-0.403096	-0.152344	0.351563	0.421875	468	17_29_17_6189870
0.128906	-0.155273	0.750000	-0.853063	-0.731197	-0.403096	-0.152344	0.351563	0.421875	469	17_29_17_6351160
0.134766	-0.158203	0.761719	-0.853063	-0.721823	-0.412470	-0.152344	0.351563	0.433594	470	17_29_17_6512450
0.123047	-0.158203	0.761719	-0.853063	-0.721823	-0.403096	-0.152344	0.328125	0.398438	471	17_29_17_6673740
0.128906	-0.158203	0.758789	-0.853063	-0.721823	-0.403096	-0.140625	0.351563	0.457031	472	17_29_17_6835030
0.123047	-0.158203	0.761719	-0.853063	-0.721823	-0.403096	-0.152344	0.351563	0.480469	473	17_29_17_6996320
0.123047	-0.158203	0.761719	-0.862437	-0.731197	-0.403096	-0.152344	0.351563	0.457031	474	17_29_17_7157610
0.120117	-0.158203	0.755859	-0.862437	-0.721823	-0.403096	-0.164063	0.339844	0.539063	475	17_29_17_7318900
0.120117	-0.155273	0.750000	-0.853063	-0.721823	-0.403096	-0.164063	0.339844	0.597656	476	17_29_17_7480190
0.134766	-0.155273	0.758789	-0.853063	-0.731197	-0.403096	-0.152344	0.351563	0.515625	477	17_29_17_7641480
0.131836	-0.152344	0.761719	-0.853063	-0.731197	-0.403096	-0.152344	0.351563	0.457031	478	17_29_17_7802770
0.125977	-0.166992	0.758789	-0.853063	-0.731197	-0.412470	-0.140625	0.351563	0.515625	479	17_29_17_7964060
0.131836	-0.161133	0.761719	-0.862437	-0.721823	-0.403096	-0.152344	0.351563	0.503906	480	17_29_17_8125350
0.131836	-0.161133	0.758789	-0.862437	-0.731197	-0.403096	-0.152344	0.351563	0.457031	481	17_29_17_8286640
0.123047	-0.161133	0.758789	-0.843689	-0.721823	-0.412470	-0.152344	0.351563	0.480469	482	17_29_17_8447930
0.128906	-0.166992	0.758789	-0.853063	-0.731197	-0.412470	-0.152344	0.351563	0.468750	483	17_29_17_8609220
0.128906	-0.161133	0.761719	-0.862437	-0.721823	-0.403096	-0.164063	0.351563	0.433594	484	17_29_17_8770510
0.128906	-0.161133	0.752930	-0.853063	-0.731197	-0.403096	-0.152344	0.351563	0.421875	485	17_29_17_8931800
0.134766	-0.158203	0.758789	-0.853063	-0.731197	-0.403096	-0.152344	0.339844	0.457031	486	17_29_17_9093090
0.134766	-0.158203	0.758789	-0.862437	-0.731197	-0.403096	-0.164063	0.351563	0.445313	487	17_29_17_9254380
0.125977	-0.155273	0.758789	-0.862437	-0.731197	-0.403096	-0.152344	0.351563	0.386719	488	17_29_17_9415670
0.123047	-0.155273	0.750000	-0.862437	-0.721823	-0.412470	-0.046875	0.492188	0.410156	489	17_29_17_9576960
0.134766	-0.161133	0.758789	-0.853063	-0.731197	-0.403096	-0.152344	0.328125	0.445313	490	17_29_17_9738250
0.131836	-0.166992	0.764648	-0.853063	-0.731197	-0.403096	-0.152344	0.339844	0.457031	491	17_29_17_9899540
0.128906	-0.164063	0.764648	-0.862437	-0.731197	-0.403096	-0.140625	0.351563	0.457031	492	17_29_18_0060830
0.134766	-0.158203	0.764648	-0.853063	-0.731197	-0.403096	-0.152344	0.351563	0.421875	493	17_29_18_0222120
0.131836	-0.152344	0.764648	-0.862437	-0.731197	-0.403096	-0.093750	0.714844	0.398438	494	17_29_18_0383410
0.134766	-0.164063	0.758789	-0.853063	-0.731197	-0.403096	-0.199219	0.351563	0.433594	495	17_29_18_0544700
0.128906	-0.161133	0.758789	-0.853063	-0.731197	-0.403096	-0.152344	0.339844	0.468750	496	17_29_18_0705990
0.131836	-0.164063	0.758789	-0.853063	-0.731197	-0.403096	-0.152344	0.339844	0.433594	497	17_29_18_0867280
0.134766	-0.155273	0.770508	-0.853063	-0.721823	-0.412470	-0.152344	0.351563	0.445313	498	17_29_18_1028570
0.131836	-0.158203	0.761719	-0.862437	-0.731197	-0.403096	-0.152344	0.351563	0.468750	499	17_29_18_1189860
0.134766	-0.166992	0.755859	-0.862437	-0.721823	-0.403096	-0.152344	0.351563	0.445313	500	17_29_18_1351150
0.123047	-0.161133	0.758789	-0.853063	-0.731197	-0.403096	-0.175781	0.351563	0.433594	501	17_29_18_1512440
0.131836	-0.158203	0.764648	-0.853063	-0.721823	-0.403096	-0.140625	0.351563	0.421875	502	17_29_18_1673730
0.128906	-0.161133	0.758789	-0.862437	-0.731197	-0.403096	-0.152344	0.351563	0.398438	503	17_29_18_1835020
0.131836	-0.161133	0.761719	-0.862437	-0.731197	-0.403096	-0.140625	0.339844	0.363281	504	17_29_18_1996310
0.128906	-0.152344	0.764648	-0.853063	-0.731197	-0.403096	-0.152344	0.292969	0.410156	505	17_29_18_2157600
0.140625	-0.164063	0.752930	-0.853063	-0.731197	-0.403096	-0.140625	0.304688	0.445313	506	17_29_18_2318890
0.128906	-0.152344	0.770508	-0.853063	-0.731197	-0.412470	-0.164063	0.351563	0.421875	507	17_29_18_2480180
0.125977	-0.155273	0.770508	-0.853063	-0.731197	-0.403096	-0.164063	0.351563	0.421875	508	17_29_18_2641470
0.134766	-0.146484	0.770508	-0.853063	-0.731197	-0.403096	-0.070313	0.457031	0.457031	509	17_29_18_2802760
0.120117	-0.158203	0.764648	-0.853063	-0.721823	-0.412470	-0.152344	0.339844	0.445313	510	17_29_18_2964050
0.123047	-0.155273	0.761719	-0.843689	-0.721823	-0.403096	-0.152344	0.363281	0.457031	511	17_29_18_3125340
0.125977	-0.164063	0.758789	-0.853063	-0.731197	-0.403096	-0.164063	0.351563	0.457031	512	17_29_18_3286630
0.134766	-0.149414	0.758789	-0.862437	-0.721823	-0.403096	-0.152344	0.351563	0.457031	513	17_29_18_3447920
0.131836	-0.158203	0.764648	-0.853063	-0.731197	-0.403096	-0.011719	0.750000	0.433594	514	17_29_18_3609210
0.128906	-0.149414	0.764648	-0.853063	-0.731197	-0.403096	-0.152344	0.351563	0.421875	515	17_29_18_3770500
0.128906	-0.158203	0.764648	-0.853063	-0.731197	-0.403096	-0.152344	0.351563	0.550781	516	17_29_18_3931790
0.131836	-0.158203	0.761719	-0.862437	-0.731197	-0.412470	-0.164063	0.351563	0.527344	517	17_29_18_4093080
0.131836	-0.155273	0.761719	-0.843689	-0.731197	-0.403096	-0.140625	0.339844	0.410156	518	17_29_18_4254370
0.128906	-0.161133	0.767578	-0.853063	-0.731197	-0.403096	-0.140625	0.328125	0.421875	519	17_29_18_4415660
0.134766	-0.158203	0.761719	-0.862437	-0.721823	-0.412470	-0.140625	0.328125	0.421875	520	17_29_18_4576950
0.120117	-0.161133	0.761719	-0.862437	-0.721823	-0.403096	-0.152344	0.328125	0.386719	521	17_29_18_4738240
0.134766	-0.158203	0.758789	-0.853063	-0.721823	-0.403096	-0.140625	0.351563	0.421875	522	17_29_18_4899530
0.128906	-0.161133	0.761719	-0.853063	-0.731197	-0.403096	-0.187500	0.339844	0.503906	523	17_29_18_5060820
0.128906	-0.158203	0.758789	-0.853063	-0.731197	-0.403096	-0.152344	0.363281	0.539063	524	17_29_18_5222110
0.131836	-0.155273	0.761719	-0.843689	-0.721823	-0.403096	-0.152344	0.351563	0.503906	525	17_29_18_5383400
0.134766	-0.149414	0.758789	-0.853063	-0.731197	-0.403096	-0.152344	0.339844	0.468750	526	17_29_18_5544690
0.128906	-0.166992	0.764648	-0.862437	-0.731197	-0.403096	-0.175781	0.363281	0.457031	527	17_29_18_5705980
0.114258	-0.152344	0.752930	-0.862437	-0.731197	-0.403096	-0.152344	0.363281	0.492188	528	17_29_18_5867270
0.128906	-0.164063	0.747070	-0.853063	-0.731197	-0.403096	-0.152344	0.339844	0.457031	529	17_29_18_6028560
0.131836	-0.149414	0.752930	-0.853063	-0.731197	-0.403096	-0.175781	0.339844	0.375000	530	17_29_18_6189850
0.123047	-0.161133	0.761719	-0.862437	-0.731197	-0.403096	-0.046875	0.503906	0.375000	531	17_29_18_6351140
0.131836	-0.149414	0.758789	-0.862437	-0.721823	-0.403096	0.058594	0.632813	0.421875	532	17_29_18_6512430
0.134766	-0.149414	0.761719	-0.853063	-0.721823	-0.403096	-0.152344	0.351563	0.433594	533	17_29_18_6673720
0.131836	-0.158203	0.764648	-0.862437	-0.731197	-0.403096	-0.140625	0.351563	0.445313	534	17_29_18_6835010
0.131836	-0.169922	0.764648	-0.853063	-0.731197	-0.403096	-0.187500	0.351563	0.468750	535	17_29_18_6996300
0.131836	-0.158203	0.761719	-0.862437	-0.731197	-0.403096	-0.152344	0.328125	0.410156	536	17_29_18_7157590
0.131836	-0.164063	0.758789	-0.862437	-0.721823	-0.403096	-0.152344	0.492188	0.375000	537	17_29_18_7318880
0.120117	-0.161133	0.755859	-0.862437	-0.721823	-0.403096	-0.152344	0.339844	0.433594	538	17_29_18_7480170
0.125977	-0.166992	0.761719	-0.862437	-0.731197	-0.403096	-0.152344	0.351563	0.457031	539	17_29_18_7641460
0.134766	-0.158203	0.767578	-0.853063	-0.721823	-0.403096	-0.152344	0.351563	0.421875	540	17_29_18_7802750
0.128906	-0.152344	0.761719	-0.853063	-0.731197	-0.403096	-0.152344	0.351563	0.421875	541	17_29_18_7964040
0.131836	-0.158203	0.758789	-0.853063	-0.721823	-0.403096	-0.152344	0.351563	0.421875	542	17_29_18_8125330
0.128906	-0.161133	0.755859	-0.862437	-0.731197	-0.403096	-0.152344	0.339844	0.468750	543	17_29_18_8286620
0.128906	-0.169922	0.758789	-0.853063	-0.731197	-0.403096	-0.058594	0.492188	0.480469	544	17_29_18_8447910
0.125977	-0.161133	0.758789	-0.853063	-0.721823	-0.403096	-0.164063	0.351563	0.457031	545	17_29_18_8609200
0.123047	-0.161133	0.761719	-0.853063	-0.731197	-0.403096	-0.175781	0.351563	0.457031	546	17_29_18_8770490
0.131836	-0.155273	0.761719	-0.862437	-0.721823	-0.403096	-0.152344	0.339844	0.492188	547	17_29_18_8931780
0.128906	-0.158203	0.764648	-0.853063	-0.731197	-0.412470	-0.152344	0.328125	0.503906	548	17_29_18_9093070
0.123047	-0.158203	0.767578	-0.862437	-0.731197	-0.403096	-0.152344	0.351563	0.410156	549	17_29_18_9254360
0.137695	-0.152344	0.761719	-0.853063	-0.731197	-0.403096	-0.152344	0.351563	0.410156	550	17_29_18_9415650
0.134766	-0.155273	0.752930	-0.862437	-0.731197	-0.412470	-0.035156	0.515625	0.457031	551	17_29_18_9576940
0.128906	-0.158203	0.758789	-0.853063	-0.721823	-0.403096	-0.140625	0.351563	0.433594	552	17_29_18_9738230
0.131836	-0.158203	0.767578	-0.853063	-0.721823	-0.403096	-0.128906	0.351563	0.410156	553	17_29_18_9899520
0.123047	-0.155273	0.761719	-0.862437	-0.731197	-0.403096	-0.152344	0.339844	0.398438	554	17_29_19_0060810
0.134766	-0.152344	0.761719	-0.853063	-0.721823	-0.403096	-0.152344	0.351563	0.480469	555	17_29_19_0222100
0.131836	-0.155273	0.761719	-0.862437	-0.721823	-0.403096	-0.140625	0.386719	0.515625	556	17_29_19_0383390
0.125977	-0.158203	0.755859	-0.853063	-0.721823	-0.403096	-0.164063	0.316406	0.503906	557	17_29_19_0544680
0.128906	-0.152344	0.752930	-0.853063	-0.731197	-0.403096	-0.152344	0.339844	0.480469	558	17_29_19_0705970
0.123047	-0.158203	0.761719	-0.862437	-0.721823	-0.412470	-0.105469	0.386719	0.468750	559	17_29_19_0867260
0.137695	-0.158203	0.770508	-0.862437	-0.721823	-0.403096	-0.070313	0.468750	0.468750	560	17_29_19_1028550
0.137695	-0.161133	0.764648	-0.853063	-0.721823	-0.403096	-0.140625	0.351563	0.480469	561	17_29_19_1189840
0.125977	-0.164063	0.764648	-0.843689	-0.721823	-0.403096	-0.152344	0.339844	0.492188	562	17_29_19_1351130
0.125977	-0.155273	0.764648	-0.862437	-0.721823	-0.403096	-0.152344	0.328125	0.480469	563	17_29_19_1512420
0.128906	-0.158203	0.755859	-0.853063	-0.721823	-0.403096	-0.152344	0.351563	0.457031	564	17_29_19_1673710
0.140625	-0.161133	0.761719	-0.853063	-0.721823	-0.403096	-0.035156	0.480469	0.457031	565	17_29_19_1835000
0.128906	-0.161133	0.758789	-0.853063	-0.721823	-0.403096	-0.152344	0.328125	0.421875	566	17_29_19_1996290
0.123047	-0.169922	0.761719	-0.853063	-0.721823	-0.403096	-0.152344	0.351563	0.398438	567	17_29_19_2157580
0.128906	-0.164063	0.755859	-0.843689	-0.721823	-0.403096	-0.175781	0.351563	0.410156	568	17_29_19_2318870
0.123047	-0.155273	0.761719	-0.853063	-0.721823	-0.403096	-0.152344	0.351563	0.386719	569	17_29_19_2480160
0.131836	-0.149414	0.764648	-0.862437	-0.721823	-0.403096	-0.152344	0.351563	0.433594	570	17_29_19_2641450
0.128906	-0.164063	0.758789	-0.853063	-0.721823	-0.403096	-0.152344	0.351563	0.480469	571	17_29_19_2802740
0.125977	-0.152344	0.758789	-0.843689	-0.731197	-0.403096	-0.152344	0.351563	0.445313	572	17_29_19_2964030
0.137695	-0.161133	0.761719	-0.853063	-0.731197	-0.403096	-0.152344	0.339844	0.375000	573	17_29_19_3125320
0.134766	-0.164063	0.761719	-0.862437	-0.731197	-0.403096	-0.011719	0.527344	0.398438	574	17_29_19_3286610
0.117188	-0.161133	0.752930	-0.862437	-0.721823	-0.403096	0.035156	0.609375	0.445313	575	17_29_19_3447900
0.134766	-0.158203	0.764648	-0.862437	-0.721823	-0.403096	-0.187500	0.351563	0.433594	576	17_29_19_3609190
0.128906	-0.161133	0.761719	-0.862437	-0.721823	-0.403096	-0.046875	0.738281	0.468750	577	17_29_19_3770480
0.137695	-0.155273	0.761719	-0.862437	-0.731197	-0.412470	-0.117188	0.398438	0.468750	578	17_29_19_3931770
0.128906	-0.161133	0.755859	-0.862437	-0.731197	-0.412470	-0.128906	0.363281	0.445313	579	17_29_19_4093060
0.128906	-0.155273	0.758789	-0.862437	-0.731197	-0.403096	-0.152344	0.351563	0.457031	580	17_29_19_4254350
0.125977	-0.166992	0.761719	-0.853063	-0.731197	-0.403096	-0.152344	0.351563	0.398438	581	17_29_19_4415640
0.128906	-0.158203	0.758789	-0.862437	-0.731197	-0.403096	-0.058594	0.468750	0.445313	582	17_29_19_4576930
0.137695	-0.152344	0.752930	-0.862437	-0.731197	-0.403096	-0.187500	0.351563	0.445313	583	17_29_19_4738220
0.120117	-0.161133	0.755859	-0.843689	-0.721823	-0.403096	-0.128906	0.339844	0.445313	584	17_29_19_4899510
0.131836	-0.161133	0.761719	-0.853063	-0.731197	-0.403096	-0.152344	0.351563	0.468750	585	17_29_19_5060800
0.125977	-0.152344	0.758789	-0.862437	-0.731197	-0.403096	-0.140625	0.351563	0.457031	586	17_29_19_5222090
0.125977	-0.161133	0.758789	-0.853063	-0.721823	-0.403096	-0.140625	0.375000	0.445313	587	17_29_19_5383380
0.128906	-0.161133	0.764648	-0.853063	-0.731197	-0.403096	-0.152344	0.351563	0.468750	588	17_29_19_5544670
0.134766	-0.158203	0.764648	-0.853063	-0.731197	-0.403096	-0.152344	0.351563	0.480469	589	17_29_19_5705960
0.123047	-0.158203	0.761719	-0.853063	-0.721823	-0.403096	-0.164063	0.351563	0.410156	590	17_29_19_5867250
0.131836	-0.161133	0.752930	-0.853063	-0.731197	-0.403096	-0.152344	0.351563	0.410156	591	17_29_19_6028540
0.125977	-0.158203	0.758789	-0.843689	-0.721823	-0.403096	-0.152344	0.351563	0.421875	592	17_29_19_6189830
0.123047	-0.161133	0.758789	-0.853063	-0.721823	-0.412470	-0.152344	0.351563	0.421875	593	17_29_19_6351120
0.131836	-0.158203	0.758789	-0.853063	-0.731197	-0.412470	-0.152344	0.363281	0.445313	594	17_29_19_6512410
0.128906	-0.158203	0.761719	-0.853063	-0.721823	-0.412470	-0.140625	0.351563	0.433594	595	17_29_19_6673700
0.134766	-0.158203	0.747070	-0.853063	-0.721823	-0.403096	-0.152344	0.363281	0.433594	596	17_29_19_6834990
0.131836	-0.158203	0.755859	-0.843689	-0.721823	-0.403096	-0.152344	0.351563	0.503906	597	17_29_19_6996280
0.125977	-0.164063	0.758789	-0.853063	-0.721823	-0.403096	-0.140625	0.351563	0.503906	598	17_29_19_7157570
0.134766	-0.158203	0.764648	-0.862437	-0.721823	-0.403096	-0.117188	0.644531	0.421875	599	17_29_19_7318860
0.134766	-0.164063	0.755859	-0.853063	-0.721823	-0.403096	-0.164063	0.351563	0.398438	600	17_29_19_7480150
0.131836	-0.158203	0.758789	-0.853063	-0.721823	-0.403096	-0.152344	0.328125	0.457031	601	17_29_19_7641440
0.123047	-0.161133	0.761719	-0.853063	-0.731197	-0.403096	-0.152344	0.328125	0.433594	602	17_29_19_7802730
0.134766	-0.158203	0.755859	-0.843689	-0.721823	-0.403096	-0.128906	0.316406	0.468750	603	17_29_19_7964020
0.134766	-0.161133	0.758789	-0.862437	-0.731197	-0.403096	-0.046875	0.480469	0.539063	604	17_29_19_8125310
0.131836	-0.158203	0.758789	-0.862437	-0.721823	-0.403096	-0.152344	0.339844	0.398438	605	17_29_19_8286600
0.128906	-0.158203	0.758789	-0.853063	-0.731197	-0.403096	-0.152344	0.328125	0.386719	606	17_29_19_8447890
0.131836	-0.158203	0.764648	-0.853063	-0.721823	-0.403096	-0.164063	0.351563	0.386719	607	17_29_19_8609180
0.123047	-0.152344	0.764648	-0.862437	-0.731197	-0.403096	-0.128906	0.351563	0.398438	608	17_29_19_8770470
0.131836	-0.169922	0.758789	-0.843689	-0.721823	-0.403096	-0.175781	0.351563	0.457031	609	17_29_19_8931760
0.125977	-0.152344	0.758789	-0.862437	-0.721823	-0.403096	-0.187500	0.351563	0.421875	610	17_29_19_9093050
0.131836	-0.166992	0.761719	-0.862437	-0.721823	-0.403096	-0.140625	0.351563	0.410156	611	17_29_19_9254340
0.131836	-0.169922	0.755859	-0.853063	-0.731197	-0.403096	-0.152344	0.328125	0.468750	612	17_29_19_9415630
0.137695	-0.152344	0.758789	-0.862437	-0.721823	-0.403096	-0.152344	0.363281	0.445313	613	17_29_19_9576920
0.125977	-0.161133	0.758789	-0.853063	-0.731197	-0.403096	-0.152344	0.363281	0.445313	614	17_29_19_9738210
0.123047	-0.164063	0.761719	-0.862437	-0.731197	-0.403096	-0.011719	0.539063	0.468750	615	17_29_19_9899500
0.125977	-0.152344	0.761719	-0.853063	-0.721823	-0.403096	-0.152344	0.351563	0.492188	616	17_29_20_0060790
0.125977	-0.158203	0.758789	-0.853063	-0.721823	-0.403096	-0.152344	0.351563	0.480469	617	17_29_20_0222080
0.128906	-0.158203	0.758789	-0.853063	-0.731197	-0.403096	-0.152344	0.351563	0.410156	618	17_29_20_0383370
0.134766	-0.161133	0.755859	-0.853063	-0.721823	-0.403096	-0.140625	0.351563	0.433594	619	17_29_20_0544660
0.125977	-0.155273	0.761719	-0.853063	-0.721823	-0.412470	-0.164063	0.316406	0.421875	620	17_29_20_0705950
0.128906	-0.155273	0.758789	-0.862437	-0.721823	-0.403096	-0.140625	0.386719	0.386719	621	17_29_20_0867240
0.123047	-0.172852	0.767578	-0.853063	-0.731197	-0.403096	-0.152344	0.351563	0.398438	622	17_29_20_1028530
0.125977	-0.161133	0.764648	-0.843689	-0.721823	-0.403096	-0.164063	0.351563	0.398438	623	17_29_20_1189820
0.131836	-0.152344	0.761719	-0.853063	-0.731197	-0.403096	-0.152344	0.351563	0.421875	624	17_29_20_1351110
0.137695	-0.155273	0.758789	-0.862437	-0.721823	-0.403096	-0.117188	0.375000	0.398438	625	17_29_20_1512400
0.128906	-0.161133	0.764648	-0.853063	-0.731197	-0.403096	-0.128906	0.351563	0.375000	626	17_29_20_1673690
0.134766	-0.161133	0.764648	-0.853063	-0.721823	-0.403096	-0.152344	0.351563	0.433594	627	17_29_20_1834980
0.128906	-0.161133	0.758789	-0.862437	-0.731197	-0.403096	-0.175781	0.351563	0.433594	628	17_29_20_1996270
0.134766	-0.155273	0.752930	-0.853063	-0.731197	-0.403096	-0.152344	0.351563	0.433594	629	17_29_20_2157560
0.131836	-0.164063	0.758789	-0.853063	-0.731197	-0.403096	-0.152344	0.621094	0.515625	630	17_29_20_2318850
0.128906	-0.164063	0.764648	-0.853063	-0.731197	-0.403096	-0.152344	0.351563	0.503906	631	17_29_20_2480140
0.123047	-0.155273	0.761719	-0.862437	-0.721823	-0.403096	-0.187500	0.351563	0.410156	632	17_29_20_2641430
0.131836	-0.164063	0.758789	-0.853063	-0.731197	-0.403096	-0.164063	0.328125	0.421875	633	17_29_20_2802720
0.125977	-0.152344	0.752930	-0.862437	-0.731197	-0.403096	-0.175781	0.339844	0.433594	634	17_29_20_2964010
0.131836	-0.149414	0.770508	-0.862437	-0.721823	-0.403096	-0.164063	0.351563	0.433594	635	17_29_20_3125300
0.123047	-0.164063	0.761719	-0.853063	-0.731197	-0.403096	-0.128906	0.351563	0.457031	636	17_29_20_3286590
0.131836	-0.172852	0.758789	-0.853063	-0.731197	-0.412470	-0.117188	0.351563	0.433594	637	17_29_20_3447880
0.125977	-0.158203	0.770508	-0.862437	-0.731197	-0.403096	-0.140625	0.351563	0.457031	638	17_29_20_3609170
0.134766	-0.161133	0.758789	-0.853063	-0.731197	-0.403096	-0.128906	0.351563	0.503906	639	17_29_20_3770460
0.128906	-0.161133	0.770508	-0.853063	-0.731197	-0.403096	-0.164063	0.339844	0.457031	640	17_29_20_3931750
0.134766	-0.152344	0.764648	-0.853063	-0.721823	-0.403096	-0.152344	0.351563	0.433594	641	17_29_20_4093040
0.125977	-0.166992	0.758789	-0.853063	-0.731197	-0.403096	-0.175781	0.351563	0.445313	642	17_29_20_4254330
0.134766	-0.158203	0.770508	-0.862437	-0.731197	-0.403096	-0.070313	0.445313	0.457031	643	17_29_20_4415620
0.131836	-0.158203	0.761719	-0.853063	-0.721823	-0.412470	-0.082031	0.468750	0.457031	644	17_29_20_4576910
0.128906	-0.158203	0.764648	-0.862437	-0.721823	-0.412470	-0.128906	0.351563	0.421875	645	17_29_20_4738200
0.125977	-0.164063	0.770508	-0.862437	-0.721823	-0.403096	-0.058594	0.492188	0.468750	646	17_29_20_4899490
0.125977	-0.161133	0.761719	-0.853063	-0.731197	-0.403096	-0.128906	0.351563	0.527344	647	17_29_20_5060780
0.125977	-0.164063	0.758789	-0.853063	-0.731197	-0.403096	-0.152344	0.351563	0.539063	648	17_29_20_5222070
0.128906	-0.158203	0.764648	-0.853063	-0.731197	-0.403096	-0.152344	0.328125	0.527344	649	17_29_20_5383360
0.123047	-0.161133	0.758789	-0.853063	-0.731197	-0.412470	-0.152344	0.351563	0.468750	650	17_29_20_5544650
0.131836	-0.146484	0.761719	-0.862437	-0.731197	-0.403096	-0.152344	0.351563	0.398438	651	17_29_20_5705940
0.134766	-0.161133	0.752930	-0.853063	-0.731197	-0.412470	-0.152344	0.351563	0.445313	652	17_29_20_5867230
0.140625	-0.158203	0.758789	-0.853063	-0.731197	-0.412470	-0.152344	0.351563	0.457031	653	17_29_20_6028520
0.131836	-0.166992	0.758789	-0.862437	-0.731197	-0.412470	-0.152344	0.351563	0.480469	654	17_29_20_6189810
0.125977	-0.155273	0.761719	-0.862437	-0.731197	-0.403096	-0.152344	0.351563	0.445313	655	17_29_20_6351100
0.131836	-0.158203	0.764648	-0.862437	-0.731197	-0.403096	-0.058594	0.503906	0.410156	656	17_29_20_6512390
0.123047	-0.161133	0.761719	-0.843689	-0.721823	-0.403096	-0.152344	0.351563	0.457031	657	17_29_20_6673680
0.128906	-0.152344	0.761719	-0.862437	-0.731197	-0.412470	-0.152344	0.339844	0.515625	658	17_29_20_6834970
0.128906	-0.152344	0.767578	-0.853063	-0.731197	-0.403096	-0.152344	0.351563	0.503906	659	17_29_20_6996260
0.123047	-0.158203	0.758789	-0.853063	-0.731197	-0.403096	-0.152344	0.351563	0.398438	660	17_29_20_7157550
0.134766	-0.155273	0.752930	-0.862437	-0.721823	-0.403096	-0.152344	0.562500	0.480469	661	17_29_20_7318840
0.131836	-0.158203	0.758789	-0.862437	-0.721823	-0.403096	-0.105469	0.410156	0.527344	662	17_29_20_7480130
0.140625	-0.158203	0.761719	-0.853063	-0.731197	-0.403096	-0.152344	0.339844	0.503906	663	17_29_20_7641420
0.114258	-0.158203	0.767578	-0.853063	-0.731197	-0.403096	-0.164063	0.351563	0.445313	664	17_29_20_7802710
0.131836	-0.152344	0.761719	-0.862437	-0.721823	-0.403096	-0.152344	0.351563	0.457031	665	17_29_20_7964000
0.125977	-0.152344	0.764648	-0.843689	-0.721823	-0.403096	-0.128906	0.363281	0.421875	666	17_29_20_8125290
0.128906	-0.158203	0.752930	-0.853063	-0.721823	-0.403096	-0.152344	0.363281	0.445313	667	17_29_20_8286580
0.134766	-0.161133	0.770508	-0.853063	-0.721823	-0.403096	-0.175781	0.351563	0.433594	668	17_29_20_8447870
0.128906	-0.152344	0.758789	-0.843689	-0.721823	-0.403096	-0.152344	0.351563	0.375000	669	17_29_20_8609160
0.123047	-0.158203	0.764648	-0.853063	-0.721823	-0.403096	-0.152344	0.351563	0.398438	670	17_29_20_8770450
0.125977	-0.158203	0.758789	-0.843689	-0.721823	-0.403096	-0.152344	0.339844	0.433594	671	17_29_20_8931740
0.125977	-0.161133	0.764648	-0.853063	-0.731197	-0.403096	-0.128906	0.328125	0.433594	672	17_29_20_9093030
0.123047	-0.164063	0.758789	-0.853063	-0.731197	-0.403096	-0.152344	0.351563	0.433594	673	17_29_20_9254320
0.131836	-0.161133	0.758789	-0.862437	-0.721823	-0.403096	-0.128906	0.351563	0.468750	674	17_29_20_9415610
0.120117	-0.158203	0.758789	-0.862437	-0.721823	-0.412470	-0.093750	0.445313	0.527344	675	17_29_20_9576900
0.128906	-0.161133	0.764648	-0.862437	-0.721823	-0.403096	-0.152344	0.351563	0.457031	676	17_29_20_9738190
0.128906	-0.155273	0.761719	-0.853063	-0.731197	-0.403096	-0.164063	0.351563	0.410156	677	17_29_20_9899480
0.123047	-0.161133	0.752930	-0.843689	-0.721823	-0.403096	-0.152344	0.339844	0.386719	678	17_29_21_0060770
0.128906	-0.161133	0.758789	-0.862437	-0.721823	-0.403096	-0.164063	0.292969	0.421875	679	17_29_21_0222060
0.125977	-0.155273	0.758789	-0.853063	-0.721823	-0.412470	-0.140625	0.316406	0.457031	680	17_29_21_0383350
0.134766	-0.152344	0.767578	-0.853063	-0.731197	-0.403096	-0.152344	0.328125	0.480469	681	17_29_21_0544640
0.128906	-0.161133	0.755859	-0.843689	-0.721823	-0.403096	-0.152344	0.363281	0.433594	682	17_29_21_0705930
0.131836	-0.158203	0.758789	-0.862437	-0.721823	-0.403096	-0.152344	0.351563	0.410156	683	17_29_21_0867220
0.128906	-0.164063	0.764648	-0.853063	-0.721823	-0.412470	-0.152344	0.351563	0.468750	684	17_29_21_1028510
0.128906	-0.166992	0.758789	-0.843689	-0.721823	-0.403096	-0.175781	0.351563	0.457031	685	17_29_21_1189800
0.125977	-0.155273	0.770508	-0.862437	-0.721823	-0.412470	-0.035156	0.492188	0.445313	686	17_29_21_1351090
0.125977	-0.149414	0.758789	-0.853063	-0.731197	-0.403096	-0.152344	0.339844	0.445313	687	17_29_21_1512380
0.134766	-0.161133	0.761719	-0.862437	-0.731197	-0.403096	-0.035156	0.515625	0.398438	688	17_29_21_1673670
0.125977	-0.155273	0.764648	-0.853063	-0.721823	-0.403096	-0.152344	0.351563	0.398438	689	17_29_21_1834960
0.125977	-0.161133	0.761719	-0.843689	-0.721823	-0.403096	-0.152344	0.351563	0.468750	690	17_29_21_1996250
0.120117	-0.164063	0.764648	-0.862437	-0.731197	-0.403096	-0.152344	0.351563	0.457031	691	17_29_21_2157540
0.128906	-0.152344	0.758789	-0.862437	-0.731197	-0.403096	-0.140625	0.351563	0.503906	692	17_29_21_2318830
0.123047	-0.158203	0.758789	-0.862437	-0.731197	-0.403096	-0.164063	0.304688	0.515625	693	17_29_21_2480120
0.131836	-0.152344	0.758789	-0.862437	-0.721823	-0.403096	-0.152344	0.328125	0.457031	694	17_29_21_2641410
0.140625	-0.158203	0.752930	-0.862437	-0.721823	-0.403096	-0.152344	0.351563	0.515625	695	17_29_21_2802700
0.128906	-0.158203	0.758789	-0.853063	-0.712448	-0.412470	-0.152344	0.363281	0.527344	696	17_29_21_2963990
0.125977	-0.161133	0.764648	-0.853063	-0.731197	-0.412470	-0.152344	0.351563	0.445313	697	17_29_21_3125280
0.134766	-0.172852	0.761719	-0.853063	-0.731197	-0.403096	-0.152344	0.351563	0.421875	698	17_29_21_3286570
0.131836	-0.155273	0.761719	-0.862437	-0.721823	-0.412470	-0.175781	0.351563	0.480469	699	17_29_21_3447860
0.123047	-0.164063	0.761719	-0.862437	-0.731197	-0.403096	-0.152344	0.351563	0.480469	700	17_29_21_3609150
0.134766	-0.161133	0.761719	-0.853063	-0.721823	-0.403096	-0.164063	0.351563	0.421875	701	17_29_21_3770440
0.131836	-0.152344	0.764648	-0.853063	-0.721823	-0.403096	-0.082031	0.656250	0.433594	702	17_29_21_3931730
0.120117	-0.152344	0.761719	-0.853063	-0.721823	-0.403096	-0.152344	0.351563	0.421875	703	17_29_21_4093020
0.131836	-0.158203	0.758789	-0.862437	-0.731197	-0.403096	-0.140625	0.328125	0.433594	704	17_29_21_4254310
0.123047	-0.164063	0.761719	-0.853063	-0.721823	-0.403096	-0.152344	0.304688	0.398438	705	17_29_21_4415600
0.128906	-0.158203	0.750000	-0.853063	-0.712448	-0.403096	-0.152344	0.351563	0.398438	706	17_29_21_4576890
0.125977	-0.155273	0.767578	-0.853063	-0.721823	-0.403096	-0.140625	0.375000	0.410156	707	17_29_21_4738180
0.134766	-0.152344	0.755859	-0.853063	-0.731197	-0.403096	-0.128906	0.351563	0.445313	708	17_29_21_4899470
0.134766	-0.158203	0.758789	-0.862437	-0.721823	-0.403096	-0.093750	0.351563	0.445313	709	17_29_21_5060760
0.125977	-0.158203	0.758789	-0.853063	-0.721823	-0.412470	-0.140625	0.363281	0.433594	710	17_29_21_5222050
0.125977	-0.166992	0.767578	-0.853063	-0.731197	-0.403096	-0.152344	0.351563	0.457031	711	17_29_21_5383340
0.128906	-0.169922	0.761719	-0.853063	-0.721823	-0.403096	-0.152344	0.351563	0.492188	712	17_29_21_5544630
0.128906	-0.158203	0.761719	-0.853063	-0.721823	-0.403096	-0.175781	0.363281	0.468750	713	17_29_21_5705920
0.131836	-0.169922	0.755859	-0.862437	-0.731197	-0.403096	-0.152344	0.363281	0.457031	714	17_29_21_5867210
0.125977	-0.152344	0.752930	-0.843689	-0.731197	-0.403096	-0.175781	0.351563	0.492188	715	17_29_21_6028500
0.128906	-0.158203	0.761719	-0.853063	-0.721823	-0.403096	-0.152344	0.351563	0.480469	716	17_29_21_6189790
0.123047	-0.152344	0.755859	-0.853063	-0.731197	-0.403096	-0.152344	0.351563	0.480469	717	17_29_21_6351080
0.123047	-0.152344	0.764648	-0.853063	-0.731197	-0.403096	-0.152344	0.351563	0.503906	718	17_29_21_6512370
0.137695	-0.161133	0.755859	-0.843689	-0.731197	-0.403096	-0.152344	0.363281	0.480469	719	17_29_21_6673660
0.125977	-0.166992	0.761719	-0.843689	-0.721823	-0.403096	-0.164063	0.351563	0.457031	720	17_29_21_6834950
0.131836	-0.158203	0.758789	-0.862437	-0.731197	-0.412470	-0.152344	0.351563	0.468750	721	17_29_21_6996240
0.134766	-0.161133	0.758789	-0.853063	-0.721823	-0.403096	-0.152344	0.351563	0.433594	722	17_29_21_7157530
0.134766	-0.155273	0.761719	-0.843689	-0.721823	-0.403096	-0.164063	0.363281	0.410156	723	17_29_21_7318820
0.134766	-0.152344	0.770508	-0.853063	-0.721823	-0.403096	-0.128906	0.351563	0.421875	724	17_29_21_7480110
0.123047	-0.158203	0.764648	-0.843689	-0.731197	-0.403096	-0.164063	0.351563	0.398438	725	17_29_21_7641400
0.131836	-0.161133	0.755859	-0.862437	-0.731197	-0.403096	-0.128906	0.433594	0.421875	726	17_29_21_7802690
0.123047	-0.169922	0.758789	-0.853063	-0.721823	-0.403096	-0.175781	0.339844	0.445313	727	17_29_21_7963980
0.123047	-0.155273	0.758789	-0.862437	-0.721823	-0.403096	-0.128906	0.339844	0.445313	728	17_29_21_8125270
0.134766	-0.166992	0.764648	-0.853063	-0.731197	-0.403096	-0.152344	0.339844	0.457031	729	17_29_21_8286560
0.140625	-0.158203	0.758789	-0.862437	-0.731197	-0.403096	-0.117188	0.316406	0.457031	730	17_29_21_8447850
0.128906	-0.161133	0.750000	-0.853063	-0.731197	-0.403096	-0.152344	0.316406	0.480469	731	17_29_21_8609140
0.137695	-0.155273	0.770508	-0.853063	-0.721823	-0.403096	-0.152344	0.328125	0.503906	732	17_29_21_8770430
0.123047	-0.152344	0.758789	-0.853063	-0.721823	-0.403096	-0.128906	0.339844	0.480469	733	17_29_21_8931720
0.128906	-0.161133	0.761719	-0.862437	-0.731197	-0.403096	-0.140625	0.351563	0.480469	734	17_29_21_9093010
0.134766	-0.152344	0.752930	-0.853063	-0.731197	-0.403096	-0.152344	0.351563	0.468750	735	17_29_21_9254300
0.123047	-0.164063	0.758789	-0.853063	-0.731197	-0.403096	-0.128906	0.351563	0.433594	736	17_29_21_9415590
0.128906	-0.158203	0.761719	-0.862437	-0.731197	-0.403096	-0.152344	0.339844	0.468750	737	17_29_21_9576880
0.125977	-0.158203	0.761719	-0.862437	-0.731197	-0.403096	-0.128906	0.351563	0.445313	738	17_29_21_9738170
0.140625	-0.161133	0.761719	-0.862437	-0.731197	-0.403096	-0.164063	0.351563	0.445313	739	17_29_21_9899460
0.131836	-0.158203	0.758789	-0.862437	-0.731197	-0.403096	-0.011719	0.550781	0.433594	740	17_29_22_0060750
0.134766	-0.158203	0.758789	-0.862437	-0.731197	-0.403096	0.164063	0.738281	0.433594	741	17_29_22_0222040
0.125977	-0.164063	0.761719	-0.853063	-0.731197	-0.403096	-0.152344	0.363281	0.421875	742	17_29_22_0383330
0.134766	-0.161133	0.755859	-0.853063	-0.721823	-0.403096	-0.152344	0.351563	0.410156	743	17_29_22_0544620
0.143555	-0.164063	0.761719	-0.853063	-0.731197	-0.412470	-0.164063	0.339844	0.492188	744	17_29_22_0705910
0.134766	-0.158203	0.750000	-0.853063	-0.731197	-0.403096	-0.152344	0.351563	0.421875	745	17_29_22_0867200
0.123047	-0.158203	0.764648	-0.862437	-0.721823	-0.403096	-0.152344	0.351563	0.363281	746	17_29_22_1028490
0.125977	-0.161133	0.761719	-0.862437	-0.712448	-0.403096	-0.187500	0.351563	0.421875	747	17_29_22_1189780
0.137695	-0.158203	0.761719	-0.853063	-0.721823	-0.403096	-0.199219	0.351563	0.468750	748	17_29_22_1351070
0.125977	-0.164063	0.761719	-0.862437	-0.731197	-0.403096	-0.035156	0.515625	0.457031	749	17_29_22_1512360
0.128906	-0.161133	0.761719	-0.853063	-0.721823	-0.403096	-0.152344	0.351563	0.457031	750	17_29_22_1673650
0.134766	-0.161133	0.761719	-0.853063	-0.731197	-0.403096	-0.175781	0.351563	0.421875	751	17_29_22_1834940
0.128906	-0.152344	0.764648	-0.853063	-0.731197	-0.403096	0.070313	0.656250	0.363281	752	17_29_22_1996230
0.123047	-0.164063	0.767578	-0.853063	-0.731197	-0.403096	-0.175781	0.351563	0.375000	753	17_29_22_2157520
0.134766	-0.152344	0.761719	-0.853063	-0.731197	-0.403096	-0.152344	0.351563	0.433594	754	17_29_22_2318810
0.131836	-0.149414	0.761719	-0.853063	-0.721823	-0.403096	-0.152344	0.351563	0.410156	755	17_29_22_2480100
0.125977	-0.155273	0.761719	-0.853063	-0.731197	-0.403096	-0.152344	0.339844	0.410156	756	17_29_22_2641390
0.128906	-0.161133	0.752930	-0.862437	-0.731197	-0.403096	-0.152344	0.339844	0.433594	757	17_29_22_2802680
0.120117	-0.152344	0.758789	-0.853063	-0.731197	-0.412470	-0.152344	0.339844	0.421875	758	17_29_22_2963970
0.131836	-0.155273	0.761719	-0.862437	-0.731197	-0.403096	-0.093750	0.468750	0.480469	759	17_29_22_3125260
0.123047	-0.158203	0.764648	-0.862437	-0.731197	-0.403096	-0.152344	0.351563	0.527344	760	17_29_22_3286550
0.134766	-0.161133	0.755859	-0.853063	-0.721823	-0.403096	-0.152344	0.351563	0.503906	761	17_29_22_3447840
0.123047	-0.158203	0.758789	-0.853063	-0.731197	-0.403096	-0.152344	0.328125	0.457031	762	17_29_22_3609130
0.140625	-0.155273	0.761719	-0.853063	-0.731197	-0.403096	-0.152344	0.351563	0.433594	763	17_29_22_3770420
0.131836	-0.155273	0.764648	-0.862437	-0.731197	-0.403096	-0.152344	0.328125	0.457031	764	17_29_22_3931710
0.128906	-0.158203	0.761719	-0.843689	-0.731197	-0.403096	-0.152344	0.292969	0.503906	765	17_29_22_4093000
0.131836	-0.164063	0.761719	-0.862437	-0.721823	-0.403096	-0.164063	0.351563	0.457031	766	17_29_22_4254290
0.134766	-0.149414	0.764648	-0.843689	-0.721823	-0.403096	-0.187500	0.351563	0.433594	767	17_29_22_4415580
0.131836	-0.161133	0.770508	-0.853063	-0.731197	-0.403096	-0.152344	0.339844	0.515625	768	17_29_22_4576870
0.134766	-0.166992	0.761719	-0.862437	-0.731197	-0.403096	-0.164063	0.316406	0.480469	769	17_29_22_4738160
0.140625	-0.152344	0.761719	-0.853063	-0.731197	-0.403096	-0.187500	0.316406	0.433594	770	17_29_22_4899450
0.134766	-0.155273	0.758789	-0.853063	-0.721823	-0.403096	-0.023438	0.527344	0.480469	771	17_29_22_5060740
0.128906	-0.158203	0.755859	-0.862437	-0.731197	-0.403096	0.023438	0.597656	0.386719	772	17_29_22_5222030
0.131836	-0.158203	0.755859	-0.862437	-0.721823	-0.403096	-0.152344	0.328125	0.433594	773	17_29_22_5383320
0.128906	-0.164063	0.761719	-0.862437	-0.721823	-0.412470	-0.152344	0.351563	0.445313	774	17_29_22_5544610
0.128906	-0.169922	0.758789	-0.853063	-0.721823	-0.403096	-0.152344	0.339844	0.421875	775	17_29_22_5705900
0.123047	-0.169922	0.758789	-0.862437	-0.731197	-0.403096	-0.152344	0.328125	0.433594	776	17_29_22_5867190
0.134766	-0.152344	0.767578	-0.862437	-0.721823	-0.403096	-0.140625	0.304688	0.515625	777	17_29_22_6028480
0.134766	-0.175781	0.761719	-0.853063	-0.721823	-0.403096	-0.152344	0.316406	0.539063	778	17_29_22_6189770
0.125977	-0.166992	0.758789	-0.853063	-0.721823	-0.403096	-0.175781	0.351563	0.398438	779	17_29_22_6351060
0.131836	-0.158203	0.755859	-0.853063	-0.721823	-0.403096	-0.164063	0.351563	0.375000	780	17_29_22_6512350
0.134766	-0.158203	0.758789	-0.853063	-0.721823	-0.403096	-0.164063	0.351563	0.480469	781	17_29_22_6673640
0.128906	-0.172852	0.761719	-0.853063	-0.721823	-0.403096	-0.128906	0.363281	0.527344	782	17_29_22_6834930
0.134766	-0.158203	0.752930	-0.862437	-0.721823	-0.403096	-0.152344	0.363281	0.457031	783	17_29_22_6996220
0.137695	-0.158203	0.758789	-0.853063	-0.731197	-0.412470	-0.140625	0.351563	0.445313	784	17_29_22_7157510
0.137695	-0.169922	0.758789	-0.862437	-0.721823	-0.412470	-0.152344	0.328125	0.445313	785	17_29_22_7318800
0.125977	-0.169922	0.761719	-0.853063	-0.731197	-0.412470	-0.152344	0.351563	0.468750	786	17_29_22_7480090
0.131836	-0.161133	0.761719	-0.862437	-0.731197	-0.403096	-0.152344	0.351563	0.468750	787	17_29_22_7641380
0.137695	-0.149414	0.755859	-0.862437	-0.721823	-0.403096	-0.187500	0.304688	0.410156	788	17_29_22_7802670
0.134766	-0.155273	0.755859	-0.853063	-0.712448	-0.403096	-0.152344	0.304688	0.457031	789	17_29_22_7963960
0.131836	-0.152344	0.755859	-0.853063	-0.712448	-0.403096	-0.175781	0.339844	0.410156	790	17_29_22_8125250
0.131836	-0.169922	0.755859	-0.862437	-0.721823	-0.403096	-0.164063	0.351563	0.386719	791	17_29_22_8286540
0.123047	-0.164063	0.758789	-0.853063	-0.721823	-0.403096	-0.152344	0.339844	0.433594	792	17_29_22_8447830
0.128906	-0.158203	0.758789	-0.853063	-0.721823	-0.403096	-0.152344	0.316406	0.468750	793	17_29_22_8609120
0.117188	-0.152344	0.758789	-0.862437	-0.721823	-0.403096	-0.152344	0.316406	0.480469	794	17_29_22_8770410
0.125977	-0.158203	0.752930	-0.862437	-0.721823	-0.403096	-0.152344	0.328125	0.468750	795	17_29_22_8931700
0.123047	-0.169922	0.761719	-0.843689	-0.712448	-0.403096	-0.164063	0.351563	0.410156	796	17_29_22_9092990
0.131836	-0.149414	0.755859	-0.862437	-0.721823	-0.403096	-0.152344	0.351563	0.386719	797	17_29_22_9254280
0.111328	-0.164063	0.758789	-0.862437	-0.731197	-0.403096	-0.117188	0.421875	0.386719	798	17_29_22_9415570
0.123047	-0.158203	0.758789	-0.853063	-0.721823	-0.403096	-0.152344	0.339844	0.410156	799	17_29_22_9576860
0.117188	-0.149414	0.758789	-0.862437	-0.731197	-0.403096	-0.128906	0.351563	0.445313	800	17_29_22_9738150
0.128906	-0.155273	0.770508	-0.853063	-0.721823	-0.403096	-0.152344	0.351563	0.421875	801	17_29_22_9899440
0.123047	-0.166992	0.764648	-0.862437	-0.731197	-0.403096	-0.164063	0.351563	0.421875	802	17_29_23_0060730
0.120117	-0.155273	0.764648	-0.862437	-0.721823	-0.403096	-0.152344	0.351563	0.398438	803	17_29_23_0222020
0.117188	-0.158203	0.761719	-0.862437	-0.721823	-0.412470	-0.199219	0.328125	0.363281	804	17_29_23_0383310
0.123047	-0.169922	0.755859	-0.862437	-0.731197	-0.412470	0.035156	0.691406	0.421875	805	17_29_23_0544600
0.123047	-0.164063	0.755859	-0.853063	-0.731197	-0.403096	-0.164063	0.339844	0.468750	806	17_29_23_0705890
0.123047	-0.161133	0.758789	-0.843689	-0.721823	-0.403096	-0.152344	0.339844	0.457031	807	17_29_23_0867180
0.125977	-0.161133	0.770508	-0.853063	-0.731197	-0.403096	-0.152344	0.351563	0.433594	808	17_29_23_1028470
0.123047	-0.164063	0.758789	-0.862437	-0.731197	-0.412470	-0.093750	0.433594	0.421875	809	17_29_23_1189760
0.131836	-0.164063	0.758789	-0.853063	-0.731197	-0.412470	-0.152344	0.351563	0.480469	810	17_29_23_1351050
0.128906	-0.158203	0.752930	-0.853063	-0.731197	-0.403096	-0.128906	0.351563	0.527344	811	17_29_23_1512340
0.137695	-0.158203	0.758789	-0.853063	-0.721823	-0.403096	-0.152344	0.351563	0.457031	812	17_29_23_1673630
0.128906	-0.158203	0.761719	-0.862437	-0.731197	-0.403096	-0.128906	0.351563	0.421875	813	17_29_23_1834920
0.131836	-0.152344	0.764648	-0.862437	-0.721823	-0.403096	0.058594	0.632813	0.433594	814	17_29_23_1996210
0.125977	-0.161133	0.764648	-0.853063	-0.721823	-0.403096	-0.187500	0.316406	0.468750	815	17_29_23_2157500
0.123047	-0.158203	0.758789	-0.853063	-0.721823	-0.403096	-0.152344	0.351563	0.515625	816	17_29_23_2318790
0.128906	-0.155273	0.755859	-0.862437	-0.721823	-0.403096	-0.128906	0.339844	0.433594	817	17_29_23_2480080
0.120117	-0.158203	0.761719	-0.853063	-0.721823	-0.403096	-0.140625	0.316406	0.433594	818	17_29_23_2641370
0.128906	-0.155273	0.755859	-0.862437	-0.721823	-0.403096	-0.152344	0.328125	0.457031	819	17_29_23_2802660
0.128906	-0.158203	0.758789	-0.862437	-0.721823	-0.403096	-0.152344	0.339844	0.410156	820	17_29_23_2963950
0.140625	-0.158203	0.752930	-0.853063	-0.721823	-0.403096	-0.152344	0.339844	0.457031	821	17_29_23_3125240
0.128906	-0.158203	0.764648	-0.853063	-0.721823	-0.412470	-0.128906	0.351563	0.457031	822	17_29_23_3286530
0.131836	-0.155273	0.761719	-0.853063	-0.721823	-0.403096	-0.152344	0.351563	0.421875	823	17_29_23_3447820
0.125977	-0.158203	0.758789	-0.862437	-0.721823	-0.403096	-0.152344	0.339844	0.457031	824	17_29_23_3609110
0.131836	-0.158203	0.761719	-0.862437	-0.721823	-0.403096	-0.164063	0.339844	0.445313	825	17_29_23_3770400
0.120117	-0.164063	0.761719	-0.853063	-0.731197	-0.403096	-0.152344	0.351563	0.433594	826	17_29_23_3931690
0.125977	-0.152344	0.758789	-0.853063	-0.731197	-0.403096	-0.152344	0.351563	0.468750	827	17_29_23_4092980
0.123047	-0.166992	0.761719	-0.862437	-0.721823	-0.403096	-0.152344	0.351563	0.421875	828	17_29_23_4254270
0.123047	-0.158203	0.758789	-0.853063	-0.731197	-0.403096	-0.152344	0.292969	0.386719	829	17_29_23_4415560
0.123047	-0.161133	0.761719	-0.853063	-0.731197	-0.403096	-0.164063	0.304688	0.433594	830	17_29_23_4576850
0.114258	-0.158203	0.764648	-0.862437	-0.731197	-0.403096	-0.152344	0.339844	0.445313	831	17_29_23_4738140
0.111328	-0.172852	0.755859	-0.862437	-0.731197	-0.412470	-0.187500	0.316406	0.410156	832	17_29_23_4899430
0.128906	-0.152344	0.758789	-0.843689	-0.731197	-0.412470	-0.164063	0.351563	0.375000	833	17_29_23_5060720
0.128906	-0.161133	0.761719	-0.853063	-0.731197	-0.403096	-0.152344	0.351563	0.375000	834	17_29_23_5222010
0.123047	-0.161133	0.750000	-0.862437	-0.731197	-0.403096	-0.175781	0.351563	0.398438	835	17_29_23_5383300
0.131836	-0.166992	0.761719	-0.862437	-0.731197	-0.412470	-0.011719	0.632813	0.468750	836	17_29_23_5544590
0.131836	-0.158203	0.767578	-0.853063	-0.731197	-0.412470	-0.152344	0.328125	0.433594	837	17_29_23_5705880
0.134766	-0.161133	0.764648	-0.853063	-0.731197	-0.412470	-0.128906	0.351563	0.480469	838	17_29_23_5867170
0.134766	-0.152344	0.761719	-0.862437	-0.731197	-0.403096	-0.128906	0.351563	0.480469	839	17_29_23_6028460
0.128906	-0.158203	0.761719	-0.862437	-0.721823	-0.403096	-0.140625	0.328125	0.468750	840	17_29_23_6189750
0.131836	-0.158203	0.764648	-0.853063	-0.721823	-0.412470	-0.164063	0.304688	0.421875	841	17_29_23_6351040
0.123047	-0.158203	0.761719	-0.853063	-0.721823	-0.412470	-0.152344	0.339844	0.503906	842	17_29_23_6512330
0.140625	-0.158203	0.758789	-0.862437	-0.721823	-0.403096	-0.152344	0.304688	0.550781	843	17_29_23_6673620
0.143555	-0.164063	0.758789	-0.853063	-0.721823	-0.403096	-0.164063	0.316406	0.468750	844	17_29_23_6834910
0.128906	-0.164063	0.764648	-0.853063	-0.721823	-0.403096	-0.152344	0.351563	0.480469	845	17_29_23_6996200
0.125977	-0.158203	0.758789	-0.862437	-0.721823	-0.403096	-0.152344	0.351563	0.433594	846	17_29_23_7157490
0.128906	-0.161133	0.758789	-0.862437	-0.721823	-0.403096	-0.140625	0.339844	0.410156	847	17_29_23_7318780
0.123047	-0.146484	0.758789	-0.853063	-0.721823	-0.403096	-0.128906	0.328125	0.398438	848	17_29_23_7480070
0.120117	-0.164063	0.761719	-0.862437	-0.731197	-0.403096	-0.152344	0.351563	0.421875	849	17_29_23_7641360
0.114258	-0.161133	0.761719	-0.853063	-0.731197	-0.403096	-0.152344	0.351563	0.457031	850	17_29_23_7802650
0.128906	-0.164063	0.767578	-0.853063	-0.731197	-0.403096	-0.152344	0.339844	0.445313	851	17_29_23_7963940
0.111328	-0.161133	0.758789	-0.862437	-0.731197	-0.403096	-0.128906	0.351563	0.433594	852	17_29_23_8125230
0.131836	-0.169922	0.758789	-0.853063	-0.721823	-0.412470	-0.152344	0.351563	0.468750	853	17_29_23_8286520
0.125977	-0.155273	0.752930	-0.862437	-0.731197	-0.403096	-0.128906	0.351563	0.480469	854	17_29_23_8447810
0.128906	-0.161133	0.770508	-0.853063	-0.731197	-0.403096	-0.175781	0.351563	0.445313	855	17_29_23_8609100
0.123047	-0.155273	0.761719	-0.862437	-0.731197	-0.412470	0.035156	0.621094	0.398438	856	17_29_23_8770390
0.123047	-0.161133	0.758789	-0.862437	-0.731197	-0.403096	-0.187500	0.351563	0.375000	857	17_29_23_8931680
0.134766	-0.161133	0.752930	-0.853063	-0.731197	-0.403096	-0.164063	0.339844	0.457031	858	17_29_23_9092970
0.131836	-0.155273	0.761719	-0.843689	-0.731197	-0.403096	-0.140625	0.328125	0.468750	859	17_29_23_9254260
0.123047	-0.175781	0.761719	-0.862437	-0.731197	-0.403096	-0.117188	0.339844	0.480469	860	17_29_23_9415550
0.131836	-0.164063	0.761719	-0.853063	-0.731197	-0.412470	-0.140625	0.328125	0.445313	861	17_29_23_9576840
0.123047	-0.161133	0.752930	-0.853063	-0.731197	-0.403096	-0.164063	0.351563	0.375000	862	17_29_23_9738130
0.123047	-0.158203	0.758789	-0.853063	-0.731197	-0.403096	-0.152344	0.351563	0.398438	863	17_29_23_9899420
0.123047	-0.166992	0.758789	-0.862437	-0.731197	-0.403096	-0.152344	0.351563	0.433594	864	17_29_24_0060710
0.125977	-0.158203	0.758789	-0.853063	-0.731197	-0.403096	-0.164063	0.351563	0.457031	865	17_29_24_0222000
0.123047	-0.164063	0.747070	-0.853063	-0.731197	-0.403096	-0.152344	0.339844	0.480469	866	17_29_24_0383290
0.123047	-0.161133	0.755859	-0.853063	-0.731197	-0.412470	-0.152344	0.304688	0.445313	867	17_29_24_0544580
0.120117	-0.164063	0.764648	-0.853063	-0.731197	-0.412470	-0.152344	0.304688	0.468750	868	17_29_24_0705870
0.125977	-0.158203	0.758789	-0.862437	-0.731197	-0.412470	-0.140625	0.316406	0.457031	869	17_29_24_0867160
0.125977	-0.164063	0.761719	-0.862437	-0.731197	-0.412470	-0.093750	0.386719	0.398438	870	17_29_24_1028450
0.131836	-0.164063	0.764648	-0.843689	-0.731197	-0.412470	-0.152344	0.316406	0.445313	871	17_29_24_1189740
0.131836	-0.164063	0.755859	-0.862437	-0.731197	-0.403096	-0.152344	0.351563	0.457031	872	17_29_24_1351030
0.131836	-0.158203	0.752930	-0.853063	-0.721823	-0.403096	-0.152344	0.363281	0.445313	873	17_29_24_1512320
0.134766	-0.158203	0.758789	-0.862437	-0.731197	-0.403096	-0.152344	0.339844	0.468750	874	17_29_24_1673610
0.137695	-0.164063	0.755859	-0.862437	-0.731197	-0.403096	-0.152344	0.328125	0.410156	875	17_29_24_1834900
0.134766	-0.158203	0.767578	-0.862437	-0.731197	-0.403096	-0.164063	0.351563	0.375000	876	17_29_24_1996190
0.128906	-0.152344	0.758789	-0.853063	-0.731197	-0.403096	0.023438	0.597656	0.457031	877	17_29_24_2157480
0.131836	-0.158203	0.767578	-0.862437	-0.721823	-0.403096	-0.128906	0.351563	0.445313	878	17_29_24_2318770
0.134766	-0.158203	0.761719	-0.862437	-0.721823	-0.412470	-0.175781	0.339844	0.480469	879	17_29_24_2480060
0.128906	-0.164063	0.758789	-0.843689	-0.731197	-0.403096	-0.152344	0.351563	0.480469	880	17_29_24_2641350
0.125977	-0.164063	0.764648	-0.862437	-0.731197	-0.403096	-0.152344	0.351563	0.421875	881	17_29_24_2802640
0.128906	-0.166992	0.758789	-0.862437	-0.721823	-0.403096	-0.152344	0.351563	0.457031	882	17_29_24_2963930
0.123047	-0.161133	0.758789	-0.862437	-0.721823	-0.403096	-0.082031	0.421875	0.457031	883	17_29_24_3125220
0.123047	-0.161133	0.758789	-0.862437	-0.721823	-0.403096	-0.140625	0.328125	0.445313	884	17_29_24_3286510
0.123047	-0.155273	0.767578	-0.862437	-0.721823	-0.403096	-0.140625	0.316406	0.503906	885	17_29_24_3447800
0.123047	-0.161133	0.761719	-0.853063	-0.731197	-0.403096	-0.152344	0.316406	0.468750	886	17_29_24_3609090
0.117188	-0.155273	0.761719	-0.862437	-0.731197	-0.403096	-0.164063	0.351563	0.398438	887	17_29_24_3770380
0.120117	-0.158203	0.761719	-0.862437	-0.731197	-0.403096	-0.175781	0.351563	0.410156	888	17_29_24_3931670
0.131836	-0.164063	0.752930	-0.862437	-0.731197	-0.412470	-0.046875	0.703125	0.457031	889	17_29_24_4092960
0.125977	-0.164063	0.755859	-0.862437	-0.721823	-0.412470	-0.152344	0.328125	0.457031	890	17_29_24_4254250
0.120117	-0.161133	0.761719	-0.853063	-0.731197	-0.412470	-0.164063	0.351563	0.527344	891	17_29_24_4415540
0.123047	-0.161133	0.758789	-0.853063	-0.731197	-0.412470	-0.152344	0.351563	0.492188	892	17_29_24_4576830
0.131836	-0.166992	0.755859	-0.862437	-0.731197	-0.412470	-0.164063	0.351563	0.410156	893	17_29_24_4738120
0.134766	-0.158203	0.761719	-0.862437	-0.731197	-0.412470	-0.152344	0.351563	0.433594	894	17_29_24_4899410
0.131836	-0.158203	0.764648	-0.853063	-0.721823	-0.403096	-0.152344	0.351563	0.492188	895	17_29_24_5060700
0.128906	-0.155273	0.752930	-0.862437	-0.721823	-0.403096	-0.152344	0.339844	0.492188	896	17_29_24_5221990
0.128906	-0.164063	0.758789	-0.853063	-0.721823	-0.403096	-0.175781	0.316406	0.480469	897	17_29_24_5383280
0.140625	-0.152344	0.767578	-0.853063	-0.731197	-0.403096	-0.152344	0.328125	0.421875	898	17_29_24_5544570
0.140625	-0.161133	0.761719	-0.853063	-0.731197	-0.403096	-0.152344	0.351563	0.410156	899	17_29_24_5705860
0.123047	-0.158203	0.761719	-0.862437	-0.721823	-0.403096	-0.093750	0.644531	0.562500	900	17_29_24_5867150
0.131836	-0.161133	0.758789	-0.862437	-0.721823	-0.403096	-0.187500	0.351563	0.480469	901	17_29_24_6028440
0.120117	-0.166992	0.761719	-0.853063	-0.721823	-0.403096	-0.128906	0.363281	0.457031	902	17_29_24_6189730
0.123047	-0.155273	0.770508	-0.862437	-0.721823	-0.403096	-0.128906	0.351563	0.480469	903	17_29_24_6351020
0.128906	-0.158203	0.750000	-0.862437	-0.731197	-0.403096	-0.140625	0.351563	0.480469	904	17_29_24_6512310
0.123047	-0.155273	0.761719	-0.853063	-0.721823	-0.412470	-0.152344	0.363281	0.515625	905	17_29_24_6673600
0.111328	-0.158203	0.758789	-0.862437	-0.731197	-0.403096	-0.152344	0.351563	0.527344	906	17_29_24_6834890
0.125977	-0.161133	0.764648	-0.862437	-0.721823	-0.403096	-0.128906	0.351563	0.468750	907	17_29_24_6996180
0.114258	-0.164063	0.776367	-0.862437	-0.721823	-0.412470	-0.152344	0.351563	0.457031	908	17_29_24_7157470
0.099609	-0.184570	0.785156	-0.862437	-0.731197	-0.421844	-0.152344	0.351563	0.492188	909	17_29_24_7318760
0.134766	-0.187500	0.799805	-0.871812	-0.731197	-0.431219	-0.152344	0.339844	0.468750	910	17_29_24_7480050
0.108398	-0.193359	0.785156	-0.862437	-0.749946	-0.421844	-0.128906	0.328125	0.433594	911	17_29_24_7641340
0.140625	-0.222656	0.817383	-0.862437	-0.759320	-0.421844	-0.187500	0.351563	0.457031	912	17_29_24_7802630
0.140625	-0.243164	0.834961	-0.881186	-0.759320	-0.421844	-0.152344	0.351563	0.433594	913	17_29_24_7963920
0.114258	-0.251953	0.846680	-0.890560	-0.749946	-0.421844	-0.128906	0.398438	0.421875	914	17_29_24_8125210
0.114258	-0.246094	0.852539	-0.918683	-0.749946	-0.403096	-0.140625	0.363281	0.480469	915	17_29_24_8286500
0.114258	-0.228516	0.846680	-0.937432	-0.787443	-0.393721	-0.152344	0.339844	0.492188	916	17_29_24_8447790
0.134766	-0.158203	0.820313	-0.956181	-0.796817	-0.384347	-0.164063	0.328125	0.445313	917	17_29_24_8609080
0.143555	-0.102539	0.776367	-0.956181	-0.806191	-0.365598	-0.152344	0.351563	0.398438	918	17_29_24_8770370
0.187500	-0.049805	0.700195	-0.918683	-0.806191	-0.365598	-0.140625	0.351563	0.468750	919	17_29_24_8931660
0.199219	-0.020508	0.679688	-0.909309	-0.787443	-0.356224	-0.058594	0.585938	0.480469	920	17_29_24_9092950
0.199219	-0.046875	0.662109	-0.890560	-0.759320	-0.356224	-0.164063	0.316406	0.480469	921	17_29_24_9254240
0.208008	-0.082031	0.694336	-0.890560	-0.740571	-0.356224	-0.187500	0.339844	0.503906	922	17_29_24_9415530
0.166992	-0.099609	0.703125	-0.881186	-0.712448	-0.365598	-0.164063	0.351563	0.468750	923	17_29_24_9576820
0.146484	-0.090820	0.723633	-0.881186	-0.712448	-0.365598	-0.058594	0.433594	0.468750	924	17_29_24_9738110
0.123047	-0.099609	0.723633	-0.862437	-0.731197	-0.356224	-0.164063	0.316406	0.492188	925	17_29_24_9899400
0.111328	-0.099609	0.717773	-0.862437	-0.749946	-0.346850	-0.082031	0.480469	0.468750	926	17_29_25_0060690
0.114258	-0.123047	0.735352	-0.843689	-0.768694	-0.346850	-0.164063	0.351563	0.433594	927	17_29_25_0221980
0.120117	-0.146484	0.750000	-0.843689	-0.787443	-0.346850	-0.199219	0.328125	0.503906	928	17_29_25_0383270
0.108398	-0.152344	0.764648	-0.834314	-0.796817	-0.346850	-0.140625	0.316406	0.515625	929	17_29_25_0544560
0.128906	-0.152344	0.770508	-0.824940	-0.806191	-0.346850	-0.164063	0.328125	0.457031	930	17_29_25_0705850
0.137695	-0.149414	0.782227	-0.834314	-0.806191	-0.365598	-0.187500	0.351563	0.445313	931	17_29_25_0867140
0.120117	-0.143555	0.776367	-0.834314	-0.806191	-0.365598	-0.175781	0.339844	0.457031	932	17_29_25_1028430
0.108398	-0.120117	0.779297	-0.843689	-0.815566	-0.374973	-0.187500	0.316406	0.410156	933	17_29_25_1189720
0.125977	-0.111328	0.758789	-0.824940	-0.843689	-0.365598	-0.187500	0.351563	0.433594	934	17_29_25_1351010
0.137695	-0.111328	0.764648	-0.815566	-0.853063	-0.365598	-0.187500	0.339844	0.562500	935	17_29_25_1512300
0.166992	-0.108398	0.747070	-0.834314	-0.862437	-0.365598	-0.199219	0.328125	0.539063	936	17_29_25_1673590
0.175781	-0.099609	0.750000	-0.806191	-0.862437	-0.365598	-0.187500	0.351563	0.468750	937	17_29_25_1834880
0.190430	-0.111328	0.723633	-0.806191	-0.881186	-0.365598	-0.199219	0.351563	0.421875	938	17_29_25_1996170
0.193359	-0.117188	0.744141	-0.806191	-0.871812	-0.365598	0.058594	0.656250	0.351563	939	17_29_25_2157460
0.199219	-0.120117	0.735352	-0.787443	-0.881186	-0.374973	-0.199219	0.351563	0.339844	940	17_29_25_2318750
0.208008	-0.123047	0.720703	-0.787443	-0.890560	-0.365598	-0.187500	0.351563	0.410156	941	17_29_25_2480040
0.234375	-0.134766	0.717773	-0.787443	-0.890560	-0.365598	-0.187500	0.328125	0.492188	942	17_29_25_2641330
0.246094	-0.134766	0.711914	-0.778068	-0.881186	-0.356224	-0.210938	0.351563	0.480469	943	17_29_25_2802620
0.251953	-0.161133	0.708984	-0.768694	-0.881186	-0.356224	-0.175781	0.445313	0.480469	944	17_29_25_2963910
0.263672	-0.166992	0.706055	-0.749946	-0.881186	-0.356224	-0.234375	0.351563	0.457031	945	17_29_25_3125200
0.292969	-0.169922	0.694336	-0.759320	-0.853063	-0.356224	-0.128906	0.445313	0.457031	946	17_29_25_3286490
0.295898	-0.178711	0.706055	-0.749946	-0.843689	-0.365598	-0.210938	0.351563	0.410156	947	17_29_25_3447780
0.301758	-0.178711	0.700195	-0.740571	-0.824940	-0.365598	-0.199219	0.351563	0.433594	948	17_29_25_3609070
0.310547	-0.187500	0.694336	-0.749946	-0.806191	-0.356224	-0.023438	0.609375	0.550781	949	17_29_25_3770360
0.319336	-0.172852	0.694336	-0.740571	-0.787443	-0.356224	-0.210938	0.375000	0.457031	950	17_29_25_3931650
0.322266	-0.172852	0.726563	-0.749946	-0.768694	-0.356224	-0.222656	0.363281	0.386719	951	17_29_25_4092940
0.322266	-0.205078	0.738281	-0.749946	-0.740571	-0.374973	-0.222656	0.351563	0.410156	952	17_29_25_4254230
0.333984	-0.210938	0.785156	-0.778068	-0.703074	-0.393721	-0.246094	0.386719	0.445313	953	17_29_25_4415520
0.322266	-0.202148	0.840820	-0.806191	-0.684325	-0.412470	-0.210938	0.386719	0.468750	954	17_29_25_4576810
0.307617	-0.251953	0.937500	-0.834314	-0.628079	-0.412470	-0.210938	0.375000	0.468750	955	17_29_25_4738100
0.231445	-0.246094	0.925781	-0.862437	-0.618705	-0.421844	-0.246094	0.328125	0.468750	956	17_29_25_4899390
0.190430	-0.196289	0.875977	-0.881186	-0.618705	-0.421844	-0.222656	0.316406	0.457031	957	17_29_25_5060680
0.164063	-0.161133	0.796875	-0.890560	-0.646828	-0.421844	-0.222656	0.363281	0.492188	958	17_29_25_5221970
0.181641	-0.143555	0.726563	-0.881186	-0.674951	-0.440593	-0.199219	0.363281	0.468750	959	17_29_25_5383260
0.208008	-0.143555	0.670898	-0.871812	-0.693700	-0.440593	-0.210938	0.316406	0.433594	960	17_29_25_5544550
0.216797	-0.128906	0.665039	-0.862437	-0.693700	-0.440593	-0.210938	0.351563	0.492188	961	17_29_25_5705840
0.216797	-0.166992	0.659180	-0.834314	-0.693700	-0.431219	-0.234375	0.386719	0.503906	962	17_29_25_5867130
0.243164	-0.166992	0.682617	-0.834314	-0.693700	-0.412470	-0.152344	0.632813	0.421875	963	17_29_25_6028420
0.269531	-0.202148	0.711914	-0.815566	-0.712448	-0.412470	-0.210938	0.375000	0.421875	964	17_29_25_6189710
0.284180	-0.216797	0.752930	-0.796817	-0.712448	-0.403096	-0.234375	0.386719	0.445313	965	17_29_25_6351000
0.316406	-0.213867	0.799805	-0.787443	-0.693700	-0.403096	-0.222656	0.386719	0.421875	966	17_29_25_6512290
0.336914	-0.208008	0.805664	-0.749946	-0.628079	-0.412470	-0.199219	0.375000	0.421875	967	17_29_25_6673580
0.351563	-0.184570	0.805664	-0.712448	-0.562459	-0.421844	-0.164063	0.421875	0.445313	968	17_29_25_6834870
0.322266	-0.266602	0.793945	-0.674951	-0.515588	-0.421844	-0.187500	0.363281	0.433594	969	17_29_25_6996160
0.290039	-0.348633	0.750000	-0.684325	-0.478090	-0.403096	-0.210938	0.386719	0.410156	970	17_29_25_7157450
0.284180	-0.328125	0.711914	-0.703074	-0.478090	-0.393721	-0.187500	0.386719	0.468750	971	17_29_25_7318740
0.237305	-0.290039	0.682617	-0.703074	-0.478090	-0.384347	-0.187500	0.410156	0.468750	972	17_29_25_7480030
0.193359	-0.275391	0.773438	-0.693700	-0.478090	-0.356224	-0.199219	0.398438	0.421875	973	17_29_25_7641320
0.070313	-0.342773	0.893555	-0.703074	-0.506213	-0.337475	-0.210938	0.410156	0.445313	974	17_29_25_7802610
0.023438	-0.351563	0.805664	-0.703074	-0.618705	-0.328101	-0.199219	0.410156	0.433594	975	17_29_25_7963900
0.128906	-0.237305	0.720703	-0.693700	-0.693700	-0.318727	-0.175781	0.386719	0.398438	976	17_29_25_8125190
0.237305	-0.254883	0.770508	-0.656202	-0.618705	-0.346850	-0.199219	0.351563	0.445313	977	17_29_25_8286480
0.190430	-0.304688	0.761719	-0.656202	-0.581208	-0.346850	-0.082031	0.503906	0.480469	978	17_29_25_8447770
0.175781	-0.331055	0.738281	-0.646828	-0.618705	-0.309353	-0.082031	0.503906	0.445313	979	17_29_25_8609060
0.181641	-0.339844	0.738281	-0.637454	-0.656202	-0.290604	-0.199219	0.433594	0.445313	980	17_29_25_8770350
0.184570	-0.369141	0.729492	-0.618705	-0.684325	-0.281230	-0.187500	0.421875	0.492188	981	17_29_25_8931640
0.202148	-0.395508	0.735352	-0.609331	-0.693700	-0.281230	-0.164063	0.375000	0.433594	982	17_29_25_9092930
0.272461	-0.369141	0.747070	-0.590582	-0.693700	-0.271855	-0.140625	0.644531	0.433594	983	17_29_25_9254220
0.295898	-0.342773	0.741211	-0.581208	-0.656202	-0.253107	-0.199219	0.574219	0.480469	984	17_29_25_9415510
0.249023	-0.363281	0.720703	-0.562459	-0.609331	-0.243732	-0.199219	0.457031	0.492188	985	17_29_25_9576800
0.199219	-0.380859	0.700195	-0.553085	-0.562459	-0.224984	-0.210938	0.421875	0.468750	986	17_29_25_9738090
0.161133	-0.404297	0.679688	-0.562459	-0.553085	-0.224984	-0.210938	0.351563	0.445313	987	17_29_25_9899380
0.125977	-0.407227	0.682617	-0.571833	-0.562459	-0.243732	-0.199219	0.421875	0.433594	988	17_29_26_0060670
0.102539	-0.442383	0.676758	-0.571833	-0.581208	-0.234358	-0.199219	0.433594	0.445313	989	17_29_26_0221960
0.125977	-0.448242	0.656250	-0.562459	-0.609331	-0.224984	-0.199219	0.445313	0.468750	990	17_29_26_0383250
0.123047	-0.445313	0.656250	-0.553085	-0.618705	-0.224984	-0.210938	0.457031	0.480469	991	17_29_26_0544540
0.140625	-0.451172	0.644531	-0.534336	-0.609331	-0.234358	-0.210938	0.421875	0.480469	992	17_29_26_0705830
0.137695	-0.445313	0.621094	-0.524962	-0.590582	-0.243732	-0.210938	0.445313	0.480469	993	17_29_26_0867120
0.155273	-0.454102	0.621094	-0.506213	-0.590582	-0.253107	-0.164063	0.457031	0.503906	994	17_29_26_1028410
0.143555	-0.468750	0.615234	-0.515588	-0.599956	-0.262481	-0.210938	0.468750	0.492188	995	17_29_26_1189700
0.146484	-0.465820	0.618164	-0.515588	-0.599956	-0.262481	-0.187500	0.433594	0.492188	996	17_29_26_1350990
0.158203	-0.489258	0.591797	-0.496839	-0.618705	-0.262481	-0.210938	0.386719	0.515625	997	17_29_26_1512280
0.166992	-0.486328	0.594727	-0.487465	-0.637454	-0.262481	-0.187500	0.421875	0.503906	998	17_29_26_1673570
0.164063	-0.486328	0.585938	-0.487465	-0.646828	-0.253107	-0.234375	0.421875	0.503906	999	17_29_26_1834860
0.172852	-0.498047	0.547852	-0.487465	-0.665577	-0.253107	-0.222656	0.410156	0.492188	1000	17_29_26_1996150
0.169922	-0.492188	0.547852	-0.496839	-0.674951	-0.253107	0.023438	0.750000	0.527344	1001	17_29_26_2157440
0.155273	-0.498047	0.553711	-0.487465	-0.684325	-0.234358	-0.199219	0.433594	0.503906	1002	17_29_26_2318730
0.137695	-0.503906	0.539063	-0.487465	-0.693700	-0.253107	-0.210938	0.339844	0.503906	1003	17_29_26_2480020
0.143555	-0.492188	0.527344	-0.496839	-0.703074	-0.262481	-0.187500	0.386719	0.503906	1004	17_29_26_2641310
0.161133	-0.486328	0.506836	-0.496839	-0.703074	-0.262481	-0.199219	0.433594	0.562500	1005	17_29_26_2802600
0.128906	-0.480469	0.512695	-0.506213	-0.693700	-0.271855	-0.140625	0.480469	0.515625	1006	17_29_26_2963890
0.143555	-0.512695	0.518555	-0.515588	-0.693700	-0.290604	-0.246094	0.433594	0.515625	1007	17_29_26_3125180
0.149414	-0.498047	0.533203	-0.515588	-0.693700	-0.299978	-0.246094	0.421875	0.515625	1008	17_29_26_3286470
0.125977	-0.492188	0.512695	-0.534336	-0.684325	-0.318727	-0.246094	0.386719	0.515625	1009	17_29_26_3447760
0.131836	-0.486328	0.512695	-0.534336	-0.684325	-0.328101	-0.234375	0.386719	0.527344	1010	17_29_26_3609050
0.137695	-0.480469	0.524414	-0.553085	-0.684325	-0.346850	-0.246094	0.386719	0.527344	1011	17_29_26_3770340
0.184570	-0.477539	0.524414	-0.581208	-0.674951	-0.365598	-0.246094	0.433594	0.527344	1012	17_29_26_3931630
0.193359	-0.486328	0.512695	-0.590582	-0.665577	-0.374973	-0.222656	0.445313	0.550781	1013	17_29_26_4092920
0.213867	-0.492188	0.471680	-0.599956	-0.656202	-0.384347	-0.234375	0.386719	0.550781	1014	17_29_26_4254210
0.246094	-0.486328	0.480469	-0.599956	-0.628079	-0.403096	-0.246094	0.386719	0.550781	1015	17_29_26_4415500
0.254883	-0.512695	0.503906	-0.618705	-0.581208	-0.421844	-0.246094	0.386719	0.562500	1016	17_29_26_4576790
0.231445	-0.544922	0.483398	-0.628079	-0.581208	-0.421844	-0.222656	0.410156	0.550781	1017	17_29_26_4738080
0.240234	-0.568359	0.480469	-0.628079	-0.581208	-0.421844	-0.246094	0.398438	0.550781	1018	17_29_26_4899370
0.205078	-0.574219	0.439453	-0.637454	-0.562459	-0.403096	-0.234375	0.375000	0.550781	1019	17_29_26_5060660
0.169922	-0.577148	0.395508	-0.637454	-0.543711	-0.384347	-0.199219	0.433594	0.550781	1020	17_29_26_5221950
0.137695	-0.556641	0.418945	-0.618705	-0.543711	-0.403096	-0.140625	0.562500	0.574219	1021	17_29_26_5383240
0.087891	-0.565430	0.439453	-0.618705	-0.524962	-0.421844	-0.246094	0.410156	0.550781	1022	17_29_26_5544530
0.055664	-0.583008	0.477539	-0.618705	-0.543711	-0.440593	-0.210938	0.433594	0.597656	1023	17_29_26_5705820
0.032227	-0.638672	0.457031	-0.618705	-0.571833	-0.431219	-0.234375	0.457031	0.585938	1024	17_29_26_5867110
0.032227	-0.635742	0.386719	-0.599956	-0.628079	-0.431219	-0.199219	0.480469	0.574219	1025	17_29_26_6028400
0.099609	-0.615234	0.375000	-0.599956	-0.665577	-0.431219	-0.222656	0.480469	0.597656	1026	17_29_26_6189690
0.193359	-0.594727	0.383789	-0.609331	-0.684325	-0.440593	-0.222656	0.398438	0.585938	1027	17_29_26_6350980
0.310547	-0.597656	0.389648	-0.599956	-0.646828	-0.421844	-0.210938	0.398438	0.597656	1028	17_29_26_6512270
0.372070	-0.600586	0.395508	-0.618705	-0.590582	-0.403096	-0.222656	0.386719	0.609375	1029	17_29_26_6673560
0.357422	-0.585938	0.407227	-0.628079	-0.524962	-0.384347	-0.199219	0.328125	0.644531	1030	17_29_26_6834850
0.237305	-0.626953	0.360352	-0.656202	-0.459342	-0.365598	-0.246094	0.351563	0.621094	1031	17_29_26_6996140
0.073242	-0.656250	0.310547	-0.656202	-0.459342	-0.374973	-0.234375	0.363281	0.585938	1032	17_29_26_7157430
-0.023438	-0.676758	0.234375	-0.665577	-0.506213	-0.384347	-0.234375	0.398438	0.597656	1033	17_29_26_7318720
-0.049805	-0.682617	0.240234	-0.665577	-0.581208	-0.403096	-0.210938	0.410156	0.597656	1034	17_29_26_7480010
0.008789	-0.706055	0.266602	-0.656202	-0.646828	-0.403096	-0.199219	0.421875	0.609375	1035	17_29_26_7641300
0.099609	-0.711914	0.260742	-0.646828	-0.684325	-0.403096	-0.222656	0.421875	0.609375	1036	17_29_26_7802590
0.172852	-0.708984	0.272461	-0.637454	-0.684325	-0.412470	-0.234375	0.386719	0.609375	1037	17_29_26_7963880
0.164063	-0.700195	0.237305	-0.637454	-0.665577	-0.412470	-0.222656	0.328125	0.597656	1038	17_29_26_8125170
0.149414	-0.723633	0.193359	-0.646828	-0.656202	-0.412470	-0.035156	0.515625	0.609375	1039	17_29_26_8286460
0.149414	-0.714844	0.196289	-0.656202	-0.656202	-0.421844	-0.199219	0.480469	0.609375	1040	17_29_26_8447750
0.123047	-0.750000	0.169922	-0.637454	-0.656202	-0.403096	-0.234375	0.468750	0.621094	1041	17_29_26_8609040
0.155273	-0.747070	0.164063	-0.628079	-0.674951	-0.412470	-0.222656	0.386719	0.609375	1042	17_29_26_8770330
0.155273	-0.747070	0.143555	-0.609331	-0.674951	-0.421844	-0.222656	0.433594	0.621094	1043	17_29_26_8931620
0.187500	-0.732422	0.143555	-0.618705	-0.656202	-0.421844	-0.199219	0.480469	0.632813	1044	17_29_26_9092910
0.178711	-0.711914	0.128906	-0.599956	-0.637454	-0.412470	-0.128906	0.773438	0.621094	1045	17_29_26_9254200
0.178711	-0.714844	0.099609	-0.581208	-0.609331	-0.412470	-0.199219	0.398438	0.632813	1046	17_29_26_9415490
0.175781	-0.697266	0.149414	-0.590582	-0.581208	-0.412470	-0.246094	0.433594	0.667969	1047	17_29_26_9576780
0.108398	-0.720703	0.169922	-0.590582	-0.562459	-0.412470	-0.222656	0.515625	0.714844	1048	17_29_26_9738070
0.090820	-0.703125	0.149414	-0.581208	-0.581208	-0.421844	-0.222656	0.468750	0.726563	1049	17_29_26_9899360
0.079102	-0.691406	0.166992	-0.562459	-0.609331	-0.421844	-0.199219	0.386719	0.667969	1050	17_29_27_0060650
0.105469	-0.679688	0.178711	-0.562459	-0.609331	-0.431219	-0.246094	0.386719	0.644531	1051	17_29_27_0221940
0.079102	-0.697266	0.152344	-0.562459	-0.590582	-0.431219	0.093750	0.750000	0.644531	1052	17_29_27_0383230
0.105469	-0.679688	0.152344	-0.543711	-0.599956	-0.431219	-0.199219	0.457031	0.679688	1053	17_29_27_0544520
0.099609	-0.688477	0.149414	-0.534336	-0.609331	-0.421844	-0.222656	0.421875	0.691406	1054	17_29_27_0705810
0.076172	-0.688477	0.146484	-0.524962	-0.599956	-0.431219	-0.199219	0.398438	0.667969	1055	17_29_27_0867100
0.032227	-0.673828	0.128906	-0.524962	-0.609331	-0.440593	-0.234375	0.398438	0.714844	1056	17_29_27_1028390
-0.020508	-0.688477	0.102539	-0.506213	-0.628079	-0.449967	-0.199219	0.421875	0.750000	1057	17_29_27_1189680
-0.017578	-0.676758	0.073242	-0.487465	-0.665577	-0.459342	-0.199219	0.480469	0.703125	1058	17_29_27_1350970
0.067383	-0.676758	0.041016	-0.468716	-0.721823	-0.449967	-0.199219	0.421875	0.691406	1059	17_29_27_1512260
0.123047	-0.685547	0.026367	-0.440593	-0.731197	-0.449967	-0.222656	0.386719	0.738281	1060	17_29_27_1673550
0.251953	-0.691406	0.023438	-0.431219	-0.693700	-0.431219	-0.199219	0.351563	0.738281	1061	17_29_27_1834840
0.328125	-0.732422	0.035156	-0.440593	-0.628079	-0.421844	-0.070313	0.550781	0.773438	1062	17_29_27_1996130
0.301758	-0.720703	0.058594	-0.431219	-0.515588	-0.403096	-0.199219	0.457031	0.785156	1063	17_29_27_2157420
0.208008	-0.752930	0.084961	-0.412470	-0.412470	-0.431219	-0.222656	0.445313	0.820313	1064	17_29_27_2318710
0.158203	-0.729492	0.082031	-0.393721	-0.365598	-0.440593	-0.035156	0.773438	0.808594	1065	17_29_27_2480000
0.114258	-0.735352	0.073242	-0.374973	-0.356224	-0.449967	-0.199219	0.410156	0.785156	1066	17_29_27_2641290
0.099609	-0.732422	0.087891	-0.403096	-0.365598	-0.459342	-0.234375	0.433594	0.785156	1067	17_29_27_2802580
0.123047	-0.744141	0.079102	-0.431219	-0.356224	-0.468716	-0.210938	0.433594	0.785156	1068	17_29_27_2963870
0.076172	-0.711914	0.070313	-0.487465	-0.356224	-0.468716	-0.199219	0.421875	0.761719	1069	17_29_27_3125160
0.079102	-0.738281	0.105469	-0.562459	-0.403096	-0.468716	-0.234375	0.398438	0.785156	1070	17_29_27_3286450
0.058594	-0.761719	0.035156	-0.609331	-0.478090	-0.449967	-0.210938	0.468750	0.808594	1071	17_29_27_3447740
0.125977	-0.767578	0.008789	-0.665577	-0.515588	-0.440593	-0.222656	0.433594	0.832031	1072	17_29_27_3609030
0.269531	-0.755859	0.046875	-0.721823	-0.496839	-0.449967	-0.234375	0.375000	0.785156	1073	17_29_27_3770320
0.357422	-0.750000	0.149414	-0.768694	-0.421844	-0.449967	-0.222656	0.363281	0.796875	1074	17_29_27_3931610
0.228516	-0.990234	0.257813	-0.815566	-0.271855	-0.496839	-0.257813	0.410156	0.796875	1075	17_29_27_4092900
0.339844	-0.990234	0.363281	-0.937432	-0.234358	-0.440593	-0.257813	0.398438	0.761719	1076	17_29_27_4254190
0.392578	-0.978516	0.600586	-1.106170	-0.149989	-0.365598	-0.234375	0.421875	0.796875	1077	17_29_27_4415480
0.580078	-0.958008	0.562500	-1.331153	0.000000	-0.346850	-0.246094	0.457031	0.773438	1078	17_29_27_4576770
0.700195	-0.703125	0.430664	-1.481142	0.056246	-0.234358	-0.222656	0.445313	0.738281	1079	17_29_27_4738060
0.629883	-0.679688	0.196289	-1.378025	0.065620	-0.215609	-0.269531	0.457031	0.761719	1080	17_29_27_4899350
0.474609	-0.896484	-0.079102	-1.340528	0.121866	-0.290604	-0.269531	0.457031	0.761719	1081	17_29_27_5060640
0.357422	-1.133789	-0.287109	-1.424896	0.234358	-0.365598	-0.292969	0.386719	0.750000	1082	17_29_27_5221930
0.178711	-1.253906	-0.407227	-1.556137	0.131240	-0.393721	-0.292969	0.421875	0.714844	1083	17_29_27_5383220
0.161133	-1.136719	-0.442383	-1.706126	-0.196861	-0.365598	-0.304688	0.421875	0.691406	1084	17_29_27_5544510
0.295898	-0.990234	-0.413086	-1.781121	-0.440593	-0.309353	-0.246094	0.410156	0.691406	1085	17_29_27_5705800
0.439453	-0.914063	-0.301758	-1.762372	-0.515588	-0.309353	-0.292969	0.398438	0.667969	1086	17_29_27_5867090
0.492188	-0.881836	-0.210938	-1.752998	-0.515588	-0.337475	-0.269531	0.375000	0.667969	1087	17_29_27_6028380
0.483398	-0.864258	-0.158203	-1.743623	-0.393721	-0.309353	-0.281250	0.457031	0.679688	1088	17_29_27_6189670
0.354492	-0.814453	-0.172852	-1.631132	-0.262481	-0.271855	-0.304688	0.445313	0.644531	1089	17_29_27_6350960
0.263672	-0.726563	-0.231445	-1.499891	-0.206235	-0.271855	-0.292969	0.375000	0.609375	1090	17_29_27_6512250
0.210938	-0.659180	-0.249023	-1.415522	-0.234358	-0.318727	-0.246094	0.339844	0.585938	1091	17_29_27_6673540
0.143555	-0.653320	-0.208008	-1.368651	-0.318727	-0.384347	-0.339844	0.468750	0.597656	1092	17_29_27_6834830
0.064453	-0.650391	-0.193359	-1.331153	-0.412470	-0.449967	-0.164063	0.632813	0.644531	1093	17_29_27_6996120
0.061523	-0.618164	-0.222656	-1.256159	-0.553085	-0.468716	-0.222656	0.398438	0.621094	1094	17_29_27_7157410
0.158203	-0.571289	-0.208008	-1.209287	-0.674951	-0.431219	-0.316406	0.328125	0.597656	1095	17_29_27_7318700
0.284180	-0.527344	-0.199219	-1.181164	-0.693700	-0.374973	-0.281250	0.433594	0.609375	1096	17_29_27_7479990
0.375000	-0.468750	-0.164063	-1.162416	-0.618705	-0.356224	-0.304688	0.386719	0.574219	1097	17_29_27_7641280
0.342773	-0.442383	-0.125977	-1.153041	-0.506213	-0.374973	-0.281250	0.316406	0.574219	1098	17_29_27_7802570
0.316406	-0.410156	-0.108398	-1.115544	-0.365598	-0.421844	-0.292969	0.363281	0.574219	1099	17_29_27_7963860
0.251953	-0.375000	-0.105469	-1.021801	-0.262481	-0.459342	-0.269531	0.398438	0.574219	1100	17_29_27_8125150
0.240234	-0.480469	-0.067383	-0.890560	-0.159363	-0.478090	-0.316406	0.375000	0.585938	1101	17_29_27_8286440
0.225586	-0.597656	0.008789	-0.899935	-0.056246	-0.468716	-0.304688	0.386719	0.574219	1102	17_29_27_8447730
0.140625	-0.565430	0.123047	-0.890560	-0.037497	-0.468716	-0.281250	0.375000	0.574219	1103	17_29_27_8609020
0.064453	-0.536133	0.307617	-0.721823	-0.056246	-0.496839	-0.281250	0.410156	0.562500	1104	17_29_27_8770310
-0.143555	-0.638672	0.603516	-0.637454	-0.149989	-0.562459	-0.152344	0.457031	0.574219	1105	17_29_27_8931600
-0.442383	-0.673828	0.670898	-0.740571	-0.328101	-0.609331	-0.082031	0.703125	0.585938	1106	17_29_27_9092890
-0.260742	-0.703125	0.524414	-0.656202	-0.918683	-0.515588	-0.281250	0.468750	0.562500	1107	17_29_27_9254180
0.278320	-0.802734	0.629883	-0.693700	-1.368651	-0.271855	-0.246094	0.457031	0.585938	1108	17_29_27_9415470
0.512695	-0.673828	0.553711	-0.890560	-1.265533	-0.159363	-0.269531	0.433594	0.585938	1109	17_29_27_9576760
0.457031	-0.618164	0.351563	-0.749946	-1.256159	-0.253107	-0.257813	0.480469	0.609375	1110	17_29_27_9738050
0.430664	-0.670898	0.084961	-0.656202	-1.321779	-0.356224	-0.292969	0.386719	0.574219	1111	17_29_27_9899340
0.738281	-0.981445	0.052734	-0.403096	-1.049924	-0.412470	-0.292969	0.410156	0.574219	1112	17_29_28_0060630
1.139648	-1.497070	0.597656	-0.918683	-0.834314	-0.421844	-0.292969	0.468750	0.585938	1113	17_29_28_0221920
0.216797	-0.336914	0.711914	-1.462394	-0.656202	-0.403096	-0.269531	0.433594	0.585938	1114	17_29_28_0383210
-0.486328	-0.102539	0.208008	-0.599956	-0.815566	-0.599956	-0.234375	0.421875	0.585938	1115	17_29_28_0544500
-0.029297	-0.509766	-0.208008	-0.431219	-0.787443	-0.665577	-0.222656	0.375000	0.574219	1116	17_29_28_0705790
0.333984	-0.796875	-0.196289	-0.703074	-0.806191	-0.609331	-0.281250	0.410156	0.574219	1117	17_29_28_0867080
0.380859	-0.700195	0.055664	-0.778068	-0.346850	-0.571833	-0.257813	0.410156	0.597656	1118	17_29_28_1028370
0.020508	-0.647461	-0.064453	-0.721823	-0.206235	-0.562459	-0.187500	0.609375	0.656250	1119	17_29_28_1189660
