sensor_ID	000666015735
Accel_X	Accel_Y	Accel_Z	Roll	Pitch	Yaw	Mag_X	Mag_Y	Mag_Z	Count	SysTime
0.210938	-0.169922	0.776367	-0.834314	-0.721823	-0.374973	-0.246094	0.375000	0.363281	0	16_54_04_6410000
0.184570	-0.216797	0.782227	-0.843689	-0.721823	-0.393721	-0.222656	0.363281	0.480469	1	16_54_04_6571290
0.169922	-0.228516	0.788086	-0.853063	-0.749946	-0.393721	-0.222656	0.351563	0.457031	2	16_54_04_6732580
0.184570	-0.205078	0.758789	-0.862437	-0.749946	-0.403096	-0.199219	0.375000	0.375000	3	16_54_04_6893870
0.228516	-0.202148	0.741211	-0.862437	-0.740571	-0.403096	-0.199219	0.351563	0.398438	4	16_54_04_7055160
0.246094	-0.190430	0.720703	-0.862437	-0.731197	-0.403096	-0.199219	0.375000	0.445313	5	16_54_04_7216450
0.251953	-0.190430	0.735352	-0.853063	-0.703074	-0.403096	-0.187500	0.375000	0.480469	6	16_54_04_7377740
0.222656	-0.199219	0.735352	-0.843689	-0.693700	-0.403096	-0.187500	0.375000	0.457031	7	16_54_04_7539030
0.208008	-0.216797	0.758789	-0.853063	-0.703074	-0.412470	-0.222656	0.351563	0.410156	8	16_54_04_7700320
0.190430	-0.208008	0.770508	-0.853063	-0.712448	-0.412470	-0.210938	0.363281	0.410156	9	16_54_04_7861610
0.202148	-0.205078	0.776367	-0.853063	-0.721823	-0.412470	-0.140625	0.468750	0.410156	10	16_54_04_8022900
0.208008	-0.196289	0.764648	-0.853063	-0.721823	-0.412470	-0.210938	0.375000	0.410156	11	16_54_04_8184190
0.219727	-0.187500	0.758789	-0.862437	-0.721823	-0.403096	-0.199219	0.398438	0.421875	12	16_54_04_8345480
0.237305	-0.187500	0.752930	-0.853063	-0.721823	-0.393721	-0.234375	0.363281	0.398438	13	16_54_04_8506770
0.240234	-0.199219	0.752930	-0.843689	-0.712448	-0.393721	-0.199219	0.375000	0.468750	14	16_54_04_8668060
0.225586	-0.193359	0.747070	-0.853063	-0.703074	-0.393721	-0.234375	0.375000	0.445313	15	16_54_04_8829350
0.225586	-0.199219	0.744141	-0.843689	-0.712448	-0.393721	-0.222656	0.656250	0.445313	16	16_54_04_8990640
0.205078	-0.205078	0.747070	-0.853063	-0.712448	-0.403096	-0.210938	0.375000	0.433594	17	16_54_04_9151930
0.199219	-0.205078	0.758789	-0.853063	-0.712448	-0.403096	-0.222656	0.375000	0.457031	18	16_54_04_9313220
0.199219	-0.196289	0.750000	-0.853063	-0.712448	-0.403096	-0.128906	0.492188	0.468750	19	16_54_04_9474510
0.202148	-0.205078	0.761719	-0.862437	-0.712448	-0.403096	-0.117188	0.480469	0.445313	20	16_54_04_9635800
0.213867	-0.213867	0.761719	-0.862437	-0.712448	-0.403096	-0.199219	0.375000	0.410156	21	16_54_04_9797090
0.210938	-0.202148	0.758789	-0.853063	-0.712448	-0.403096	-0.210938	0.398438	0.363281	22	16_54_04_9958380
0.213867	-0.202148	0.738281	-0.834314	-0.712448	-0.403096	-0.222656	0.375000	0.410156	23	16_54_05_0119670
0.231445	-0.208008	0.744141	-0.853063	-0.721823	-0.403096	-0.222656	0.351563	0.468750	24	16_54_05_0280960
0.222656	-0.196289	0.747070	-0.843689	-0.712448	-0.403096	-0.187500	0.375000	0.480469	25	16_54_05_0442250
0.222656	-0.202148	0.747070	-0.862437	-0.712448	-0.403096	-0.187500	0.726563	0.457031	26	16_54_05_0603540
0.216797	-0.193359	0.741211	-0.853063	-0.712448	-0.403096	-0.187500	0.375000	0.410156	27	16_54_05_0764830
0.222656	-0.205078	0.761719	-0.862437	-0.712448	-0.393721	-0.210938	0.363281	0.433594	28	16_54_05_0926120
0.213867	-0.196289	0.767578	-0.853063	-0.712448	-0.403096	-0.199219	0.328125	0.433594	29	16_54_05_1087410
0.222656	-0.196289	0.758789	-0.853063	-0.712448	-0.393721	-0.210938	0.339844	0.386719	30	16_54_05_1248700
0.219727	-0.205078	0.750000	-0.862437	-0.712448	-0.403096	-0.199219	0.351563	0.398438	31	16_54_05_1409990
0.225586	-0.199219	0.752930	-0.862437	-0.712448	-0.393721	-0.199219	0.386719	0.433594	32	16_54_05_1571280
0.219727	-0.190430	0.747070	-0.853063	-0.712448	-0.393721	-0.222656	0.375000	0.457031	33	16_54_05_1732570
0.222656	-0.187500	0.752930	-0.853063	-0.712448	-0.403096	-0.199219	0.351563	0.480469	34	16_54_05_1893860
0.208008	-0.196289	0.750000	-0.853063	-0.703074	-0.393721	-0.199219	0.339844	0.492188	35	16_54_05_2055150
0.213867	-0.190430	0.752930	-0.853063	-0.712448	-0.403096	-0.234375	0.363281	0.480469	36	16_54_05_2216440
0.205078	-0.205078	0.750000	-0.853063	-0.703074	-0.403096	-0.210938	0.585938	0.410156	37	16_54_05_2377730
0.205078	-0.199219	0.750000	-0.853063	-0.712448	-0.403096	-0.210938	0.375000	0.363281	38	16_54_05_2539020
0.205078	-0.205078	0.750000	-0.853063	-0.712448	-0.403096	-0.199219	0.375000	0.421875	39	16_54_05_2700310
0.210938	-0.205078	0.755859	-0.853063	-0.721823	-0.403096	-0.187500	0.375000	0.468750	40	16_54_05_2861600
0.216797	-0.202148	0.735352	-0.853063	-0.712448	-0.403096	-0.199219	0.375000	0.398438	41	16_54_05_3022890
0.213867	-0.202148	0.747070	-0.853063	-0.712448	-0.403096	-0.187500	0.363281	0.375000	42	16_54_05_3184180
0.216797	-0.205078	0.752930	-0.853063	-0.712448	-0.403096	-0.210938	0.351563	0.421875	43	16_54_05_3345470
0.213867	-0.196289	0.747070	-0.843689	-0.712448	-0.403096	-0.187500	0.363281	0.492188	44	16_54_05_3506760
0.210938	-0.199219	0.750000	-0.853063	-0.721823	-0.403096	-0.210938	0.363281	0.468750	45	16_54_05_3668050
0.213867	-0.199219	0.755859	-0.853063	-0.712448	-0.403096	-0.246094	0.351563	0.410156	46	16_54_05_3829340
0.216797	-0.187500	0.752930	-0.853063	-0.712448	-0.403096	-0.222656	0.375000	0.375000	47	16_54_05_3990630
0.219727	-0.193359	0.755859	-0.853063	-0.721823	-0.403096	-0.199219	0.433594	0.457031	48	16_54_05_4151920
0.216797	-0.205078	0.752930	-0.853063	-0.712448	-0.403096	-0.257813	0.375000	0.480469	49	16_54_05_4313210
0.228516	-0.193359	0.761719	-0.862437	-0.712448	-0.403096	-0.175781	0.445313	0.421875	50	16_54_05_4474500
0.228516	-0.205078	0.755859	-0.853063	-0.712448	-0.403096	-0.246094	0.375000	0.398438	51	16_54_05_4635790
0.222656	-0.193359	0.764648	-0.853063	-0.712448	-0.403096	-0.222656	0.386719	0.433594	52	16_54_05_4797080
0.210938	-0.202148	0.761719	-0.853063	-0.712448	-0.403096	-0.234375	0.351563	0.433594	53	16_54_05_4958370
0.213867	-0.202148	0.750000	-0.853063	-0.712448	-0.403096	-0.257813	0.328125	0.421875	54	16_54_05_5119660
0.216797	-0.205078	0.755859	-0.853063	-0.712448	-0.403096	-0.222656	0.375000	0.386719	55	16_54_05_5280950
0.222656	-0.205078	0.747070	-0.853063	-0.712448	-0.403096	-0.222656	0.363281	0.445313	56	16_54_05_5442240
0.208008	-0.199219	0.747070	-0.853063	-0.712448	-0.403096	-0.222656	0.351563	0.433594	57	16_54_05_5603530
0.219727	-0.193359	0.758789	-0.853063	-0.712448	-0.403096	-0.222656	0.351563	0.398438	58	16_54_05_5764820
0.205078	-0.205078	0.752930	-0.862437	-0.712448	-0.403096	-0.187500	0.398438	0.410156	59	16_54_05_5926110
0.216797	-0.205078	0.758789	-0.853063	-0.712448	-0.403096	-0.222656	0.351563	0.398438	60	16_54_05_6087400
0.213867	-0.193359	0.758789	-0.862437	-0.712448	-0.403096	-0.210938	0.363281	0.386719	61	16_54_05_6248690
0.208008	-0.205078	0.758789	-0.853063	-0.712448	-0.403096	-0.070313	0.562500	0.457031	62	16_54_05_6409980
0.222656	-0.193359	0.764648	-0.862437	-0.712448	-0.403096	-0.082031	0.539063	0.503906	63	16_54_05_6571270
0.216797	-0.193359	0.758789	-0.853063	-0.712448	-0.403096	-0.234375	0.386719	0.457031	64	16_54_05_6732560
0.216797	-0.193359	0.761719	-0.862437	-0.712448	-0.403096	0.023438	0.703125	0.468750	65	16_54_05_6893850
0.216797	-0.205078	0.744141	-0.853063	-0.712448	-0.403096	-0.199219	0.351563	0.457031	66	16_54_05_7055140
0.213867	-0.205078	0.744141	-0.853063	-0.712448	-0.403096	-0.210938	0.304688	0.386719	67	16_54_05_7216430
0.216797	-0.196289	0.747070	-0.853063	-0.712448	-0.403096	-0.222656	0.597656	0.433594	68	16_54_05_7377720
0.213867	-0.205078	0.758789	-0.862437	-0.712448	-0.403096	-0.187500	0.410156	0.480469	69	16_54_05_7539010
0.213867	-0.193359	0.752930	-0.853063	-0.712448	-0.403096	-0.222656	0.339844	0.398438	70	16_54_05_7700300
0.216797	-0.187500	0.758789	-0.853063	-0.721823	-0.403096	-0.246094	0.363281	0.410156	71	16_54_05_7861590
0.213867	-0.205078	0.752930	-0.853063	-0.721823	-0.403096	-0.199219	0.351563	0.433594	72	16_54_05_8022880
0.219727	-0.193359	0.752930	-0.853063	-0.712448	-0.403096	-0.199219	0.375000	0.421875	73	16_54_05_8184170
0.210938	-0.196289	0.758789	-0.853063	-0.712448	-0.403096	-0.210938	0.386719	0.433594	74	16_54_05_8345460
0.228516	-0.199219	0.750000	-0.862437	-0.721823	-0.403096	-0.035156	0.667969	0.480469	75	16_54_05_8506750
0.225586	-0.196289	0.750000	-0.843689	-0.712448	-0.403096	-0.210938	0.316406	0.433594	76	16_54_05_8668040
0.219727	-0.205078	0.752930	-0.862437	-0.721823	-0.403096	-0.175781	0.375000	0.457031	77	16_54_05_8829330
0.222656	-0.205078	0.747070	-0.853063	-0.712448	-0.403096	-0.210938	0.375000	0.433594	78	16_54_05_8990620
0.216797	-0.205078	0.758789	-0.853063	-0.712448	-0.403096	-0.222656	0.375000	0.445313	79	16_54_05_9151910
0.219727	-0.187500	0.758789	-0.862437	-0.712448	-0.403096	-0.199219	0.375000	0.503906	80	16_54_05_9313200
0.225586	-0.193359	0.752930	-0.853063	-0.712448	-0.403096	-0.199219	0.363281	0.492188	81	16_54_05_9474490
0.222656	-0.190430	0.747070	-0.843689	-0.712448	-0.403096	-0.187500	0.351563	0.503906	82	16_54_05_9635780
0.222656	-0.193359	0.752930	-0.862437	-0.712448	-0.403096	-0.199219	0.375000	0.445313	83	16_54_05_9797070
0.222656	-0.196289	0.761719	-0.881186	-0.712448	-0.403096	-0.234375	0.363281	0.386719	84	16_54_05_9958360
0.228516	-0.193359	0.750000	-0.853063	-0.712448	-0.403096	-0.199219	0.339844	0.386719	85	16_54_06_0119650
0.222656	-0.196289	0.752930	-0.853063	-0.712448	-0.403096	-0.187500	0.375000	0.398438	86	16_54_06_0280940
0.219727	-0.199219	0.752930	-0.862437	-0.712448	-0.403096	-0.187500	0.375000	0.421875	87	16_54_06_0442230
0.222656	-0.199219	0.752930	-0.843689	-0.703074	-0.403096	-0.199219	0.375000	0.410156	88	16_54_06_0603520
0.213867	-0.193359	0.761719	-0.843689	-0.712448	-0.403096	-0.199219	0.375000	0.398438	89	16_54_06_0764810
0.213867	-0.199219	0.747070	-0.853063	-0.712448	-0.403096	-0.222656	0.375000	0.398438	90	16_54_06_0926100
0.219727	-0.193359	0.750000	-0.853063	-0.703074	-0.403096	-0.222656	0.375000	0.445313	91	16_54_06_1087390
0.210938	-0.196289	0.755859	-0.843689	-0.712448	-0.403096	-0.246094	0.375000	0.457031	92	16_54_06_1248680
0.222656	-0.199219	0.755859	-0.862437	-0.712448	-0.403096	-0.222656	0.375000	0.457031	93	16_54_06_1409970
0.219727	-0.196289	0.747070	-0.843689	-0.712448	-0.403096	-0.187500	0.351563	0.410156	94	16_54_06_1571260
0.205078	-0.196289	0.752930	-0.853063	-0.712448	-0.403096	-0.187500	0.339844	0.421875	95	16_54_06_1732550
0.216797	-0.208008	0.755859	-0.862437	-0.712448	-0.403096	-0.164063	0.398438	0.468750	96	16_54_06_1893840
0.216797	-0.196289	0.758789	-0.853063	-0.712448	-0.403096	-0.023438	0.761719	0.433594	97	16_54_06_2055130
0.216797	-0.196289	0.747070	-0.862437	-0.712448	-0.393721	-0.210938	0.339844	0.410156	98	16_54_06_2216420
0.216797	-0.196289	0.750000	-0.853063	-0.712448	-0.403096	-0.187500	0.656250	0.457031	99	16_54_06_2377710
0.213867	-0.202148	0.744141	-0.862437	-0.712448	-0.403096	-0.140625	0.445313	0.468750	100	16_54_06_2539000
0.210938	-0.193359	0.761719	-0.853063	-0.712448	-0.403096	-0.187500	0.375000	0.410156	101	16_54_06_2700290
0.205078	-0.205078	0.755859	-0.853063	-0.712448	-0.403096	-0.199219	0.363281	0.410156	102	16_54_06_2861580
0.202148	-0.199219	0.747070	-0.853063	-0.712448	-0.403096	-0.222656	0.351563	0.410156	103	16_54_06_3022870
0.210938	-0.199219	0.755859	-0.862437	-0.712448	-0.403096	-0.058594	0.550781	0.433594	104	16_54_06_3184160
0.213867	-0.205078	0.758789	-0.853063	-0.721823	-0.403096	-0.222656	0.363281	0.503906	105	16_54_06_3345450
0.216797	-0.202148	0.755859	-0.862437	-0.712448	-0.403096	-0.199219	0.386719	0.492188	106	16_54_06_3506740
0.222656	-0.205078	0.758789	-0.853063	-0.712448	-0.403096	-0.210938	0.351563	0.433594	107	16_54_06_3668030
0.219727	-0.205078	0.752930	-0.862437	-0.712448	-0.403096	-0.058594	0.808594	0.410156	108	16_54_06_3829320
0.213867	-0.199219	0.761719	-0.853063	-0.712448	-0.403096	-0.210938	0.375000	0.398438	109	16_54_06_3990610
0.210938	-0.208008	0.755859	-0.862437	-0.684325	-0.403096	-0.222656	0.375000	0.386719	110	16_54_06_4151900
0.216797	-0.196289	0.758789	-0.843689	-0.712448	-0.403096	-0.222656	0.375000	0.375000	111	16_54_06_4313190
0.219727	-0.196289	0.758789	-0.853063	-0.712448	-0.403096	-0.222656	0.375000	0.457031	112	16_54_06_4474480
0.213867	-0.190430	0.752930	-0.862437	-0.712448	-0.403096	-0.199219	0.363281	0.457031	113	16_54_06_4635770
0.228516	-0.196289	0.747070	-0.843689	-0.712448	-0.403096	-0.199219	0.363281	0.433594	114	16_54_06_4797060
0.219727	-0.199219	0.758789	-0.853063	-0.721823	-0.403096	-0.234375	0.351563	0.433594	115	16_54_06_4958350
0.225586	-0.193359	0.747070	-0.853063	-0.721823	-0.403096	-0.234375	0.351563	0.421875	116	16_54_06_5119640
0.219727	-0.202148	0.758789	-0.862437	-0.712448	-0.403096	0.082031	0.867188	0.410156	117	16_54_06_5280930
0.216797	-0.193359	0.750000	-0.853063	-0.712448	-0.403096	-0.210938	0.351563	0.410156	118	16_54_06_5442220
0.222656	-0.199219	0.755859	-0.853063	-0.712448	-0.403096	-0.187500	0.351563	0.433594	119	16_54_06_5603510
0.219727	-0.196289	0.758789	-0.853063	-0.712448	-0.403096	-0.246094	0.363281	0.421875	120	16_54_06_5764800
0.210938	-0.187500	0.758789	-0.853063	-0.712448	-0.403096	-0.210938	0.363281	0.421875	121	16_54_06_5926090
0.216797	-0.199219	0.747070	-0.862437	-0.721823	-0.403096	-0.210938	0.351563	0.492188	122	16_54_06_6087380
0.216797	-0.205078	0.750000	-0.853063	-0.712448	-0.403096	-0.222656	0.375000	0.457031	123	16_54_06_6248670
0.222656	-0.199219	0.750000	-0.853063	-0.712448	-0.403096	-0.210938	0.351563	0.433594	124	16_54_06_6409960
0.225586	-0.205078	0.752930	-0.862437	-0.712448	-0.403096	-0.199219	0.304688	0.445313	125	16_54_06_6571250
0.219727	-0.193359	0.758789	-0.853063	-0.712448	-0.403096	-0.140625	0.410156	0.386719	126	16_54_06_6732540
0.216797	-0.193359	0.758789	-0.843689	-0.712448	-0.403096	-0.199219	0.375000	0.398438	127	16_54_06_6893830
0.213867	-0.193359	0.752930	-0.862437	-0.712448	-0.403096	-0.246094	0.375000	0.410156	128	16_54_06_7055120
0.213867	-0.199219	0.747070	-0.853063	-0.712448	-0.403096	-0.164063	0.421875	0.445313	129	16_54_06_7216410
0.213867	-0.202148	0.752930	-0.853063	-0.712448	-0.403096	-0.210938	0.363281	0.457031	130	16_54_06_7377700
0.213867	-0.205078	0.752930	-0.853063	-0.712448	-0.393721	-0.187500	0.351563	0.433594	131	16_54_06_7538990
0.216797	-0.199219	0.752930	-0.853063	-0.712448	-0.403096	-0.222656	0.386719	0.457031	132	16_54_06_7700280
0.205078	-0.199219	0.755859	-0.843689	-0.712448	-0.403096	-0.257813	0.398438	0.480469	133	16_54_06_7861570
0.210938	-0.193359	0.752930	-0.853063	-0.712448	-0.403096	-0.199219	0.375000	0.468750	134	16_54_06_8022860
0.213867	-0.196289	0.755859	-0.862437	-0.712448	-0.403096	-0.187500	0.363281	0.468750	135	16_54_06_8184150
0.213867	-0.205078	0.752930	-0.853063	-0.712448	-0.403096	-0.046875	0.597656	0.433594	136	16_54_06_8345440
0.205078	-0.202148	0.747070	-0.853063	-0.712448	-0.403096	-0.210938	0.375000	0.410156	137	16_54_06_8506730
0.210938	-0.199219	0.750000	-0.853063	-0.712448	-0.403096	-0.011719	0.679688	0.480469	138	16_54_06_8668020
0.216797	-0.196289	0.755859	-0.853063	-0.712448	-0.403096	-0.210938	0.351563	0.503906	139	16_54_06_8829310
0.213867	-0.196289	0.761719	-0.853063	-0.712448	-0.403096	-0.187500	0.328125	0.445313	140	16_54_06_8990600
0.210938	-0.193359	0.752930	-0.862437	-0.712448	-0.403096	-0.164063	0.597656	0.503906	141	16_54_06_9151890
0.219727	-0.199219	0.752930	-0.862437	-0.712448	-0.403096	-0.175781	0.433594	0.457031	142	16_54_06_9313180
0.216797	-0.202148	0.755859	-0.853063	-0.712448	-0.403096	-0.222656	0.375000	0.457031	143	16_54_06_9474470
0.210938	-0.199219	0.752930	-0.853063	-0.712448	-0.403096	-0.222656	0.375000	0.457031	144	16_54_06_9635760
0.216797	-0.205078	0.758789	-0.853063	-0.712448	-0.403096	-0.128906	0.503906	0.503906	145	16_54_06_9797050
0.208008	-0.199219	0.755859	-0.853063	-0.712448	-0.403096	-0.199219	0.363281	0.503906	146	16_54_06_9958340
0.219727	-0.199219	0.752930	-0.843689	-0.712448	-0.403096	-0.210938	0.351563	0.457031	147	16_54_07_0119630
0.216797	-0.193359	0.750000	-0.853063	-0.712448	-0.403096	-0.187500	0.328125	0.457031	148	16_54_07_0280920
0.210938	-0.205078	0.758789	-0.853063	-0.712448	-0.403096	-0.210938	0.363281	0.445313	149	16_54_07_0442210
0.213867	-0.202148	0.758789	-0.853063	-0.712448	-0.403096	-0.175781	0.421875	0.468750	150	16_54_07_0603500
0.222656	-0.193359	0.758789	-0.853063	-0.712448	-0.403096	-0.222656	0.363281	0.457031	151	16_54_07_0764790
0.225586	-0.196289	0.758789	-0.853063	-0.712448	-0.403096	-0.222656	0.363281	0.433594	152	16_54_07_0926080
0.225586	-0.196289	0.758789	-0.853063	-0.712448	-0.403096	-0.164063	0.398438	0.433594	153	16_54_07_1087370
0.213867	-0.199219	0.752930	-0.853063	-0.712448	-0.393721	-0.222656	0.351563	0.433594	154	16_54_07_1248660
0.219727	-0.199219	0.752930	-0.853063	-0.712448	-0.403096	-0.199219	0.375000	0.445313	155	16_54_07_1409950
0.210938	-0.196289	0.752930	-0.862437	-0.712448	-0.403096	-0.222656	0.375000	0.457031	156	16_54_07_1571240
0.216797	-0.193359	0.755859	-0.853063	-0.712448	-0.403096	-0.199219	0.375000	0.457031	157	16_54_07_1732530
0.205078	-0.202148	0.752930	-0.853063	-0.712448	-0.403096	-0.035156	0.632813	0.468750	158	16_54_07_1893820
0.216797	-0.196289	0.758789	-0.853063	-0.712448	-0.403096	-0.175781	0.398438	0.492188	159	16_54_07_2055110
0.228516	-0.199219	0.755859	-0.843689	-0.712448	-0.403096	-0.187500	0.375000	0.445313	160	16_54_07_2216400
0.216797	-0.199219	0.752930	-0.853063	-0.712448	-0.403096	-0.210938	0.375000	0.398438	161	16_54_07_2377690
0.216797	-0.196289	0.755859	-0.862437	-0.712448	-0.403096	-0.187500	0.585938	0.433594	162	16_54_07_2538980
0.216797	-0.199219	0.755859	-0.853063	-0.712448	-0.403096	-0.210938	0.375000	0.386719	163	16_54_07_2700270
0.216797	-0.193359	0.752930	-0.843689	-0.712448	-0.403096	-0.187500	0.351563	0.410156	164	16_54_07_2861560
0.216797	-0.193359	0.752930	-0.853063	-0.712448	-0.403096	-0.199219	0.351563	0.421875	165	16_54_07_3022850
0.216797	-0.199219	0.750000	-0.843689	-0.712448	-0.393721	-0.222656	0.375000	0.398438	166	16_54_07_3184140
0.222656	-0.187500	0.758789	-0.853063	-0.712448	-0.403096	-0.234375	0.375000	0.386719	167	16_54_07_3345430
0.216797	-0.196289	0.752930	-0.853063	-0.712448	-0.403096	-0.199219	0.375000	0.410156	168	16_54_07_3506720
0.210938	-0.193359	0.755859	-0.853063	-0.712448	-0.403096	-0.222656	0.363281	0.445313	169	16_54_07_3668010
0.216797	-0.202148	0.758789	-0.843689	-0.712448	-0.403096	-0.187500	0.339844	0.492188	170	16_54_07_3829300
0.210938	-0.199219	0.761719	-0.853063	-0.712448	-0.403096	-0.199219	0.386719	0.527344	171	16_54_07_3990590
0.222656	-0.190430	0.752930	-0.853063	-0.712448	-0.403096	-0.187500	0.351563	0.457031	172	16_54_07_4151880
0.219727	-0.205078	0.755859	-0.843689	-0.712448	-0.393721	-0.210938	0.375000	0.410156	173	16_54_07_4313170
0.216797	-0.202148	0.758789	-0.853063	-0.712448	-0.403096	-0.210938	0.375000	0.398438	174	16_54_07_4474460
0.208008	-0.205078	0.750000	-0.853063	-0.712448	-0.403096	-0.187500	0.375000	0.433594	175	16_54_07_4635750
0.213867	-0.199219	0.752930	-0.843689	-0.712448	-0.403096	-0.210938	0.363281	0.421875	176	16_54_07_4797040
0.205078	-0.190430	0.755859	-0.853063	-0.712448	-0.403096	-0.199219	0.351563	0.386719	177	16_54_07_4958330
0.216797	-0.196289	0.752930	-0.853063	-0.712448	-0.403096	-0.222656	0.375000	0.410156	178	16_54_07_5119620
0.216797	-0.190430	0.752930	-0.853063	-0.712448	-0.393721	-0.199219	0.375000	0.468750	179	16_54_07_5280910
0.216797	-0.199219	0.752930	-0.853063	-0.712448	-0.403096	-0.199219	0.363281	0.433594	180	16_54_07_5442200
0.205078	-0.196289	0.752930	-0.843689	-0.712448	-0.403096	-0.199219	0.316406	0.375000	181	16_54_07_5603490
0.213867	-0.199219	0.764648	-0.853063	-0.721823	-0.403096	-0.210938	0.304688	0.386719	182	16_54_07_5764780
0.210938	-0.205078	0.750000	-0.853063	-0.712448	-0.403096	-0.210938	0.351563	0.410156	183	16_54_07_5926070
0.216797	-0.193359	0.750000	-0.853063	-0.721823	-0.393721	-0.187500	0.375000	0.433594	184	16_54_07_6087360
0.219727	-0.196289	0.752930	-0.862437	-0.721823	-0.403096	-0.246094	0.375000	0.457031	185	16_54_07_6248650
0.219727	-0.202148	0.758789	-0.843689	-0.712448	-0.403096	-0.222656	0.375000	0.457031	186	16_54_07_6409940
0.222656	-0.199219	0.747070	-0.853063	-0.721823	-0.403096	-0.187500	0.363281	0.410156	187	16_54_07_6571230
0.216797	-0.193359	0.747070	-0.853063	-0.712448	-0.403096	-0.175781	0.398438	0.398438	188	16_54_07_6732520
0.219727	-0.196289	0.758789	-0.843689	-0.712448	-0.403096	-0.222656	0.375000	0.433594	189	16_54_07_6893810
0.225586	-0.190430	0.752930	-0.853063	-0.712448	-0.403096	-0.222656	0.375000	0.410156	190	16_54_07_7055100
0.216797	-0.193359	0.752930	-0.853063	-0.712448	-0.403096	-0.222656	0.375000	0.398438	191	16_54_07_7216390
0.219727	-0.210938	0.752930	-0.862437	-0.712448	-0.403096	-0.082031	0.785156	0.457031	192	16_54_07_7377680
0.205078	-0.190430	0.750000	-0.853063	-0.712448	-0.403096	-0.187500	0.363281	0.410156	193	16_54_07_7538970
0.210938	-0.196289	0.750000	-0.862437	-0.721823	-0.403096	-0.234375	0.351563	0.421875	194	16_54_07_7700260
0.225586	-0.199219	0.752930	-0.853063	-0.712448	-0.403096	-0.210938	0.363281	0.492188	195	16_54_07_7861550
0.225586	-0.196289	0.755859	-0.843689	-0.703074	-0.403096	-0.128906	0.480469	0.433594	196	16_54_07_8022840
0.213867	-0.202148	0.758789	-0.853063	-0.712448	-0.403096	-0.210938	0.375000	0.398438	197	16_54_07_8184130
0.219727	-0.210938	0.752930	-0.853063	-0.712448	-0.403096	-0.199219	0.375000	0.421875	198	16_54_07_8345420
0.216797	-0.210938	0.752930	-0.853063	-0.712448	-0.403096	-0.152344	0.480469	0.421875	199	16_54_07_8506710
0.213867	-0.199219	0.747070	-0.853063	-0.749946	-0.403096	-0.011719	0.703125	0.445313	200	16_54_07_8668000
0.219727	-0.205078	0.750000	-0.853063	-0.712448	-0.403096	-0.187500	0.339844	0.421875	201	16_54_07_8829290
0.213867	-0.199219	0.758789	-0.853063	-0.712448	-0.403096	-0.222656	0.363281	0.421875	202	16_54_07_8990580
0.213867	-0.196289	0.758789	-0.853063	-0.712448	-0.403096	-0.187500	0.386719	0.410156	203	16_54_07_9151870
0.213867	-0.199219	0.761719	-0.853063	-0.712448	-0.393721	-0.222656	0.375000	0.433594	204	16_54_07_9313160
0.216797	-0.199219	0.755859	-0.853063	-0.712448	-0.403096	-0.210938	0.375000	0.445313	205	16_54_07_9474450
0.216797	-0.196289	0.747070	-0.853063	-0.712448	-0.403096	-0.199219	0.363281	0.421875	206	16_54_07_9635740
0.213867	-0.190430	0.755859	-0.862437	-0.712448	-0.403096	-0.105469	0.492188	0.445313	207	16_54_07_9797030
0.213867	-0.187500	0.758789	-0.853063	-0.712448	-0.403096	-0.210938	0.363281	0.445313	208	16_54_07_9958320
0.216797	-0.199219	0.758789	-0.853063	-0.721823	-0.403096	-0.187500	0.339844	0.398438	209	16_54_08_0119610
0.205078	-0.202148	0.758789	-0.853063	-0.721823	-0.403096	-0.175781	0.339844	0.433594	210	16_54_08_0280900
0.216797	-0.205078	0.752930	-0.853063	-0.721823	-0.403096	-0.222656	0.328125	0.421875	211	16_54_08_0442190
0.216797	-0.196289	0.755859	-0.853063	-0.712448	-0.403096	-0.164063	0.375000	0.421875	212	16_54_08_0603480
0.216797	-0.202148	0.761719	-0.853063	-0.712448	-0.403096	-0.199219	0.363281	0.410156	213	16_54_08_0764770
0.228516	-0.199219	0.752930	-0.862437	-0.712448	-0.403096	-0.164063	0.621094	0.386719	214	16_54_08_0926060
0.205078	-0.202148	0.752930	-0.862437	-0.712448	-0.403096	-0.222656	0.375000	0.363281	215	16_54_08_1087350
0.228516	-0.208008	0.752930	-0.853063	-0.712448	-0.403096	-0.164063	0.363281	0.398438	216	16_54_08_1248640
0.225586	-0.202148	0.747070	-0.853063	-0.712448	-0.403096	-0.222656	0.351563	0.398438	217	16_54_08_1409930
0.228516	-0.199219	0.752930	-0.853063	-0.712448	-0.403096	-0.199219	0.375000	0.445313	218	16_54_08_1571220
0.216797	-0.193359	0.752930	-0.862437	-0.712448	-0.403096	-0.210938	0.398438	0.457031	219	16_54_08_1732510
0.222656	-0.199219	0.761719	-0.853063	-0.712448	-0.403096	-0.222656	0.386719	0.398438	220	16_54_08_1893800
0.213867	-0.190430	0.758789	-0.853063	-0.712448	-0.403096	-0.199219	0.363281	0.421875	221	16_54_08_2055090
0.213867	-0.199219	0.747070	-0.862437	-0.712448	-0.403096	-0.046875	0.691406	0.539063	222	16_54_08_2216380
0.216797	-0.196289	0.758789	-0.862437	-0.712448	-0.403096	-0.105469	0.726563	0.515625	223	16_54_08_2377670
0.219727	-0.196289	0.758789	-0.853063	-0.712448	-0.403096	-0.222656	0.351563	0.398438	224	16_54_08_2538960
0.216797	-0.199219	0.758789	-0.843689	-0.712448	-0.393721	-0.222656	0.328125	0.410156	225	16_54_08_2700250
0.216797	-0.196289	0.758789	-0.853063	-0.712448	-0.393721	-0.234375	0.328125	0.433594	226	16_54_08_2861540
0.216797	-0.193359	0.755859	-0.853063	-0.712448	-0.393721	-0.210938	0.328125	0.445313	227	16_54_08_3022830
0.210938	-0.199219	0.758789	-0.862437	-0.712448	-0.393721	-0.222656	0.339844	0.468750	228	16_54_08_3184120
0.205078	-0.196289	0.752930	-0.853063	-0.712448	-0.393721	-0.234375	0.375000	0.457031	229	16_54_08_3345410
0.210938	-0.210938	0.758789	-0.853063	-0.712448	-0.403096	-0.222656	0.375000	0.421875	230	16_54_08_3506700
0.219727	-0.208008	0.758789	-0.853063	-0.712448	-0.403096	-0.234375	0.363281	0.421875	231	16_54_08_3667990
0.213867	-0.196289	0.752930	-0.853063	-0.712448	-0.403096	0.000000	0.726563	0.445313	232	16_54_08_3829280
0.219727	-0.193359	0.752930	-0.862437	-0.712448	-0.403096	-0.199219	0.410156	0.398438	233	16_54_08_3990570
0.225586	-0.199219	0.758789	-0.862437	-0.712448	-0.403096	-0.187500	0.363281	0.398438	234	16_54_08_4151860
0.213867	-0.199219	0.761719	-0.853063	-0.712448	-0.403096	-0.222656	0.328125	0.421875	235	16_54_08_4313150
0.210938	-0.199219	0.752930	-0.862437	-0.712448	-0.403096	-0.222656	0.351563	0.445313	236	16_54_08_4474440
0.216797	-0.190430	0.747070	-0.853063	-0.712448	-0.403096	-0.152344	0.480469	0.445313	237	16_54_08_4635730
0.202148	-0.196289	0.752930	-0.862437	-0.712448	-0.403096	-0.234375	0.375000	0.433594	238	16_54_08_4797020
0.216797	-0.190430	0.752930	-0.853063	-0.712448	-0.403096	-0.222656	0.363281	0.480469	239	16_54_08_4958310
0.225586	-0.199219	0.752930	-0.853063	-0.712448	-0.403096	-0.210938	0.351563	0.433594	240	16_54_08_5119600
0.216797	-0.205078	0.750000	-0.853063	-0.712448	-0.393721	-0.246094	0.375000	0.375000	241	16_54_08_5280890
0.228516	-0.193359	0.752930	-0.853063	-0.712448	-0.403096	-0.234375	0.375000	0.445313	242	16_54_08_5442180
0.222656	-0.202148	0.758789	-0.853063	-0.712448	-0.403096	-0.187500	0.375000	0.457031	243	16_54_08_5603470
0.213867	-0.199219	0.758789	-0.853063	-0.721823	-0.403096	-0.199219	0.375000	0.433594	244	16_54_08_5764760
0.225586	-0.202148	0.752930	-0.862437	-0.712448	-0.403096	-0.222656	0.339844	0.457031	245	16_54_08_5926050
0.222656	-0.196289	0.747070	-0.853063	-0.712448	-0.403096	-0.222656	0.351563	0.433594	246	16_54_08_6087340
0.216797	-0.190430	0.752930	-0.853063	-0.712448	-0.403096	-0.210938	0.375000	0.421875	247	16_54_08_6248630
0.222656	-0.199219	0.752930	-0.853063	-0.703074	-0.403096	-0.222656	0.375000	0.457031	248	16_54_08_6409920
0.222656	-0.196289	0.752930	-0.853063	-0.712448	-0.403096	-0.210938	0.351563	0.445313	249	16_54_08_6571210
0.219727	-0.199219	0.758789	-0.853063	-0.712448	-0.393721	-0.222656	0.375000	0.398438	250	16_54_08_6732500
0.222656	-0.193359	0.752930	-0.843689	-0.712448	-0.393721	-0.210938	0.386719	0.375000	251	16_54_08_6893790
0.205078	-0.205078	0.764648	-0.853063	-0.712448	-0.403096	-0.246094	0.375000	0.433594	252	16_54_08_7055080
0.213867	-0.193359	0.752930	-0.843689	-0.712448	-0.403096	-0.234375	0.375000	0.433594	253	16_54_08_7216370
0.216797	-0.199219	0.750000	-0.853063	-0.712448	-0.403096	-0.199219	0.386719	0.363281	254	16_54_08_7377660
0.219727	-0.205078	0.750000	-0.843689	-0.712448	-0.393721	-0.234375	0.375000	0.410156	255	16_54_08_7538950
0.222656	-0.205078	0.752930	-0.853063	-0.712448	-0.403096	-0.199219	0.351563	0.480469	256	16_54_08_7700240
0.210938	-0.193359	0.750000	-0.853063	-0.712448	-0.403096	-0.234375	0.363281	0.480469	257	16_54_08_7861530
0.205078	-0.205078	0.752930	-0.862437	-0.712448	-0.403096	-0.140625	0.468750	0.433594	258	16_54_08_8022820
0.216797	-0.202148	0.750000	-0.843689	-0.712448	-0.403096	-0.199219	0.363281	0.457031	259	16_54_08_8184110
0.222656	-0.190430	0.761719	-0.862437	-0.712448	-0.403096	-0.222656	0.375000	0.480469	260	16_54_08_8345400
0.205078	-0.205078	0.750000	-0.853063	-0.712448	-0.403096	-0.210938	0.351563	0.410156	261	16_54_08_8506690
0.216797	-0.199219	0.755859	-0.843689	-0.712448	-0.403096	-0.199219	0.351563	0.386719	262	16_54_08_8667980
0.222656	-0.205078	0.747070	-0.853063	-0.721823	-0.403096	-0.199219	0.375000	0.375000	263	16_54_08_8829270
0.213867	-0.199219	0.747070	-0.862437	-0.712448	-0.403096	-0.199219	0.375000	0.410156	264	16_54_08_8990560
0.216797	-0.208008	0.758789	-0.843689	-0.721823	-0.393721	-0.222656	0.375000	0.410156	265	16_54_08_9151850
0.225586	-0.199219	0.750000	-0.853063	-0.712448	-0.403096	-0.210938	0.363281	0.386719	266	16_54_08_9313140
0.210938	-0.202148	0.747070	-0.862437	-0.712448	-0.403096	-0.210938	0.351563	0.433594	267	16_54_08_9474430
0.213867	-0.199219	0.752930	-0.862437	-0.712448	-0.403096	-0.117188	0.480469	0.433594	268	16_54_08_9635720
0.213867	-0.199219	0.758789	-0.853063	-0.712448	-0.403096	-0.199219	0.386719	0.386719	269	16_54_08_9797010
0.213867	-0.196289	0.758789	-0.853063	-0.712448	-0.393721	-0.234375	0.386719	0.410156	270	16_54_08_9958300
0.216797	-0.196289	0.755859	-0.853063	-0.712448	-0.403096	-0.222656	0.375000	0.503906	271	16_54_09_0119590
0.216797	-0.199219	0.755859	-0.853063	-0.712448	-0.403096	-0.222656	0.375000	0.480469	272	16_54_09_0280880
0.216797	-0.202148	0.758789	-0.853063	-0.712448	-0.403096	-0.222656	0.386719	0.433594	273	16_54_09_0442170
0.213867	-0.196289	0.758789	-0.853063	-0.712448	-0.403096	-0.164063	0.410156	0.445313	274	16_54_09_0603460
0.208008	-0.205078	0.750000	-0.853063	-0.712448	-0.403096	-0.199219	0.375000	0.386719	275	16_54_09_0764750
0.208008	-0.205078	0.752930	-0.853063	-0.712448	-0.403096	-0.199219	0.375000	0.375000	276	16_54_09_0926040
0.199219	-0.199219	0.758789	-0.862437	-0.712448	-0.403096	-0.140625	0.468750	0.457031	277	16_54_09_1087330
0.222656	-0.193359	0.755859	-0.853063	-0.712448	-0.393721	-0.210938	0.375000	0.457031	278	16_54_09_1248620
0.210938	-0.199219	0.747070	-0.862437	-0.712448	-0.403096	-0.222656	0.375000	0.421875	279	16_54_09_1409910
0.222656	-0.199219	0.761719	-0.862437	-0.712448	-0.403096	-0.199219	0.375000	0.433594	280	16_54_09_1571200
0.216797	-0.196289	0.761719	-0.853063	-0.712448	-0.403096	-0.011719	0.621094	0.445313	281	16_54_09_1732490
0.210938	-0.193359	0.747070	-0.853063	-0.712448	-0.403096	-0.210938	0.339844	0.410156	282	16_54_09_1893780
0.219727	-0.196289	0.752930	-0.862437	-0.712448	-0.403096	-0.210938	0.363281	0.375000	283	16_54_09_2055070
0.225586	-0.199219	0.747070	-0.862437	-0.712448	-0.403096	0.023438	0.878906	0.386719	284	16_54_09_2216360
0.213867	-0.196289	0.752930	-0.843689	-0.712448	-0.403096	-0.222656	0.363281	0.421875	285	16_54_09_2377650
0.222656	-0.208008	0.752930	-0.853063	-0.712448	-0.393721	-0.187500	0.351563	0.410156	286	16_54_09_2538940
0.216797	-0.196289	0.750000	-0.862437	-0.712448	-0.403096	-0.199219	0.375000	0.375000	287	16_54_09_2700230
0.216797	-0.199219	0.758789	-0.853063	-0.712448	-0.403096	-0.187500	0.363281	0.410156	288	16_54_09_2861520
0.216797	-0.199219	0.755859	-0.853063	-0.712448	-0.403096	-0.199219	0.351563	0.457031	289	16_54_09_3022810
0.213867	-0.193359	0.758789	-0.862437	-0.712448	-0.403096	-0.222656	0.328125	0.421875	290	16_54_09_3184100
0.210938	-0.202148	0.747070	-0.862437	-0.712448	-0.403096	-0.246094	0.363281	0.421875	291	16_54_09_3345390
0.216797	-0.184570	0.755859	-0.853063	-0.712448	-0.403096	-0.222656	0.339844	0.468750	292	16_54_09_3506680
0.213867	-0.181641	0.758789	-0.862437	-0.712448	-0.403096	-0.222656	0.351563	0.480469	293	16_54_09_3667970
0.213867	-0.199219	0.761719	-0.862437	-0.712448	-0.403096	0.000000	0.714844	0.468750	294	16_54_09_3829260
0.216797	-0.199219	0.758789	-0.843689	-0.712448	-0.403096	-0.210938	0.375000	0.421875	295	16_54_09_3990550
0.216797	-0.193359	0.752930	-0.862437	-0.712448	-0.403096	-0.222656	0.375000	0.433594	296	16_54_09_4151840
0.222656	-0.199219	0.750000	-0.862437	-0.712448	-0.403096	-0.152344	0.410156	0.421875	297	16_54_09_4313130
0.222656	-0.202148	0.750000	-0.853063	-0.712448	-0.403096	-0.222656	0.375000	0.468750	298	16_54_09_4474420
0.219727	-0.199219	0.758789	-0.853063	-0.712448	-0.403096	-0.199219	0.375000	0.410156	299	16_54_09_4635710
0.222656	-0.199219	0.750000	-0.853063	-0.712448	-0.403096	-0.210938	0.363281	0.480469	300	16_54_09_4797000
0.210938	-0.199219	0.752930	-0.853063	-0.712448	-0.403096	-0.222656	0.339844	0.468750	301	16_54_09_4958290
0.222656	-0.202148	0.770508	-0.862437	-0.712448	-0.403096	-0.187500	0.375000	0.433594	302	16_54_09_5119580
0.216797	-0.196289	0.761719	-0.853063	-0.721823	-0.403096	-0.082031	0.585938	0.457031	303	16_54_09_5280870
0.216797	-0.196289	0.755859	-0.834314	-0.712448	-0.393721	-0.187500	0.386719	0.445313	304	16_54_09_5442160
0.208008	-0.199219	0.752930	-0.862437	-0.712448	-0.403096	-0.281250	0.375000	0.433594	305	16_54_09_5603450
0.219727	-0.193359	0.752930	-0.853063	-0.712448	-0.403096	-0.246094	0.375000	0.410156	306	16_54_09_5764740
0.219727	-0.187500	0.750000	-0.853063	-0.712448	-0.403096	-0.222656	0.375000	0.433594	307	16_54_09_5926030
0.213867	-0.196289	0.752930	-0.853063	-0.712448	-0.403096	-0.222656	0.375000	0.445313	308	16_54_09_6087320
0.219727	-0.202148	0.758789	-0.862437	-0.712448	-0.403096	-0.199219	0.375000	0.480469	309	16_54_09_6248610
0.216797	-0.190430	0.750000	-0.853063	-0.712448	-0.403096	-0.246094	0.375000	0.468750	310	16_54_09_6409900
0.210938	-0.202148	0.750000	-0.853063	-0.712448	-0.403096	-0.199219	0.351563	0.457031	311	16_54_09_6571190
0.210938	-0.196289	0.761719	-0.853063	-0.712448	-0.403096	-0.187500	0.328125	0.433594	312	16_54_09_6732480
0.225586	-0.205078	0.755859	-0.853063	-0.712448	-0.403096	-0.246094	0.375000	0.386719	313	16_54_09_6893770
0.213867	-0.199219	0.752930	-0.853063	-0.703074	-0.403096	-0.234375	0.375000	0.421875	314	16_54_09_7055060
0.219727	-0.205078	0.750000	-0.853063	-0.712448	-0.403096	-0.222656	0.363281	0.421875	315	16_54_09_7216350
0.225586	-0.205078	0.750000	-0.853063	-0.712448	-0.403096	-0.210938	0.351563	0.386719	316	16_54_09_7377640
0.210938	-0.202148	0.752930	-0.853063	-0.712448	-0.403096	-0.199219	0.363281	0.457031	317	16_54_09_7538930
0.219727	-0.193359	0.758789	-0.843689	-0.712448	-0.393721	-0.246094	0.339844	0.492188	318	16_54_09_7700220
0.222656	-0.196289	0.758789	-0.853063	-0.712448	-0.403096	-0.199219	0.351563	0.445313	319	16_54_09_7861510
0.222656	-0.196289	0.752930	-0.853063	-0.712448	-0.403096	-0.210938	0.351563	0.421875	320	16_54_09_8022800
0.216797	-0.205078	0.755859	-0.853063	-0.712448	-0.403096	-0.187500	0.328125	0.433594	321	16_54_09_8184090
0.219727	-0.216797	0.750000	-0.862437	-0.712448	-0.393721	-0.117188	0.515625	0.433594	322	16_54_09_8345380
0.222656	-0.202148	0.752930	-0.853063	-0.712448	-0.403096	-0.199219	0.339844	0.433594	323	16_54_09_8506670
0.213867	-0.193359	0.752930	-0.862437	-0.712448	-0.403096	-0.187500	0.375000	0.421875	324	16_54_09_8667960
0.222656	-0.196289	0.761719	-0.853063	-0.712448	-0.403096	-0.222656	0.386719	0.410156	325	16_54_09_8829250
0.210938	-0.190430	0.750000	-0.843689	-0.712448	-0.403096	-0.222656	0.375000	0.398438	326	16_54_09_8990540
0.205078	-0.208008	0.758789	-0.843689	-0.712448	-0.403096	-0.199219	0.375000	0.421875	327	16_54_09_9151830
0.222656	-0.199219	0.750000	-0.862437	-0.712448	-0.403096	-0.222656	0.375000	0.480469	328	16_54_09_9313120
0.210938	-0.205078	0.752930	-0.853063	-0.712448	-0.403096	-0.222656	0.375000	0.457031	329	16_54_09_9474410
0.208008	-0.193359	0.752930	-0.853063	-0.712448	-0.403096	-0.199219	0.375000	0.503906	330	16_54_09_9635700
0.228516	-0.196289	0.761719	-0.853063	-0.712448	-0.403096	-0.199219	0.375000	0.515625	331	16_54_09_9796990
0.219727	-0.196289	0.758789	-0.853063	-0.712448	-0.403096	-0.199219	0.375000	0.445313	332	16_54_09_9958280
0.210938	-0.202148	0.761719	-0.853063	-0.712448	-0.403096	-0.210938	0.363281	0.398438	333	16_54_10_0119570
0.213867	-0.199219	0.750000	-0.853063	-0.712448	-0.403096	-0.187500	0.375000	0.398438	334	16_54_10_0280860
0.219727	-0.193359	0.750000	-0.862437	-0.712448	-0.403096	-0.210938	0.363281	0.457031	335	16_54_10_0442150
0.213867	-0.193359	0.758789	-0.853063	-0.712448	-0.403096	-0.222656	0.351563	0.515625	336	16_54_10_0603440
0.219727	-0.193359	0.758789	-0.862437	-0.712448	-0.403096	-0.046875	0.855469	0.492188	337	16_54_10_0764730
0.222656	-0.199219	0.752930	-0.853063	-0.712448	-0.403096	-0.187500	0.375000	0.421875	338	16_54_10_0926020
0.222656	-0.205078	0.750000	-0.862437	-0.712448	-0.403096	-0.199219	0.375000	0.503906	339	16_54_10_1087310
0.219727	-0.190430	0.747070	-0.853063	-0.712448	-0.403096	-0.199219	0.375000	0.503906	340	16_54_10_1248600
0.205078	-0.199219	0.758789	-0.853063	-0.712448	-0.403096	-0.128906	0.468750	0.433594	341	16_54_10_1409890
0.228516	-0.202148	0.758789	-0.853063	-0.712448	-0.403096	-0.128906	0.468750	0.410156	342	16_54_10_1571180
0.228516	-0.190430	0.758789	-0.862437	-0.712448	-0.403096	-0.128906	0.515625	0.398438	343	16_54_10_1732470
0.219727	-0.190430	0.750000	-0.862437	-0.712448	-0.403096	-0.011719	0.644531	0.398438	344	16_54_10_1893760
0.228516	-0.196289	0.750000	-0.862437	-0.712448	-0.393721	-0.199219	0.328125	0.410156	345	16_54_10_2055050
0.228516	-0.205078	0.755859	-0.853063	-0.712448	-0.403096	-0.199219	0.375000	0.421875	346	16_54_10_2216340
0.222656	-0.205078	0.752930	-0.853063	-0.712448	-0.403096	-0.222656	0.375000	0.410156	347	16_54_10_2377630
0.216797	-0.196289	0.750000	-0.843689	-0.712448	-0.403096	-0.246094	0.375000	0.421875	348	16_54_10_2538920
0.210938	-0.202148	0.744141	-0.853063	-0.712448	-0.403096	-0.199219	0.363281	0.410156	349	16_54_10_2700210
0.208008	-0.193359	0.758789	-0.853063	-0.712448	-0.403096	-0.222656	0.351563	0.421875	350	16_54_10_2861500
0.213867	-0.202148	0.752930	-0.853063	-0.712448	-0.403096	-0.222656	0.386719	0.445313	351	16_54_10_3022790
0.216797	-0.202148	0.761719	-0.853063	-0.712448	-0.403096	-0.199219	0.375000	0.421875	352	16_54_10_3184080
0.216797	-0.196289	0.752930	-0.843689	-0.712448	-0.403096	-0.222656	0.375000	0.433594	353	16_54_10_3345370
0.231445	-0.199219	0.755859	-0.862437	-0.712448	-0.403096	-0.222656	0.375000	0.468750	354	16_54_10_3506660
0.228516	-0.196289	0.747070	-0.843689	-0.712448	-0.403096	-0.222656	0.375000	0.421875	355	16_54_10_3667950
0.213867	-0.196289	0.747070	-0.853063	-0.712448	-0.393721	-0.234375	0.375000	0.410156	356	16_54_10_3829240
0.219727	-0.196289	0.750000	-0.853063	-0.712448	-0.403096	-0.222656	0.375000	0.410156	357	16_54_10_3990530
0.219727	-0.199219	0.752930	-0.843689	-0.712448	-0.393721	-0.199219	0.363281	0.375000	358	16_54_10_4151820
0.222656	-0.193359	0.764648	-0.853063	-0.712448	-0.403096	-0.222656	0.339844	0.375000	359	16_54_10_4313110
0.213867	-0.205078	0.752930	-0.862437	-0.712448	-0.403096	-0.199219	0.351563	0.410156	360	16_54_10_4474400
0.222656	-0.193359	0.755859	-0.853063	-0.712448	-0.403096	-0.222656	0.375000	0.421875	361	16_54_10_4635690
0.219727	-0.208008	0.741211	-0.853063	-0.712448	-0.403096	-0.199219	0.386719	0.433594	362	16_54_10_4796980
0.222656	-0.187500	0.752930	-0.862437	-0.712448	-0.403096	-0.187500	0.386719	0.457031	363	16_54_10_4958270
0.219727	-0.199219	0.758789	-0.853063	-0.712448	-0.403096	-0.222656	0.363281	0.468750	364	16_54_10_5119560
0.216797	-0.193359	0.752930	-0.843689	-0.712448	-0.403096	-0.187500	0.375000	0.445313	365	16_54_10_5280850
0.213867	-0.193359	0.755859	-0.862437	-0.712448	-0.403096	-0.234375	0.351563	0.421875	366	16_54_10_5442140
0.210938	-0.199219	0.752930	-0.853063	-0.712448	-0.403096	-0.222656	0.351563	0.433594	367	16_54_10_5603430
0.219727	-0.205078	0.758789	-0.853063	-0.712448	-0.393721	-0.035156	0.714844	0.468750	368	16_54_10_5764720
0.228516	-0.196289	0.747070	-0.862437	-0.712448	-0.403096	-0.222656	0.386719	0.375000	369	16_54_10_5926010
0.222656	-0.190430	0.755859	-0.862437	-0.712448	-0.403096	-0.222656	0.375000	0.386719	370	16_54_10_6087300
0.213867	-0.210938	0.752930	-0.862437	-0.712448	-0.393721	-0.187500	0.351563	0.410156	371	16_54_10_6248590
0.213867	-0.205078	0.752930	-0.853063	-0.712448	-0.403096	-0.222656	0.375000	0.421875	372	16_54_10_6409880
0.213867	-0.199219	0.747070	-0.853063	-0.712448	-0.403096	-0.199219	0.375000	0.433594	373	16_54_10_6571170
0.210938	-0.199219	0.752930	-0.862437	-0.712448	-0.393721	-0.234375	0.375000	0.375000	374	16_54_10_6732460
0.219727	-0.199219	0.752930	-0.862437	-0.712448	-0.403096	-0.222656	0.363281	0.421875	375	16_54_10_6893750
0.213867	-0.205078	0.752930	-0.853063	-0.712448	-0.403096	-0.117188	0.480469	0.457031	376	16_54_10_7055040
0.222656	-0.199219	0.752930	-0.862437	-0.712448	-0.403096	-0.222656	0.386719	0.445313	377	16_54_10_7216330
0.213867	-0.196289	0.747070	-0.853063	-0.712448	-0.403096	-0.222656	0.363281	0.445313	378	16_54_10_7377620
0.222656	-0.199219	0.752930	-0.862437	-0.712448	-0.403096	-0.222656	0.351563	0.468750	379	16_54_10_7538910
0.216797	-0.202148	0.758789	-0.843689	-0.712448	-0.393721	-0.175781	0.351563	0.445313	380	16_54_10_7700200
0.213867	-0.196289	0.758789	-0.853063	-0.712448	-0.403096	-0.222656	0.375000	0.386719	381	16_54_10_7861490
0.216797	-0.193359	0.752930	-0.862437	-0.712448	-0.403096	-0.199219	0.363281	0.375000	382	16_54_10_8022780
0.228516	-0.193359	0.761719	-0.862437	-0.703074	-0.403096	-0.222656	0.339844	0.398438	383	16_54_10_8184070
0.216797	-0.196289	0.752930	-0.843689	-0.712448	-0.403096	-0.222656	0.351563	0.410156	384	16_54_10_8345360
0.222656	-0.202148	0.758789	-0.843689	-0.712448	-0.403096	-0.187500	0.375000	0.468750	385	16_54_10_8506650
0.225586	-0.208008	0.752930	-0.862437	-0.712448	-0.403096	-0.234375	0.375000	0.468750	386	16_54_10_8667940
0.216797	-0.187500	0.747070	-0.853063	-0.712448	-0.403096	-0.187500	0.375000	0.410156	387	16_54_10_8829230
0.216797	-0.199219	0.750000	-0.853063	-0.712448	-0.403096	-0.199219	0.363281	0.433594	388	16_54_10_8990520
0.216797	-0.208008	0.761719	-0.843689	-0.703074	-0.403096	-0.222656	0.351563	0.421875	389	16_54_10_9151810
0.216797	-0.196289	0.761719	-0.853063	-0.712448	-0.403096	-0.222656	0.363281	0.386719	390	16_54_10_9313100
0.216797	-0.205078	0.755859	-0.862437	-0.712448	-0.403096	-0.222656	0.351563	0.363281	391	16_54_10_9474390
0.213867	-0.208008	0.752930	-0.853063	-0.712448	-0.403096	-0.187500	0.445313	0.363281	392	16_54_10_9635680
0.213867	-0.202148	0.750000	-0.862437	-0.712448	-0.403096	-0.222656	0.351563	0.421875	393	16_54_10_9796970
0.210938	-0.205078	0.747070	-0.862437	-0.721823	-0.403096	-0.128906	0.480469	0.457031	394	16_54_10_9958260
0.213867	-0.196289	0.750000	-0.853063	-0.712448	-0.412470	-0.187500	0.375000	0.457031	395	16_54_11_0119550
0.222656	-0.202148	0.752930	-0.853063	-0.712448	-0.403096	-0.222656	0.351563	0.421875	396	16_54_11_0280840
0.213867	-0.199219	0.758789	-0.853063	-0.712448	-0.403096	-0.222656	0.351563	0.421875	397	16_54_11_0442130
0.213867	-0.205078	0.755859	-0.853063	-0.712448	-0.403096	-0.210938	0.375000	0.445313	398	16_54_11_0603420
0.213867	-0.199219	0.752930	-0.853063	-0.712448	-0.403096	-0.222656	0.375000	0.410156	399	16_54_11_0764710
0.216797	-0.196289	0.758789	-0.853063	-0.712448	-0.403096	-0.117188	0.632813	0.421875	400	16_54_11_0926000
0.216797	-0.193359	0.761719	-0.853063	-0.712448	-0.403096	-0.234375	0.351563	0.503906	401	16_54_11_1087290
0.213867	-0.202148	0.750000	-0.862437	-0.712448	-0.403096	-0.152344	0.445313	0.503906	402	16_54_11_1248580
0.210938	-0.199219	0.761719	-0.853063	-0.712448	-0.403096	-0.152344	0.375000	0.433594	403	16_54_11_1409870
0.208008	-0.193359	0.750000	-0.853063	-0.712448	-0.403096	-0.105469	0.492188	0.445313	404	16_54_11_1571160
0.216797	-0.202148	0.752930	-0.853063	-0.712448	-0.403096	-0.234375	0.351563	0.421875	405	16_54_11_1732450
0.222656	-0.205078	0.755859	-0.853063	-0.712448	-0.403096	-0.152344	0.386719	0.398438	406	16_54_11_1893740
0.216797	-0.190430	0.758789	-0.853063	-0.712448	-0.403096	-0.222656	0.375000	0.421875	407	16_54_11_2055030
0.225586	-0.193359	0.750000	-0.862437	-0.712448	-0.403096	-0.210938	0.375000	0.480469	408	16_54_11_2216320
0.216797	-0.193359	0.758789	-0.853063	-0.721823	-0.403096	0.000000	0.960938	0.445313	409	16_54_11_2377610
0.216797	-0.196289	0.755859	-0.862437	-0.721823	-0.403096	-0.234375	0.363281	0.410156	410	16_54_11_2538900
0.222656	-0.202148	0.750000	-0.853063	-0.712448	-0.393721	-0.222656	0.339844	0.410156	411	16_54_11_2700190
0.225586	-0.196289	0.747070	-0.862437	-0.712448	-0.403096	-0.234375	0.375000	0.363281	412	16_54_11_2861480
0.210938	-0.205078	0.750000	-0.853063	-0.712448	-0.403096	-0.222656	0.375000	0.410156	413	16_54_11_3022770
0.199219	-0.196289	0.750000	-0.853063	-0.712448	-0.403096	-0.210938	0.375000	0.468750	414	16_54_11_3184060
0.213867	-0.205078	0.750000	-0.853063	-0.712448	-0.403096	-0.187500	0.363281	0.468750	415	16_54_11_3345350
0.210938	-0.187500	0.747070	-0.862437	-0.721823	-0.403096	-0.210938	0.339844	0.457031	416	16_54_11_3506640
0.213867	-0.199219	0.755859	-0.843689	-0.712448	-0.403096	-0.210938	0.339844	0.433594	417	16_54_11_3667930
0.210938	-0.196289	0.758789	-0.853063	-0.712448	-0.403096	-0.222656	0.328125	0.421875	418	16_54_11_3829220
0.205078	-0.202148	0.752930	-0.843689	-0.712448	-0.403096	-0.222656	0.339844	0.421875	419	16_54_11_3990510
0.216797	-0.199219	0.752930	-0.853063	-0.712448	-0.403096	-0.234375	0.363281	0.410156	420	16_54_11_4151800
0.210938	-0.193359	0.758789	-0.853063	-0.712448	-0.393721	-0.222656	0.339844	0.410156	421	16_54_11_4313090
0.228516	-0.193359	0.758789	-0.843689	-0.721823	-0.403096	-0.246094	0.363281	0.386719	422	16_54_11_4474380
0.216797	-0.205078	0.752930	-0.853063	-0.712448	-0.403096	-0.199219	0.375000	0.433594	423	16_54_11_4635670
0.208008	-0.202148	0.744141	-0.853063	-0.712448	-0.403096	-0.199219	0.363281	0.445313	424	16_54_11_4796960
0.216797	-0.199219	0.747070	-0.853063	-0.712448	-0.403096	-0.210938	0.375000	0.398438	425	16_54_11_4958250
0.222656	-0.202148	0.752930	-0.862437	-0.712448	-0.403096	-0.117188	0.527344	0.421875	426	16_54_11_5119540
0.213867	-0.202148	0.758789	-0.853063	-0.712448	-0.393721	-0.222656	0.375000	0.445313	427	16_54_11_5280830
0.228516	-0.199219	0.755859	-0.853063	-0.712448	-0.403096	-0.187500	0.375000	0.480469	428	16_54_11_5442120
0.222656	-0.202148	0.752930	-0.853063	-0.712448	-0.403096	-0.246094	0.386719	0.503906	429	16_54_11_5603410
0.219727	-0.193359	0.758789	-0.862437	-0.712448	-0.393721	-0.011719	0.808594	0.445313	430	16_54_11_5764700
0.210938	-0.196289	0.758789	-0.862437	-0.712448	-0.403096	-0.187500	0.375000	0.386719	431	16_54_11_5925990
0.222656	-0.199219	0.758789	-0.853063	-0.712448	-0.403096	-0.187500	0.375000	0.375000	432	16_54_11_6087280
0.222656	-0.196289	0.750000	-0.853063	-0.712448	-0.403096	-0.199219	0.398438	0.398438	433	16_54_11_6248570
0.219727	-0.205078	0.755859	-0.862437	-0.712448	-0.403096	-0.257813	0.386719	0.410156	434	16_54_11_6409860
0.219727	-0.193359	0.752930	-0.853063	-0.712448	-0.403096	-0.234375	0.375000	0.433594	435	16_54_11_6571150
0.213867	-0.196289	0.761719	-0.853063	-0.712448	-0.403096	-0.222656	0.375000	0.457031	436	16_54_11_6732440
0.219727	-0.190430	0.747070	-0.853063	-0.712448	-0.403096	-0.246094	0.386719	0.445313	437	16_54_11_6893730
0.222656	-0.202148	0.752930	-0.853063	-0.712448	-0.403096	-0.246094	0.375000	0.421875	438	16_54_11_7055020
0.210938	-0.196289	0.744141	-0.853063	-0.712448	-0.403096	-0.210938	0.375000	0.421875	439	16_54_11_7216310
0.219727	-0.205078	0.750000	-0.853063	-0.712448	-0.403096	-0.222656	0.375000	0.492188	440	16_54_11_7377600
0.225586	-0.202148	0.758789	-0.843689	-0.712448	-0.403096	-0.210938	0.375000	0.492188	441	16_54_11_7538890
0.216797	-0.190430	0.752930	-0.862437	-0.712448	-0.403096	-0.140625	0.714844	0.457031	442	16_54_11_7700180
0.219727	-0.196289	0.750000	-0.862437	-0.721823	-0.403096	-0.164063	0.433594	0.410156	443	16_54_11_7861470
0.210938	-0.202148	0.752930	-0.871812	-0.712448	-0.393721	-0.152344	0.480469	0.433594	444	16_54_11_8022760
0.216797	-0.199219	0.755859	-0.843689	-0.712448	-0.403096	-0.210938	0.375000	0.398438	445	16_54_11_8184050
0.216797	-0.196289	0.758789	-0.853063	-0.712448	-0.403096	-0.117188	0.468750	0.421875	446	16_54_11_8345340
0.216797	-0.208008	0.744141	-0.853063	-0.712448	-0.412470	-0.199219	0.351563	0.386719	447	16_54_11_8506630
0.213867	-0.196289	0.750000	-0.853063	-0.712448	-0.403096	-0.210938	0.375000	0.398438	448	16_54_11_8667920
0.210938	-0.196289	0.758789	-0.853063	-0.712448	-0.403096	-0.246094	0.351563	0.445313	449	16_54_11_8829210
0.210938	-0.205078	0.755859	-0.843689	-0.712448	-0.403096	-0.222656	0.375000	0.421875	450	16_54_11_8990500
0.216797	-0.202148	0.758789	-0.862437	-0.721823	-0.403096	-0.093750	0.761719	0.433594	451	16_54_11_9151790
0.216797	-0.202148	0.747070	-0.853063	-0.712448	-0.403096	-0.234375	0.351563	0.398438	452	16_54_11_9313080
0.213867	-0.199219	0.752930	-0.853063	-0.721823	-0.403096	-0.187500	0.421875	0.375000	453	16_54_11_9474370
0.219727	-0.199219	0.752930	-0.853063	-0.721823	-0.403096	-0.234375	0.375000	0.386719	454	16_54_11_9635660
0.213867	-0.199219	0.747070	-0.862437	-0.712448	-0.403096	-0.164063	0.480469	0.410156	455	16_54_11_9796950
0.213867	-0.202148	0.752930	-0.843689	-0.712448	-0.403096	-0.187500	0.351563	0.410156	456	16_54_11_9958240
0.213867	-0.199219	0.755859	-0.843689	-0.721823	-0.403096	-0.246094	0.375000	0.433594	457	16_54_12_0119530
0.216797	-0.199219	0.750000	-0.853063	-0.721823	-0.403096	-0.222656	0.375000	0.421875	458	16_54_12_0280820
0.216797	-0.202148	0.758789	-0.853063	-0.712448	-0.403096	-0.234375	0.375000	0.410156	459	16_54_12_0442110
0.216797	-0.193359	0.747070	-0.853063	-0.712448	-0.403096	-0.222656	0.375000	0.468750	460	16_54_12_0603400
0.222656	-0.193359	0.747070	-0.853063	-0.721823	-0.403096	-0.234375	0.363281	0.421875	461	16_54_12_0764690
0.225586	-0.205078	0.755859	-0.862437	-0.712448	-0.403096	-0.210938	0.351563	0.410156	462	16_54_12_0925980
0.208008	-0.196289	0.750000	-0.853063	-0.712448	-0.403096	-0.187500	0.632813	0.386719	463	16_54_12_1087270
0.222656	-0.196289	0.761719	-0.862437	-0.712448	-0.403096	-0.175781	0.410156	0.421875	464	16_54_12_1248560
0.205078	-0.196289	0.755859	-0.853063	-0.712448	-0.403096	-0.199219	0.375000	0.480469	465	16_54_12_1409850
0.213867	-0.202148	0.755859	-0.853063	-0.712448	-0.403096	-0.222656	0.375000	0.445313	466	16_54_12_1571140
0.225586	-0.193359	0.750000	-0.843689	-0.712448	-0.403096	-0.210938	0.386719	0.421875	467	16_54_12_1732430
0.222656	-0.196289	0.750000	-0.853063	-0.721823	-0.403096	-0.222656	0.386719	0.386719	468	16_54_12_1893720
0.208008	-0.199219	0.758789	-0.853063	-0.712448	-0.403096	-0.222656	0.375000	0.386719	469	16_54_12_2055010
0.213867	-0.205078	0.752930	-0.843689	-0.712448	-0.403096	-0.199219	0.375000	0.410156	470	16_54_12_2216300
0.219727	-0.202148	0.747070	-0.853063	-0.712448	-0.403096	-0.210938	0.351563	0.398438	471	16_54_12_2377590
0.219727	-0.196289	0.747070	-0.853063	-0.712448	-0.403096	-0.246094	0.339844	0.375000	472	16_54_12_2538880
0.216797	-0.193359	0.752930	-0.853063	-0.721823	-0.403096	-0.234375	0.375000	0.398438	473	16_54_12_2700170
0.216797	-0.193359	0.747070	-0.843689	-0.712448	-0.403096	-0.234375	0.363281	0.445313	474	16_54_12_2861460
0.213867	-0.199219	0.747070	-0.853063	-0.712448	-0.403096	-0.210938	0.339844	0.468750	475	16_54_12_3022750
0.210938	-0.193359	0.750000	-0.862437	-0.712448	-0.403096	-0.199219	0.339844	0.433594	476	16_54_12_3184040
0.228516	-0.196289	0.758789	-0.853063	-0.721823	-0.403096	-0.199219	0.328125	0.375000	477	16_54_12_3345330
0.222656	-0.199219	0.755859	-0.853063	-0.712448	-0.403096	-0.222656	0.339844	0.421875	478	16_54_12_3506620
0.222656	-0.199219	0.758789	-0.853063	-0.721823	-0.403096	-0.222656	0.351563	0.445313	479	16_54_12_3667910
0.210938	-0.199219	0.752930	-0.853063	-0.712448	-0.403096	-0.210938	0.316406	0.457031	480	16_54_12_3829200
0.216797	-0.202148	0.750000	-0.853063	-0.712448	-0.403096	-0.187500	0.351563	0.445313	481	16_54_12_3990490
0.228516	-0.208008	0.747070	-0.862437	-0.712448	-0.403096	-0.058594	0.750000	0.457031	482	16_54_12_4151780
0.216797	-0.210938	0.758789	-0.853063	-0.712448	-0.403096	-0.234375	0.375000	0.445313	483	16_54_12_4313070
0.213867	-0.205078	0.758789	-0.853063	-0.721823	-0.403096	-0.222656	0.375000	0.457031	484	16_54_12_4474360
0.205078	-0.199219	0.752930	-0.853063	-0.712448	-0.403096	-0.210938	0.375000	0.445313	485	16_54_12_4635650
0.210938	-0.205078	0.752930	-0.853063	-0.712448	-0.403096	-0.234375	0.363281	0.457031	486	16_54_12_4796940
0.208008	-0.205078	0.758789	-0.853063	-0.721823	-0.403096	-0.199219	0.339844	0.410156	487	16_54_12_4958230
0.216797	-0.199219	0.758789	-0.853063	-0.712448	-0.403096	-0.222656	0.351563	0.398438	488	16_54_12_5119520
0.216797	-0.199219	0.755859	-0.853063	-0.712448	-0.403096	-0.210938	0.363281	0.457031	489	16_54_12_5280810
0.213867	-0.199219	0.758789	-0.853063	-0.712448	-0.403096	-0.222656	0.363281	0.492188	490	16_54_12_5442100
0.222656	-0.205078	0.758789	-0.853063	-0.712448	-0.393721	-0.222656	0.351563	0.457031	491	16_54_12_5603390
0.225586	-0.199219	0.752930	-0.843689	-0.712448	-0.403096	-0.187500	0.375000	0.445313	492	16_54_12_5764680
0.222656	-0.193359	0.758789	-0.853063	-0.712448	-0.403096	-0.210938	0.375000	0.398438	493	16_54_12_5925970
0.210938	-0.193359	0.750000	-0.862437	-0.712448	-0.403096	-0.210938	0.386719	0.410156	494	16_54_12_6087260
0.208008	-0.205078	0.758789	-0.862437	-0.712448	-0.393721	-0.164063	0.527344	0.503906	495	16_54_12_6248550
0.213867	-0.199219	0.752930	-0.853063	-0.721823	-0.403096	-0.222656	0.339844	0.421875	496	16_54_12_6409840
0.213867	-0.208008	0.758789	-0.862437	-0.712448	-0.403096	-0.199219	0.316406	0.433594	497	16_54_12_6571130
0.216797	-0.205078	0.755859	-0.853063	-0.712448	-0.403096	-0.234375	0.375000	0.421875	498	16_54_12_6732420
0.210938	-0.205078	0.750000	-0.853063	-0.712448	-0.403096	-0.246094	0.375000	0.398438	499	16_54_12_6893710
0.222656	-0.202148	0.750000	-0.853063	-0.712448	-0.403096	-0.222656	0.386719	0.410156	500	16_54_12_7055000
0.216797	-0.205078	0.752930	-0.862437	-0.712448	-0.403096	-0.023438	0.609375	0.492188	501	16_54_12_7216290
0.222656	-0.202148	0.758789	-0.862437	-0.712448	-0.403096	-0.199219	0.351563	0.468750	502	16_54_12_7377580
0.222656	-0.205078	0.752930	-0.853063	-0.712448	-0.403096	-0.035156	0.785156	0.515625	503	16_54_12_7538870
0.222656	-0.190430	0.752930	-0.853063	-0.721823	-0.403096	-0.222656	0.375000	0.445313	504	16_54_12_7700160
0.213867	-0.202148	0.758789	-0.843689	-0.712448	-0.403096	-0.222656	0.363281	0.398438	505	16_54_12_7861450
0.219727	-0.199219	0.747070	-0.862437	-0.721823	-0.403096	-0.234375	0.351563	0.457031	506	16_54_12_8022740
0.222656	-0.205078	0.755859	-0.843689	-0.712448	-0.403096	-0.222656	0.375000	0.468750	507	16_54_12_8184030
0.222656	-0.199219	0.750000	-0.853063	-0.712448	-0.403096	-0.222656	0.363281	0.410156	508	16_54_12_8345320
0.228516	-0.190430	0.758789	-0.853063	-0.721823	-0.403096	-0.187500	0.351563	0.386719	509	16_54_12_8506610
0.216797	-0.187500	0.747070	-0.853063	-0.721823	-0.403096	-0.187500	0.363281	0.410156	510	16_54_12_8667900
0.219727	-0.199219	0.758789	-0.853063	-0.712448	-0.403096	-0.222656	0.375000	0.410156	511	16_54_12_8829190
0.210938	-0.202148	0.750000	-0.862437	-0.712448	-0.403096	-0.210938	0.363281	0.457031	512	16_54_12_8990480
0.219727	-0.202148	0.758789	-0.843689	-0.712448	-0.403096	-0.210938	0.351563	0.492188	513	16_54_12_9151770
0.213867	-0.193359	0.752930	-0.853063	-0.721823	-0.403096	-0.187500	0.375000	0.421875	514	16_54_12_9313060
0.210938	-0.193359	0.758789	-0.853063	-0.712448	-0.403096	-0.246094	0.375000	0.421875	515	16_54_12_9474350
0.213867	-0.193359	0.752930	-0.862437	-0.712448	-0.403096	-0.222656	0.386719	0.468750	516	16_54_12_9635640
0.213867	-0.199219	0.752930	-0.853063	-0.721823	-0.403096	-0.222656	0.351563	0.386719	517	16_54_12_9796930
0.222656	-0.196289	0.750000	-0.862437	-0.721823	-0.403096	-0.210938	0.375000	0.468750	518	16_54_12_9958220
0.219727	-0.196289	0.758789	-0.853063	-0.712448	-0.403096	-0.234375	0.375000	0.515625	519	16_54_13_0119510
0.216797	-0.208008	0.758789	-0.853063	-0.712448	-0.403096	-0.246094	0.375000	0.433594	520	16_54_13_0280800
0.216797	-0.208008	0.755859	-0.843689	-0.712448	-0.403096	-0.140625	0.480469	0.386719	521	16_54_13_0442090
0.213867	-0.199219	0.755859	-0.862437	-0.712448	-0.403096	-0.058594	0.621094	0.445313	522	16_54_13_0603380
0.208008	-0.199219	0.758789	-0.862437	-0.712448	-0.403096	-0.058594	0.691406	0.457031	523	16_54_13_0764670
0.225586	-0.199219	0.755859	-0.853063	-0.712448	-0.403096	-0.175781	0.410156	0.457031	524	16_54_13_0925960
0.222656	-0.193359	0.755859	-0.843689	-0.712448	-0.403096	-0.222656	0.363281	0.445313	525	16_54_13_1087250
0.222656	-0.193359	0.752930	-0.862437	-0.712448	-0.403096	-0.246094	0.351563	0.421875	526	16_54_13_1248540
0.216797	-0.193359	0.758789	-0.853063	-0.712448	-0.403096	-0.222656	0.328125	0.445313	527	16_54_13_1409830
0.216797	-0.193359	0.761719	-0.843689	-0.712448	-0.403096	-0.210938	0.363281	0.410156	528	16_54_13_1571120
0.219727	-0.190430	0.758789	-0.853063	-0.721823	-0.403096	-0.222656	0.316406	0.386719	529	16_54_13_1732410
0.216797	-0.199219	0.750000	-0.862437	-0.712448	-0.403096	-0.246094	0.351563	0.480469	530	16_54_13_1893700
0.210938	-0.199219	0.752930	-0.853063	-0.712448	-0.403096	-0.187500	0.375000	0.480469	531	16_54_13_2054990
0.216797	-0.199219	0.758789	-0.853063	-0.712448	-0.403096	-0.210938	0.375000	0.480469	532	16_54_13_2216280
0.210938	-0.199219	0.758789	-0.853063	-0.712448	-0.403096	0.046875	0.808594	0.515625	533	16_54_13_2377570
0.202148	-0.199219	0.755859	-0.853063	-0.712448	-0.403096	-0.222656	0.351563	0.480469	534	16_54_13_2538860
0.219727	-0.208008	0.752930	-0.862437	-0.712448	-0.403096	-0.199219	0.351563	0.468750	535	16_54_13_2700150
0.219727	-0.199219	0.752930	-0.853063	-0.712448	-0.403096	-0.222656	0.339844	0.457031	536	16_54_13_2861440
0.225586	-0.199219	0.750000	-0.853063	-0.712448	-0.403096	-0.210938	0.375000	0.410156	537	16_54_13_3022730
0.216797	-0.196289	0.744141	-0.862437	-0.712448	-0.403096	-0.187500	0.351563	0.386719	538	16_54_13_3184020
0.213867	-0.205078	0.758789	-0.862437	-0.721823	-0.403096	-0.199219	0.339844	0.386719	539	16_54_13_3345310
0.210938	-0.199219	0.752930	-0.843689	-0.712448	-0.403096	-0.222656	0.375000	0.386719	540	16_54_13_3506600
0.216797	-0.202148	0.761719	-0.853063	-0.712448	-0.403096	-0.222656	0.351563	0.410156	541	16_54_13_3667890
0.213867	-0.202148	0.752930	-0.862437	-0.712448	-0.403096	-0.222656	0.363281	0.457031	542	16_54_13_3829180
0.213867	-0.193359	0.752930	-0.853063	-0.712448	-0.403096	-0.222656	0.351563	0.421875	543	16_54_13_3990470
0.219727	-0.199219	0.750000	-0.853063	-0.712448	-0.403096	-0.035156	0.691406	0.410156	544	16_54_13_4151760
0.225586	-0.199219	0.758789	-0.853063	-0.712448	-0.403096	-0.164063	0.351563	0.386719	545	16_54_13_4313050
0.228516	-0.205078	0.750000	-0.853063	-0.712448	-0.403096	-0.199219	0.375000	0.410156	546	16_54_13_4474340
0.213867	-0.196289	0.755859	-0.853063	-0.712448	-0.403096	-0.199219	0.375000	0.433594	547	16_54_13_4635630
0.208008	-0.199219	0.758789	-0.853063	-0.712448	-0.393721	-0.246094	0.351563	0.457031	548	16_54_13_4796920
0.213867	-0.208008	0.758789	-0.853063	-0.712448	-0.403096	-0.222656	0.339844	0.421875	549	16_54_13_4958210
0.222656	-0.199219	0.752930	-0.843689	-0.712448	-0.403096	-0.199219	0.375000	0.386719	550	16_54_13_5119500
0.213867	-0.199219	0.758789	-0.853063	-0.712448	-0.403096	-0.187500	0.363281	0.421875	551	16_54_13_5280790
0.219727	-0.196289	0.761719	-0.862437	-0.712448	-0.403096	-0.082031	0.574219	0.433594	552	16_54_13_5442080
0.213867	-0.196289	0.758789	-0.853063	-0.712448	-0.403096	-0.199219	0.375000	0.339844	553	16_54_13_5603370
0.213867	-0.199219	0.761719	-0.862437	-0.712448	-0.403096	-0.246094	0.386719	0.375000	554	16_54_13_5764660
0.222656	-0.199219	0.750000	-0.853063	-0.712448	-0.403096	-0.199219	0.375000	0.410156	555	16_54_13_5925950
0.222656	-0.199219	0.761719	-0.843689	-0.712448	-0.403096	-0.187500	0.375000	0.386719	556	16_54_13_6087240
0.225586	-0.205078	0.752930	-0.862437	-0.712448	-0.403096	-0.164063	0.445313	0.410156	557	16_54_13_6248530
0.213867	-0.199219	0.764648	-0.843689	-0.712448	-0.403096	-0.234375	0.363281	0.492188	558	16_54_13_6409820
0.222656	-0.202148	0.755859	-0.853063	-0.712448	-0.403096	-0.210938	0.386719	0.503906	559	16_54_13_6571110
0.213867	-0.193359	0.758789	-0.853063	-0.712448	-0.403096	-0.222656	0.375000	0.433594	560	16_54_13_6732400
0.213867	-0.187500	0.758789	-0.853063	-0.712448	-0.403096	-0.222656	0.386719	0.445313	561	16_54_13_6893690
0.219727	-0.193359	0.755859	-0.862437	-0.712448	-0.403096	-0.093750	0.539063	0.468750	562	16_54_13_7054980
0.205078	-0.193359	0.758789	-0.853063	-0.712448	-0.403096	-0.187500	0.363281	0.445313	563	16_54_13_7216270
0.222656	-0.184570	0.747070	-0.862437	-0.712448	-0.393721	-0.210938	0.375000	0.398438	564	16_54_13_7377560
0.216797	-0.202148	0.761719	-0.853063	-0.712448	-0.403096	-0.234375	0.351563	0.398438	565	16_54_13_7538850
0.219727	-0.196289	0.758789	-0.843689	-0.712448	-0.403096	-0.222656	0.316406	0.433594	566	16_54_13_7700140
0.219727	-0.190430	0.752930	-0.843689	-0.721823	-0.403096	-0.187500	0.386719	0.410156	567	16_54_13_7861430
0.213867	-0.205078	0.758789	-0.853063	-0.712448	-0.403096	-0.222656	0.375000	0.386719	568	16_54_13_8022720
0.213867	-0.202148	0.755859	-0.843689	-0.712448	-0.403096	-0.222656	0.375000	0.375000	569	16_54_13_8184010
0.213867	-0.193359	0.747070	-0.862437	-0.712448	-0.403096	-0.164063	0.445313	0.398438	570	16_54_13_8345300
0.202148	-0.190430	0.761719	-0.862437	-0.712448	-0.403096	-0.152344	0.398438	0.410156	571	16_54_13_8506590
0.222656	-0.205078	0.752930	-0.862437	-0.712448	-0.403096	-0.187500	0.351563	0.398438	572	16_54_13_8667880
0.213867	-0.199219	0.752930	-0.853063	-0.712448	-0.403096	-0.187500	0.375000	0.398438	573	16_54_13_8829170
0.216797	-0.193359	0.747070	-0.853063	-0.712448	-0.403096	-0.199219	0.375000	0.386719	574	16_54_13_8990460
0.216797	-0.196289	0.758789	-0.853063	-0.712448	-0.403096	-0.210938	0.375000	0.398438	575	16_54_13_9151750
0.225586	-0.199219	0.761719	-0.853063	-0.712448	-0.403096	-0.210938	0.363281	0.457031	576	16_54_13_9313040
0.219727	-0.199219	0.752930	-0.853063	-0.712448	-0.403096	-0.164063	0.703125	0.445313	577	16_54_13_9474330
0.222656	-0.199219	0.752930	-0.853063	-0.712448	-0.393721	-0.234375	0.363281	0.433594	578	16_54_13_9635620
0.205078	-0.193359	0.747070	-0.862437	-0.712448	-0.403096	-0.234375	0.363281	0.410156	579	16_54_13_9796910
0.216797	-0.193359	0.758789	-0.853063	-0.703074	-0.403096	-0.199219	0.351563	0.363281	580	16_54_13_9958200
0.213867	-0.202148	0.747070	-0.853063	-0.712448	-0.403096	-0.199219	0.375000	0.398438	581	16_54_14_0119490
0.216797	-0.202148	0.752930	-0.843689	-0.712448	-0.403096	-0.175781	0.363281	0.410156	582	16_54_14_0280780
0.225586	-0.205078	0.750000	-0.853063	-0.712448	-0.403096	-0.234375	0.351563	0.445313	583	16_54_14_0442070
0.213867	-0.205078	0.758789	-0.862437	-0.721823	-0.403096	-0.199219	0.386719	0.421875	584	16_54_14_0603360
0.225586	-0.202148	0.752930	-0.853063	-0.712448	-0.403096	0.011719	0.667969	0.410156	585	16_54_14_0764650
0.213867	-0.199219	0.758789	-0.843689	-0.712448	-0.403096	-0.046875	0.867188	0.386719	586	16_54_14_0925940
0.219727	-0.199219	0.758789	-0.862437	-0.712448	-0.403096	-0.199219	0.351563	0.433594	587	16_54_14_1087230
0.210938	-0.199219	0.758789	-0.853063	-0.712448	-0.403096	-0.222656	0.363281	0.503906	588	16_54_14_1248520
0.228516	-0.193359	0.750000	-0.853063	-0.712448	-0.403096	-0.164063	0.386719	0.421875	589	16_54_14_1409810
0.216797	-0.196289	0.750000	-0.853063	-0.712448	-0.403096	-0.199219	0.375000	0.375000	590	16_54_14_1571100
0.205078	-0.202148	0.758789	-0.853063	-0.712448	-0.403096	-0.093750	0.492188	0.421875	591	16_54_14_1732390
0.210938	-0.199219	0.752930	-0.862437	-0.712448	-0.403096	-0.199219	0.375000	0.468750	592	16_54_14_1893680
0.222656	-0.202148	0.750000	-0.853063	-0.721823	-0.403096	-0.222656	0.375000	0.421875	593	16_54_14_2054970
0.216797	-0.199219	0.752930	-0.853063	-0.712448	-0.403096	-0.199219	0.375000	0.398438	594	16_54_14_2216260
0.219727	-0.199219	0.758789	-0.853063	-0.712448	-0.403096	-0.199219	0.375000	0.457031	595	16_54_14_2377550
0.213867	-0.202148	0.758789	-0.862437	-0.712448	-0.403096	-0.199219	0.410156	0.445313	596	16_54_14_2538840
0.216797	-0.199219	0.750000	-0.853063	-0.712448	-0.403096	-0.222656	0.363281	0.375000	597	16_54_14_2700130
0.222656	-0.196289	0.752930	-0.862437	-0.712448	-0.403096	-0.152344	0.445313	0.375000	598	16_54_14_2861420
0.213867	-0.199219	0.755859	-0.862437	-0.712448	-0.403096	-0.152344	0.468750	0.503906	599	16_54_14_3022710
0.228516	-0.196289	0.758789	-0.862437	-0.712448	-0.403096	-0.222656	0.375000	0.503906	600	16_54_14_3184000
0.222656	-0.196289	0.758789	-0.862437	-0.712448	-0.393721	-0.199219	0.375000	0.398438	601	16_54_14_3345290
0.222656	-0.202148	0.750000	-0.834314	-0.712448	-0.403096	-0.222656	0.351563	0.398438	602	16_54_14_3506580
0.216797	-0.199219	0.755859	-0.862437	-0.712448	-0.403096	-0.093750	0.515625	0.433594	603	16_54_14_3667870
0.210938	-0.196289	0.752930	-0.853063	-0.712448	-0.403096	-0.210938	0.328125	0.410156	604	16_54_14_3829160
0.213867	-0.205078	0.747070	-0.853063	-0.712448	-0.403096	-0.199219	0.351563	0.375000	605	16_54_14_3990450
0.216797	-0.199219	0.747070	-0.853063	-0.721823	-0.403096	-0.222656	0.375000	0.433594	606	16_54_14_4151740
0.210938	-0.205078	0.752930	-0.853063	-0.712448	-0.393721	-0.187500	0.386719	0.433594	607	16_54_14_4313030
0.213867	-0.202148	0.758789	-0.853063	-0.712448	-0.403096	-0.222656	0.375000	0.398438	608	16_54_14_4474320
0.228516	-0.190430	0.755859	-0.843689	-0.712448	-0.403096	-0.222656	0.363281	0.457031	609	16_54_14_4635610
0.216797	-0.193359	0.758789	-0.853063	-0.712448	-0.403096	-0.234375	0.339844	0.468750	610	16_54_14_4796900
0.216797	-0.196289	0.758789	-0.853063	-0.712448	-0.403096	-0.187500	0.339844	0.433594	611	16_54_14_4958190
0.225586	-0.199219	0.758789	-0.853063	-0.712448	-0.412470	-0.210938	0.375000	0.445313	612	16_54_14_5119480
0.216797	-0.190430	0.741211	-0.853063	-0.712448	-0.403096	-0.222656	0.375000	0.386719	613	16_54_14_5280770
0.216797	-0.208008	0.758789	-0.853063	-0.712448	-0.403096	-0.187500	0.386719	0.433594	614	16_54_14_5442060
0.216797	-0.199219	0.758789	-0.853063	-0.712448	-0.403096	-0.210938	0.398438	0.503906	615	16_54_14_5603350
0.222656	-0.199219	0.758789	-0.853063	-0.712448	-0.403096	-0.152344	0.410156	0.457031	616	16_54_14_5764640
0.213867	-0.202148	0.758789	-0.853063	-0.721823	-0.403096	-0.234375	0.375000	0.468750	617	16_54_14_5925930
0.216797	-0.193359	0.755859	-0.843689	-0.712448	-0.403096	-0.222656	0.363281	0.492188	618	16_54_14_6087220
0.216797	-0.199219	0.755859	-0.862437	-0.721823	-0.403096	-0.199219	0.667969	0.457031	619	16_54_14_6248510
0.213867	-0.199219	0.752930	-0.853063	-0.721823	-0.403096	-0.222656	0.363281	0.398438	620	16_54_14_6409800
0.213867	-0.193359	0.758789	-0.862437	-0.721823	-0.403096	-0.222656	0.328125	0.433594	621	16_54_14_6571090
0.216797	-0.205078	0.758789	-0.853063	-0.712448	-0.403096	-0.128906	0.468750	0.468750	622	16_54_14_6732380
0.213867	-0.199219	0.747070	-0.862437	-0.721823	-0.403096	-0.128906	0.480469	0.457031	623	16_54_14_6893670
0.219727	-0.199219	0.750000	-0.862437	-0.712448	-0.403096	-0.210938	0.386719	0.468750	624	16_54_14_7054960
0.210938	-0.193359	0.750000	-0.862437	-0.721823	-0.403096	-0.222656	0.375000	0.457031	625	16_54_14_7216250
0.208008	-0.190430	0.752930	-0.843689	-0.712448	-0.403096	-0.199219	0.363281	0.480469	626	16_54_14_7377540
0.222656	-0.199219	0.752930	-0.843689	-0.712448	-0.403096	-0.199219	0.375000	0.445313	627	16_54_14_7538830
0.213867	-0.199219	0.755859	-0.862437	-0.721823	-0.403096	-0.164063	0.410156	0.386719	628	16_54_14_7700120
0.210938	-0.205078	0.758789	-0.853063	-0.712448	-0.403096	-0.187500	0.386719	0.398438	629	16_54_14_7861410
0.216797	-0.193359	0.750000	-0.853063	-0.712448	-0.403096	-0.187500	0.375000	0.398438	630	16_54_14_8022700
0.216797	-0.199219	0.752930	-0.862437	-0.712448	-0.403096	-0.187500	0.375000	0.421875	631	16_54_14_8183990
0.216797	-0.196289	0.750000	-0.853063	-0.721823	-0.403096	-0.187500	0.375000	0.480469	632	16_54_14_8345280
0.222656	-0.208008	0.755859	-0.843689	-0.712448	-0.403096	-0.222656	0.363281	0.433594	633	16_54_14_8506570
0.216797	-0.193359	0.747070	-0.853063	-0.721823	-0.403096	-0.222656	0.351563	0.445313	634	16_54_14_8667860
0.216797	-0.199219	0.755859	-0.871812	-0.712448	-0.403096	-0.199219	0.363281	0.445313	635	16_54_14_8829150
0.225586	-0.196289	0.755859	-0.853063	-0.712448	-0.403096	-0.222656	0.351563	0.410156	636	16_54_14_8990440
0.208008	-0.205078	0.758789	-0.862437	-0.721823	-0.403096	-0.222656	0.363281	0.410156	637	16_54_14_9151730
0.216797	-0.196289	0.750000	-0.853063	-0.721823	-0.403096	-0.199219	0.351563	0.421875	638	16_54_14_9313020
0.213867	-0.199219	0.761719	-0.834314	-0.712448	-0.403096	-0.210938	0.363281	0.468750	639	16_54_14_9474310
0.213867	-0.199219	0.752930	-0.862437	-0.721823	-0.403096	-0.234375	0.351563	0.445313	640	16_54_14_9635600
0.216797	-0.190430	0.755859	-0.843689	-0.721823	-0.403096	-0.199219	0.351563	0.410156	641	16_54_14_9796890
0.216797	-0.193359	0.755859	-0.843689	-0.712448	-0.403096	-0.199219	0.328125	0.457031	642	16_54_14_9958180
0.213867	-0.202148	0.764648	-0.853063	-0.712448	-0.403096	-0.199219	0.375000	0.468750	643	16_54_15_0119470
0.210938	-0.196289	0.755859	-0.862437	-0.721823	-0.403096	-0.105469	0.503906	0.410156	644	16_54_15_0280760
0.222656	-0.193359	0.758789	-0.853063	-0.721823	-0.403096	-0.222656	0.375000	0.386719	645	16_54_15_0442050
0.216797	-0.199219	0.755859	-0.862437	-0.712448	-0.403096	-0.046875	0.609375	0.468750	646	16_54_15_0603340
0.216797	-0.199219	0.747070	-0.853063	-0.712448	-0.403096	-0.246094	0.375000	0.515625	647	16_54_15_0764630
0.222656	-0.205078	0.752930	-0.843689	-0.712448	-0.403096	-0.199219	0.351563	0.503906	648	16_54_15_0925920
0.222656	-0.190430	0.747070	-0.843689	-0.712448	-0.403096	-0.222656	0.375000	0.421875	649	16_54_15_1087210
0.210938	-0.202148	0.752930	-0.862437	-0.721823	-0.403096	-0.199219	0.351563	0.410156	650	16_54_15_1248500
0.225586	-0.187500	0.761719	-0.853063	-0.712448	-0.403096	-0.187500	0.328125	0.410156	651	16_54_15_1409790
0.216797	-0.202148	0.752930	-0.862437	-0.721823	-0.403096	-0.199219	0.328125	0.386719	652	16_54_15_1571080
0.205078	-0.205078	0.747070	-0.862437	-0.721823	-0.403096	-0.222656	0.328125	0.375000	653	16_54_15_1732370
0.219727	-0.193359	0.758789	-0.843689	-0.721823	-0.393721	-0.199219	0.375000	0.410156	654	16_54_15_1893660
0.213867	-0.202148	0.755859	-0.862437	-0.721823	-0.403096	-0.234375	0.375000	0.457031	655	16_54_15_2054950
0.216797	-0.193359	0.747070	-0.853063	-0.712448	-0.403096	-0.210938	0.375000	0.457031	656	16_54_15_2216240
0.216797	-0.199219	0.758789	-0.834314	-0.712448	-0.403096	-0.234375	0.375000	0.410156	657	16_54_15_2377530
0.225586	-0.193359	0.755859	-0.853063	-0.721823	-0.403096	-0.222656	0.351563	0.410156	658	16_54_15_2538820
0.213867	-0.199219	0.747070	-0.853063	-0.721823	-0.403096	-0.222656	0.328125	0.421875	659	16_54_15_2700110
0.213867	-0.205078	0.744141	-0.843689	-0.712448	-0.403096	-0.222656	0.351563	0.421875	660	16_54_15_2861400
0.210938	-0.193359	0.750000	-0.843689	-0.712448	-0.403096	-0.246094	0.375000	0.421875	661	16_54_15_3022690
0.219727	-0.199219	0.750000	-0.862437	-0.721823	-0.403096	-0.222656	0.363281	0.421875	662	16_54_15_3183980
0.228516	-0.187500	0.747070	-0.862437	-0.721823	-0.403096	-0.164063	0.445313	0.398438	663	16_54_15_3345270
0.219727	-0.199219	0.755859	-0.843689	-0.712448	-0.403096	-0.199219	0.351563	0.363281	664	16_54_15_3506560
0.210938	-0.199219	0.752930	-0.862437	-0.721823	-0.403096	-0.187500	0.375000	0.445313	665	16_54_15_3667850
0.213867	-0.196289	0.755859	-0.862437	-0.721823	-0.403096	-0.210938	0.363281	0.468750	666	16_54_15_3829140
0.210938	-0.208008	0.758789	-0.853063	-0.721823	-0.403096	-0.246094	0.351563	0.468750	667	16_54_15_3990430
0.216797	-0.202148	0.758789	-0.862437	-0.721823	-0.403096	-0.222656	0.339844	0.503906	668	16_54_15_4151720
0.205078	-0.190430	0.755859	-0.843689	-0.721823	-0.403096	-0.082031	0.539063	0.480469	669	16_54_15_4313010
0.210938	-0.190430	0.758789	-0.853063	-0.712448	-0.403096	-0.199219	0.351563	0.433594	670	16_54_15_4474300
0.216797	-0.210938	0.758789	-0.843689	-0.712448	-0.403096	-0.199219	0.363281	0.433594	671	16_54_15_4635590
0.228516	-0.202148	0.750000	-0.853063	-0.712448	-0.403096	-0.222656	0.375000	0.445313	672	16_54_15_4796880
0.216797	-0.202148	0.758789	-0.862437	-0.721823	-0.403096	-0.164063	0.445313	0.433594	673	16_54_15_4958170
0.216797	-0.205078	0.752930	-0.853063	-0.721823	-0.403096	-0.222656	0.351563	0.398438	674	16_54_15_5119460
0.222656	-0.199219	0.755859	-0.853063	-0.712448	-0.403096	-0.210938	0.375000	0.410156	675	16_54_15_5280750
0.225586	-0.196289	0.752930	-0.843689	-0.712448	-0.403096	-0.199219	0.375000	0.410156	676	16_54_15_5442040
0.216797	-0.208008	0.761719	-0.853063	-0.712448	-0.403096	-0.210938	0.363281	0.398438	677	16_54_15_5603330
0.216797	-0.193359	0.755859	-0.853063	-0.721823	-0.403096	-0.199219	0.351563	0.421875	678	16_54_15_5764620
0.208008	-0.196289	0.761719	-0.853063	-0.721823	-0.403096	-0.222656	0.386719	0.421875	679	16_54_15_5925910
0.213867	-0.196289	0.750000	-0.853063	-0.721823	-0.403096	-0.199219	0.375000	0.410156	680	16_54_15_6087200
0.216797	-0.196289	0.761719	-0.853063	-0.721823	-0.403096	-0.234375	0.351563	0.468750	681	16_54_15_6248490
0.216797	-0.199219	0.752930	-0.843689	-0.712448	-0.403096	-0.187500	0.457031	0.550781	682	16_54_15_6409780
0.225586	-0.202148	0.755859	-0.853063	-0.721823	-0.403096	-0.199219	0.375000	0.433594	683	16_54_15_6571070
0.219727	-0.202148	0.758789	-0.853063	-0.721823	-0.403096	-0.199219	0.398438	0.503906	684	16_54_15_6732360
0.216797	-0.199219	0.752930	-0.853063	-0.721823	-0.403096	-0.210938	0.351563	0.468750	685	16_54_15_6893650
0.219727	-0.196289	0.752930	-0.853063	-0.721823	-0.403096	-0.222656	0.351563	0.339844	686	16_54_15_7054940
0.216797	-0.193359	0.752930	-0.853063	-0.712448	-0.403096	-0.199219	0.316406	0.421875	687	16_54_15_7216230
0.216797	-0.196289	0.750000	-0.843689	-0.712448	-0.403096	-0.199219	0.386719	0.480469	688	16_54_15_7377520
0.219727	-0.205078	0.752930	-0.862437	-0.721823	-0.403096	0.011719	0.738281	0.410156	689	16_54_15_7538810
0.222656	-0.184570	0.747070	-0.862437	-0.721823	-0.403096	-0.234375	0.363281	0.398438	690	16_54_15_7700100
0.213867	-0.193359	0.747070	-0.853063	-0.721823	-0.403096	-0.210938	0.386719	0.433594	691	16_54_15_7861390
0.222656	-0.205078	0.758789	-0.853063	-0.712448	-0.403096	-0.234375	0.363281	0.457031	692	16_54_15_8022680
0.216797	-0.187500	0.747070	-0.853063	-0.721823	-0.403096	-0.222656	0.351563	0.445313	693	16_54_15_8183970
0.219727	-0.199219	0.755859	-0.843689	-0.712448	-0.403096	-0.234375	0.339844	0.445313	694	16_54_15_8345260
0.228516	-0.193359	0.755859	-0.853063	-0.712448	-0.403096	-0.187500	0.375000	0.457031	695	16_54_15_8506550
0.216797	-0.193359	0.755859	-0.853063	-0.712448	-0.403096	-0.222656	0.375000	0.410156	696	16_54_15_8667840
0.216797	-0.187500	0.755859	-0.853063	-0.712448	-0.403096	-0.199219	0.386719	0.398438	697	16_54_15_8829130
0.219727	-0.193359	0.755859	-0.862437	-0.712448	-0.403096	-0.035156	0.609375	0.410156	698	16_54_15_8990420
0.210938	-0.205078	0.758789	-0.862437	-0.721823	-0.403096	-0.187500	0.339844	0.433594	699	16_54_15_9151710
0.210938	-0.205078	0.755859	-0.853063	-0.721823	-0.403096	-0.023438	0.621094	0.527344	700	16_54_15_9313000
0.222656	-0.202148	0.755859	-0.853063	-0.721823	-0.403096	-0.222656	0.375000	0.433594	701	16_54_15_9474290
0.225586	-0.205078	0.755859	-0.862437	-0.721823	-0.403096	-0.210938	0.703125	0.398438	702	16_54_15_9635580
0.219727	-0.199219	0.750000	-0.853063	-0.712448	-0.403096	-0.222656	0.328125	0.421875	703	16_54_15_9796870
0.216797	-0.202148	0.758789	-0.862437	-0.721823	-0.403096	-0.222656	0.351563	0.433594	704	16_54_15_9958160
0.216797	-0.216797	0.747070	-0.853063	-0.712448	-0.403096	-0.210938	0.351563	0.433594	705	16_54_16_0119450
0.222656	-0.202148	0.747070	-0.853063	-0.712448	-0.403096	-0.210938	0.363281	0.421875	706	16_54_16_0280740
0.210938	-0.202148	0.758789	-0.853063	-0.721823	-0.403096	-0.199219	0.375000	0.398438	707	16_54_16_0442030
0.216797	-0.199219	0.755859	-0.853063	-0.721823	-0.403096	-0.210938	0.363281	0.410156	708	16_54_16_0603320
0.222656	-0.193359	0.752930	-0.843689	-0.712448	-0.403096	-0.187500	0.351563	0.398438	709	16_54_16_0764610
0.219727	-0.199219	0.752930	-0.853063	-0.721823	-0.403096	-0.222656	0.375000	0.410156	710	16_54_16_0925900
0.216797	-0.196289	0.752930	-0.862437	-0.712448	-0.403096	-0.234375	0.351563	0.433594	711	16_54_16_1087190
0.216797	-0.193359	0.761719	-0.853063	-0.712448	-0.403096	-0.234375	0.316406	0.421875	712	16_54_16_1248480
0.219727	-0.196289	0.761719	-0.853063	-0.721823	-0.403096	-0.222656	0.339844	0.410156	713	16_54_16_1409770
0.222656	-0.193359	0.764648	-0.853063	-0.721823	-0.403096	-0.222656	0.351563	0.375000	714	16_54_16_1571060
0.208008	-0.202148	0.750000	-0.853063	-0.712448	-0.403096	-0.199219	0.328125	0.351563	715	16_54_16_1732350
0.213867	-0.205078	0.758789	-0.853063	-0.712448	-0.403096	-0.222656	0.386719	0.421875	716	16_54_16_1893640
0.219727	-0.184570	0.755859	-0.853063	-0.712448	-0.403096	-0.199219	0.375000	0.457031	717	16_54_16_2054930
0.219727	-0.199219	0.758789	-0.853063	-0.712448	-0.403096	-0.199219	0.375000	0.410156	718	16_54_16_2216220
0.222656	-0.199219	0.761719	-0.843689	-0.712448	-0.403096	-0.234375	0.375000	0.421875	719	16_54_16_2377510
0.219727	-0.205078	0.752930	-0.853063	-0.721823	-0.403096	-0.023438	0.632813	0.457031	720	16_54_16_2538800
0.222656	-0.199219	0.747070	-0.853063	-0.721823	-0.403096	-0.222656	0.351563	0.410156	721	16_54_16_2700090
0.222656	-0.202148	0.752930	-0.853063	-0.712448	-0.403096	-0.210938	0.351563	0.398438	722	16_54_16_2861380
0.216797	-0.193359	0.761719	-0.853063	-0.712448	-0.403096	-0.210938	0.632813	0.375000	723	16_54_16_3022670
0.216797	-0.196289	0.752930	-0.862437	-0.712448	-0.403096	-0.175781	0.433594	0.433594	724	16_54_16_3183960
0.219727	-0.205078	0.752930	-0.853063	-0.712448	-0.403096	-0.222656	0.316406	0.457031	725	16_54_16_3345250
0.216797	-0.193359	0.758789	-0.843689	-0.721823	-0.403096	-0.210938	0.316406	0.410156	726	16_54_16_3506540
0.222656	-0.202148	0.758789	-0.862437	-0.712448	-0.403096	-0.234375	0.375000	0.433594	727	16_54_16_3667830
0.216797	-0.196289	0.750000	-0.862437	-0.712448	-0.403096	-0.093750	0.515625	0.445313	728	16_54_16_3829120
0.219727	-0.187500	0.755859	-0.853063	-0.712448	-0.403096	-0.210938	0.351563	0.386719	729	16_54_16_3990410
0.213867	-0.199219	0.758789	-0.853063	-0.721823	-0.403096	-0.234375	0.316406	0.421875	730	16_54_16_4151700
0.216797	-0.196289	0.752930	-0.862437	-0.721823	-0.403096	-0.222656	0.363281	0.457031	731	16_54_16_4312990
0.222656	-0.199219	0.750000	-0.853063	-0.712448	-0.403096	-0.199219	0.351563	0.421875	732	16_54_16_4474280
0.213867	-0.202148	0.750000	-0.853063	-0.721823	-0.403096	-0.187500	0.375000	0.375000	733	16_54_16_4635570
0.222656	-0.199219	0.752930	-0.853063	-0.721823	-0.403096	-0.222656	0.328125	0.386719	734	16_54_16_4796860
0.213867	-0.196289	0.747070	-0.862437	-0.721823	-0.403096	-0.175781	0.328125	0.433594	735	16_54_16_4958150
0.213867	-0.181641	0.755859	-0.853063	-0.712448	-0.403096	-0.199219	0.363281	0.421875	736	16_54_16_5119440
0.219727	-0.193359	0.755859	-0.853063	-0.712448	-0.403096	-0.222656	0.375000	0.433594	737	16_54_16_5280730
0.219727	-0.205078	0.758789	-0.862437	-0.721823	-0.393721	-0.140625	0.515625	0.468750	738	16_54_16_5442020
0.213867	-0.199219	0.758789	-0.843689	-0.712448	-0.393721	-0.210938	0.375000	0.503906	739	16_54_16_5603310
0.213867	-0.205078	0.750000	-0.862437	-0.721823	-0.403096	-0.199219	0.375000	0.480469	740	16_54_16_5764600
0.219727	-0.199219	0.761719	-0.843689	-0.712448	-0.403096	-0.199219	0.375000	0.410156	741	16_54_16_5925890
0.219727	-0.199219	0.758789	-0.853063	-0.712448	-0.403096	-0.222656	0.375000	0.445313	742	16_54_16_6087180
0.219727	-0.202148	0.755859	-0.853063	-0.712448	-0.403096	-0.187500	0.375000	0.480469	743	16_54_16_6248470
0.222656	-0.193359	0.755859	-0.853063	-0.712448	-0.403096	-0.222656	0.375000	0.468750	744	16_54_16_6409760
0.210938	-0.199219	0.758789	-0.862437	-0.712448	-0.403096	-0.199219	0.375000	0.457031	745	16_54_16_6571050
0.210938	-0.193359	0.761719	-0.853063	-0.712448	-0.403096	-0.222656	0.351563	0.421875	746	16_54_16_6732340
0.222656	-0.193359	0.758789	-0.853063	-0.712448	-0.403096	-0.187500	0.351563	0.421875	747	16_54_16_6893630
0.222656	-0.196289	0.758789	-0.853063	-0.721823	-0.403096	-0.199219	0.375000	0.398438	748	16_54_16_7054920
0.216797	-0.199219	0.758789	-0.862437	-0.712448	-0.403096	-0.222656	0.375000	0.410156	749	16_54_16_7216210
0.216797	-0.193359	0.755859	-0.853063	-0.712448	-0.393721	-0.222656	0.375000	0.433594	750	16_54_16_7377500
0.213867	-0.187500	0.752930	-0.862437	-0.712448	-0.393721	-0.199219	0.375000	0.410156	751	16_54_16_7538790
0.216797	-0.196289	0.750000	-0.862437	-0.712448	-0.403096	0.011719	0.691406	0.421875	752	16_54_16_7700080
0.222656	-0.205078	0.758789	-0.853063	-0.721823	-0.403096	-0.199219	0.351563	0.433594	753	16_54_16_7861370
0.213867	-0.199219	0.752930	-0.862437	-0.721823	-0.403096	-0.210938	0.363281	0.375000	754	16_54_16_8022660
0.222656	-0.196289	0.758789	-0.853063	-0.712448	-0.403096	-0.199219	0.351563	0.351563	755	16_54_16_8183950
0.216797	-0.205078	0.750000	-0.843689	-0.712448	-0.403096	-0.222656	0.386719	0.386719	756	16_54_16_8345240
0.219727	-0.202148	0.752930	-0.862437	-0.712448	-0.403096	-0.210938	0.386719	0.398438	757	16_54_16_8506530
0.216797	-0.199219	0.750000	-0.853063	-0.712448	-0.403096	-0.222656	0.363281	0.386719	758	16_54_16_8667820
0.205078	-0.190430	0.752930	-0.862437	-0.712448	-0.403096	-0.093750	0.492188	0.410156	759	16_54_16_8829110
0.219727	-0.199219	0.764648	-0.862437	-0.712448	-0.403096	-0.187500	0.328125	0.410156	760	16_54_16_8990400
0.219727	-0.210938	0.752930	-0.853063	-0.712448	-0.403096	-0.210938	0.375000	0.433594	761	16_54_16_9151690
0.216797	-0.205078	0.750000	-0.843689	-0.712448	-0.403096	-0.199219	0.328125	0.457031	762	16_54_16_9312980
0.208008	-0.196289	0.761719	-0.862437	-0.712448	-0.412470	-0.187500	0.386719	0.457031	763	16_54_16_9474270
0.213867	-0.205078	0.758789	-0.862437	-0.712448	-0.403096	-0.222656	0.351563	0.433594	764	16_54_16_9635560
0.216797	-0.219727	0.761719	-0.862437	-0.712448	-0.412470	-0.199219	0.398438	0.386719	765	16_54_16_9796850
0.205078	-0.205078	0.761719	-0.843689	-0.721823	-0.412470	-0.199219	0.351563	0.375000	766	16_54_16_9958140
0.205078	-0.210938	0.770508	-0.862437	-0.731197	-0.421844	-0.199219	0.316406	0.386719	767	16_54_17_0119430
0.202148	-0.205078	0.770508	-0.862437	-0.740571	-0.421844	-0.210938	0.339844	0.410156	768	16_54_17_0280720
0.202148	-0.208008	0.758789	-0.862437	-0.749946	-0.412470	-0.093750	0.550781	0.433594	769	16_54_17_0442010
0.228516	-0.205078	0.770508	-0.871812	-0.759320	-0.412470	-0.257813	0.363281	0.363281	770	16_54_17_0603300
0.222656	-0.210938	0.785156	-0.871812	-0.749946	-0.421844	-0.222656	0.339844	0.410156	771	16_54_17_0764590
0.210938	-0.208008	0.796875	-0.871812	-0.740571	-0.431219	-0.222656	0.351563	0.468750	772	16_54_17_0925880
0.213867	-0.208008	0.793945	-0.881186	-0.740571	-0.440593	-0.222656	0.351563	0.410156	773	16_54_17_1087170
0.213867	-0.208008	0.799805	-0.881186	-0.749946	-0.440593	-0.222656	0.375000	0.375000	774	16_54_17_1248460
0.199219	-0.219727	0.799805	-0.881186	-0.759320	-0.440593	-0.199219	0.375000	0.398438	775	16_54_17_1409750
0.216797	-0.219727	0.799805	-0.899935	-0.768694	-0.440593	-0.222656	0.351563	0.433594	776	16_54_17_1571040
0.199219	-0.228516	0.808594	-0.909309	-0.787443	-0.431219	-0.187500	0.398438	0.421875	777	16_54_17_1732330
0.222656	-0.237305	0.826172	-0.918683	-0.815566	-0.403096	-0.222656	0.375000	0.410156	778	16_54_17_1893620
0.164063	-0.208008	0.820313	-0.899935	-0.862437	-0.365598	-0.210938	0.363281	0.398438	779	16_54_17_2054910
0.199219	-0.181641	0.747070	-0.871812	-0.899935	-0.337475	-0.210938	0.351563	0.410156	780	16_54_17_2216200
0.260742	-0.152344	0.694336	-0.862437	-0.918683	-0.309353	-0.210938	0.363281	0.457031	781	16_54_17_2377490
0.333984	-0.181641	0.706055	-0.881186	-0.862437	-0.318727	-0.210938	0.375000	0.457031	782	16_54_17_2538780
0.322266	-0.225586	0.738281	-0.899935	-0.787443	-0.356224	-0.199219	0.386719	0.457031	783	16_54_17_2700070
0.240234	-0.140625	0.714844	-0.909309	-0.768694	-0.374973	-0.246094	0.351563	0.457031	784	16_54_17_2861360
0.275391	-0.111328	0.676758	-0.909309	-0.749946	-0.374973	-0.210938	0.316406	0.421875	785	16_54_17_3022650
0.257813	-0.099609	0.641602	-0.899935	-0.731197	-0.393721	-0.246094	0.351563	0.457031	786	16_54_17_3183940
0.249023	-0.099609	0.609375	-0.871812	-0.703074	-0.412470	-0.246094	0.339844	0.492188	787	16_54_17_3345230
0.231445	-0.096680	0.600586	-0.843689	-0.703074	-0.431219	-0.246094	0.339844	0.433594	788	16_54_17_3506520
0.231445	-0.096680	0.583008	-0.815566	-0.712448	-0.431219	-0.257813	0.363281	0.445313	789	16_54_17_3667810
0.231445	-0.099609	0.559570	-0.768694	-0.712448	-0.431219	-0.246094	0.363281	0.410156	790	16_54_17_3829100
0.237305	-0.114258	0.547852	-0.731197	-0.731197	-0.431219	-0.210938	0.363281	0.386719	791	16_54_17_3990390
0.243164	-0.123047	0.536133	-0.712448	-0.731197	-0.431219	-0.210938	0.351563	0.433594	792	16_54_17_4151680
0.333984	-0.137695	0.641602	-0.712448	-0.712448	-0.421844	-0.234375	0.375000	0.445313	793	16_54_17_4312970
0.468750	-0.269531	0.846680	-0.768694	-0.646828	-0.431219	-0.210938	0.363281	0.539063	794	16_54_17_4474260
0.316406	-0.290039	0.972656	-0.796817	-0.562459	-0.449967	-0.234375	0.351563	0.585938	795	16_54_17_4635550
0.210938	-0.369141	1.086914	-0.843689	-0.553085	-0.449967	-0.175781	0.632813	0.503906	796	16_54_17_4796840
0.172852	-0.322266	1.095703	-0.881186	-0.637454	-0.431219	-0.199219	0.351563	0.398438	797	16_54_17_4958130
0.202148	-0.228516	1.010742	-0.909309	-0.712448	-0.403096	-0.222656	0.386719	0.457031	798	16_54_17_5119420
0.225586	-0.190430	0.890625	-0.909309	-0.740571	-0.374973	-0.210938	0.375000	0.468750	799	16_54_17_5280710
0.234375	-0.155273	0.799805	-0.881186	-0.740571	-0.365598	-0.210938	0.375000	0.421875	800	16_54_17_5442000
0.228516	-0.172852	0.682617	-0.853063	-0.721823	-0.346850	-0.222656	0.375000	0.421875	801	16_54_17_5603290
0.222656	-0.184570	0.618164	-0.843689	-0.731197	-0.356224	-0.082031	0.597656	0.421875	802	16_54_17_5764580
0.263672	-0.193359	0.606445	-0.843689	-0.731197	-0.365598	-0.234375	0.375000	0.445313	803	16_54_17_5925870
0.290039	-0.193359	0.606445	-0.843689	-0.712448	-0.393721	-0.199219	0.410156	0.421875	804	16_54_17_6087160
0.284180	-0.202148	0.626953	-0.824940	-0.703074	-0.403096	-0.199219	0.375000	0.410156	805	16_54_17_6248450
0.269531	-0.208008	0.653320	-0.834314	-0.684325	-0.412470	-0.234375	0.375000	0.421875	806	16_54_17_6409740
0.251953	-0.196289	0.711914	-0.843689	-0.684325	-0.403096	-0.234375	0.386719	0.457031	807	16_54_17_6571030
0.246094	-0.213867	0.764648	-0.815566	-0.684325	-0.403096	-0.187500	0.351563	0.433594	808	16_54_17_6732320
0.251953	-0.231445	0.820313	-0.843689	-0.674951	-0.403096	-0.199219	0.339844	0.433594	809	16_54_17_6893610
0.246094	-0.228516	0.858398	-0.843689	-0.674951	-0.393721	-0.222656	0.375000	0.433594	810	16_54_17_7054900
0.237305	-0.222656	0.870117	-0.853063	-0.674951	-0.384347	-0.199219	0.351563	0.375000	811	16_54_17_7216190
0.222656	-0.231445	0.852539	-0.853063	-0.684325	-0.365598	-0.246094	0.375000	0.421875	812	16_54_17_7377480
0.228516	-0.216797	0.811523	-0.862437	-0.693700	-0.356224	-0.199219	0.386719	0.480469	813	16_54_17_7538770
0.219727	-0.208008	0.773438	-0.862437	-0.703074	-0.356224	-0.234375	0.386719	0.468750	814	16_54_17_7700060
0.228516	-0.190430	0.717773	-0.862437	-0.703074	-0.356224	-0.222656	0.375000	0.410156	815	16_54_17_7861350
0.234375	-0.187500	0.700195	-0.853063	-0.712448	-0.365598	-0.117188	0.726563	0.480469	816	16_54_17_8022640
0.243164	-0.184570	0.682617	-0.843689	-0.703074	-0.374973	-0.199219	0.375000	0.445313	817	16_54_17_8183930
0.246094	-0.193359	0.691406	-0.843689	-0.703074	-0.384347	-0.234375	0.339844	0.457031	818	16_54_17_8345220
0.243164	-0.193359	0.714844	-0.834314	-0.693700	-0.384347	-0.199219	0.375000	0.480469	819	16_54_17_8506510
0.240234	-0.210938	0.741211	-0.843689	-0.684325	-0.384347	-0.199219	0.339844	0.410156	820	16_54_17_8667800
0.225586	-0.216797	0.764648	-0.834314	-0.693700	-0.384347	-0.222656	0.304688	0.410156	821	16_54_17_8829090
0.222656	-0.219727	0.785156	-0.853063	-0.693700	-0.384347	-0.234375	0.351563	0.421875	822	16_54_17_8990380
0.216797	-0.216797	0.796875	-0.843689	-0.693700	-0.384347	-0.222656	0.375000	0.445313	823	16_54_17_9151670
0.219727	-0.205078	0.793945	-0.862437	-0.693700	-0.374973	-0.222656	0.386719	0.445313	824	16_54_17_9312960
0.213867	-0.205078	0.782227	-0.853063	-0.693700	-0.384347	-0.222656	0.375000	0.445313	825	16_54_17_9474250
0.208008	-0.205078	0.761719	-0.862437	-0.693700	-0.384347	-0.105469	0.785156	0.445313	826	16_54_17_9635540
0.210938	-0.193359	0.750000	-0.853063	-0.693700	-0.374973	-0.199219	0.351563	0.433594	827	16_54_17_9796830
0.208008	-0.199219	0.741211	-0.843689	-0.693700	-0.384347	-0.210938	0.375000	0.445313	828	16_54_17_9958120
0.222656	-0.202148	0.729492	-0.843689	-0.693700	-0.384347	-0.199219	0.363281	0.398438	829	16_54_18_0119410
0.210938	-0.202148	0.726563	-0.853063	-0.693700	-0.384347	-0.222656	0.375000	0.375000	830	16_54_18_0280700
0.202148	-0.202148	0.735352	-0.843689	-0.703074	-0.393721	-0.093750	0.527344	0.386719	831	16_54_18_0441990
0.205078	-0.208008	0.750000	-0.843689	-0.712448	-0.384347	-0.222656	0.351563	0.457031	832	16_54_18_0603280
0.208008	-0.219727	0.758789	-0.862437	-0.712448	-0.384347	-0.234375	0.363281	0.480469	833	16_54_18_0764570
0.205078	-0.228516	0.761719	-0.853063	-0.712448	-0.384347	-0.246094	0.351563	0.457031	834	16_54_18_0925860
0.205078	-0.219727	0.761719	-0.862437	-0.721823	-0.384347	-0.210938	0.386719	0.457031	835	16_54_18_1087150
0.213867	-0.219727	0.758789	-0.853063	-0.721823	-0.384347	-0.222656	0.386719	0.433594	836	16_54_18_1248440
0.213867	-0.210938	0.758789	-0.853063	-0.712448	-0.384347	-0.187500	0.667969	0.421875	837	16_54_18_1409730
0.216797	-0.199219	0.752930	-0.862437	-0.712448	-0.384347	-0.187500	0.433594	0.421875	838	16_54_18_1571020
0.208008	-0.205078	0.744141	-0.862437	-0.712448	-0.384347	-0.222656	0.386719	0.480469	839	16_54_18_1732310
0.205078	-0.202148	0.750000	-0.853063	-0.703074	-0.393721	-0.199219	0.386719	0.492188	840	16_54_18_1893600
0.190430	-0.205078	0.747070	-0.853063	-0.703074	-0.393721	-0.105469	0.480469	0.457031	841	16_54_18_2054890
0.205078	-0.208008	0.750000	-0.853063	-0.712448	-0.393721	-0.199219	0.328125	0.421875	842	16_54_18_2216180
0.205078	-0.202148	0.750000	-0.881186	-0.712448	-0.403096	-0.199219	0.375000	0.421875	843	16_54_18_2377470
0.205078	-0.210938	0.750000	-0.853063	-0.721823	-0.403096	-0.187500	0.375000	0.421875	844	16_54_18_2538760
0.205078	-0.208008	0.761719	-0.853063	-0.731197	-0.403096	-0.222656	0.363281	0.457031	845	16_54_18_2700050
0.202148	-0.205078	0.761719	-0.853063	-0.731197	-0.403096	-0.234375	0.375000	0.445313	846	16_54_18_2861340
0.205078	-0.208008	0.758789	-0.862437	-0.731197	-0.403096	-0.222656	0.316406	0.386719	847	16_54_18_3022630
0.225586	-0.208008	0.752930	-0.853063	-0.721823	-0.412470	-0.222656	0.328125	0.433594	848	16_54_18_3183920
0.213867	-0.210938	0.752930	-0.853063	-0.731197	-0.412470	-0.199219	0.433594	0.457031	849	16_54_18_3345210
0.219727	-0.210938	0.747070	-0.853063	-0.731197	-0.412470	-0.222656	0.375000	0.421875	850	16_54_18_3506500
0.222656	-0.213867	0.738281	-0.862437	-0.731197	-0.412470	-0.199219	0.363281	0.433594	851	16_54_18_3667790
0.216797	-0.205078	0.750000	-0.853063	-0.721823	-0.412470	-0.187500	0.468750	0.433594	852	16_54_18_3829080
0.216797	-0.202148	0.750000	-0.853063	-0.721823	-0.412470	-0.222656	0.386719	0.445313	853	16_54_18_3990370
0.225586	-0.205078	0.752930	-0.853063	-0.731197	-0.412470	-0.234375	0.386719	0.445313	854	16_54_18_4151660
0.228516	-0.208008	0.752930	-0.862437	-0.731197	-0.412470	-0.199219	0.375000	0.445313	855	16_54_18_4312950
0.216797	-0.208008	0.750000	-0.853063	-0.731197	-0.412470	-0.222656	0.351563	0.410156	856	16_54_18_4474240
0.234375	-0.202148	0.755859	-0.853063	-0.731197	-0.412470	-0.128906	0.574219	0.445313	857	16_54_18_4635530
0.234375	-0.208008	0.750000	-0.862437	-0.731197	-0.412470	-0.234375	0.375000	0.445313	858	16_54_18_4796820
0.231445	-0.210938	0.752930	-0.862437	-0.721823	-0.412470	-0.222656	0.363281	0.410156	859	16_54_18_4958110
0.231445	-0.208008	0.752930	-0.853063	-0.721823	-0.412470	-0.222656	0.351563	0.386719	860	16_54_18_5119400
0.219727	-0.205078	0.750000	-0.843689	-0.721823	-0.403096	-0.234375	0.386719	0.375000	861	16_54_18_5280690
0.231445	-0.213867	0.747070	-0.853063	-0.712448	-0.403096	-0.152344	0.398438	0.386719	862	16_54_18_5441980
0.222656	-0.199219	0.747070	-0.853063	-0.712448	-0.403096	-0.234375	0.386719	0.398438	863	16_54_18_5603270
0.216797	-0.199219	0.752930	-0.853063	-0.712448	-0.403096	-0.210938	0.375000	0.410156	864	16_54_18_5764560
0.228516	-0.205078	0.747070	-0.853063	-0.721823	-0.403096	-0.199219	0.328125	0.445313	865	16_54_18_5925850
0.240234	-0.208008	0.758789	-0.853063	-0.712448	-0.403096	-0.222656	0.328125	0.433594	866	16_54_18_6087140
0.225586	-0.202148	0.744141	-0.853063	-0.712448	-0.403096	-0.199219	0.363281	0.410156	867	16_54_18_6248430
0.225586	-0.208008	0.758789	-0.862437	-0.712448	-0.403096	-0.222656	0.351563	0.433594	868	16_54_18_6409720
0.225586	-0.210938	0.744141	-0.862437	-0.712448	-0.403096	-0.152344	0.457031	0.445313	869	16_54_18_6571010
0.219727	-0.205078	0.758789	-0.843689	-0.712448	-0.403096	-0.222656	0.339844	0.410156	870	16_54_18_6732300
0.225586	-0.213867	0.750000	-0.862437	-0.712448	-0.403096	-0.222656	0.386719	0.386719	871	16_54_18_6893590
0.213867	-0.219727	0.752930	-0.862437	-0.712448	-0.403096	-0.222656	0.363281	0.375000	872	16_54_18_7054880
0.216797	-0.199219	0.747070	-0.853063	-0.712448	-0.403096	-0.175781	0.421875	0.375000	873	16_54_18_7216170
0.213867	-0.199219	0.750000	-0.862437	-0.712448	-0.403096	-0.281250	0.375000	0.398438	874	16_54_18_7377460
0.216797	-0.205078	0.758789	-0.853063	-0.712448	-0.403096	-0.210938	0.351563	0.421875	875	16_54_18_7538750
0.222656	-0.199219	0.764648	-0.862437	-0.712448	-0.403096	0.000000	0.667969	0.492188	876	16_54_18_7700040
0.208008	-0.205078	0.750000	-0.853063	-0.712448	-0.403096	-0.199219	0.386719	0.457031	877	16_54_18_7861330
0.228516	-0.205078	0.752930	-0.862437	-0.712448	-0.403096	-0.199219	0.375000	0.398438	878	16_54_18_8022620
0.225586	-0.208008	0.758789	-0.862437	-0.712448	-0.403096	-0.234375	0.375000	0.410156	879	16_54_18_8183910
0.219727	-0.208008	0.750000	-0.853063	-0.712448	-0.403096	-0.199219	0.363281	0.421875	880	16_54_18_8345200
0.219727	-0.205078	0.750000	-0.853063	-0.712448	-0.403096	-0.210938	0.363281	0.445313	881	16_54_18_8506490
0.216797	-0.208008	0.758789	-0.862437	-0.712448	-0.403096	-0.140625	0.421875	0.492188	882	16_54_18_8667780
0.219727	-0.208008	0.752930	-0.853063	-0.721823	-0.403096	-0.222656	0.375000	0.457031	883	16_54_18_8829070
0.216797	-0.205078	0.744141	-0.862437	-0.721823	-0.403096	-0.222656	0.351563	0.421875	884	16_54_18_8990360
0.213867	-0.205078	0.752930	-0.853063	-0.721823	-0.403096	-0.199219	0.351563	0.433594	885	16_54_18_9151650
0.222656	-0.205078	0.752930	-0.862437	-0.721823	-0.403096	-0.011719	0.632813	0.445313	886	16_54_18_9312940
0.225586	-0.202148	0.752930	-0.843689	-0.712448	-0.403096	-0.222656	0.363281	0.421875	887	16_54_18_9474230
0.225586	-0.210938	0.747070	-0.853063	-0.721823	-0.403096	-0.234375	0.339844	0.421875	888	16_54_18_9635520
0.219727	-0.219727	0.747070	-0.843689	-0.712448	-0.403096	-0.222656	0.351563	0.421875	889	16_54_18_9796810
0.210938	-0.210938	0.750000	-0.853063	-0.721823	-0.403096	-0.210938	0.375000	0.386719	890	16_54_18_9958100
0.213867	-0.205078	0.747070	-0.843689	-0.712448	-0.403096	-0.199219	0.375000	0.375000	891	16_54_19_0119390
0.222656	-0.208008	0.750000	-0.843689	-0.721823	-0.403096	-0.246094	0.339844	0.386719	892	16_54_19_0280680
0.219727	-0.219727	0.747070	-0.853063	-0.712448	-0.403096	-0.222656	0.328125	0.445313	893	16_54_19_0441970
0.228516	-0.210938	0.744141	-0.853063	-0.712448	-0.403096	-0.234375	0.351563	0.433594	894	16_54_19_0603260
0.216797	-0.199219	0.750000	-0.862437	-0.721823	-0.403096	-0.234375	0.375000	0.457031	895	16_54_19_0764550
0.228516	-0.199219	0.758789	-0.862437	-0.712448	-0.403096	-0.234375	0.351563	0.503906	896	16_54_19_0925840
0.216797	-0.196289	0.752930	-0.853063	-0.712448	-0.403096	-0.234375	0.339844	0.480469	897	16_54_19_1087130
0.225586	-0.216797	0.752930	-0.853063	-0.712448	-0.403096	-0.222656	0.375000	0.503906	898	16_54_19_1248420
0.216797	-0.208008	0.752930	-0.862437	-0.721823	-0.403096	-0.234375	0.351563	0.445313	899	16_54_19_1409710
0.208008	-0.208008	0.750000	-0.853063	-0.712448	-0.403096	-0.246094	0.375000	0.410156	900	16_54_19_1571000
0.216797	-0.190430	0.752930	-0.862437	-0.721823	-0.403096	-0.222656	0.351563	0.398438	901	16_54_19_1732290
0.210938	-0.202148	0.752930	-0.853063	-0.712448	-0.403096	-0.199219	0.351563	0.351563	902	16_54_19_1893580
0.222656	-0.210938	0.750000	-0.853063	-0.712448	-0.403096	-0.199219	0.375000	0.398438	903	16_54_19_2054870
0.219727	-0.205078	0.750000	-0.862437	-0.712448	-0.403096	-0.234375	0.386719	0.445313	904	16_54_19_2216160
0.219727	-0.199219	0.750000	-0.853063	-0.712448	-0.403096	-0.246094	0.375000	0.433594	905	16_54_19_2377450
0.225586	-0.213867	0.747070	-0.853063	-0.712448	-0.403096	-0.199219	0.351563	0.457031	906	16_54_19_2538740
0.222656	-0.202148	0.752930	-0.862437	-0.712448	-0.403096	0.046875	0.726563	0.480469	907	16_54_19_2700030
0.216797	-0.210938	0.758789	-0.853063	-0.721823	-0.403096	-0.246094	0.363281	0.468750	908	16_54_19_2861320
0.219727	-0.205078	0.752930	-0.862437	-0.712448	-0.403096	-0.281250	0.339844	0.457031	909	16_54_19_3022610
0.225586	-0.208008	0.764648	-0.853063	-0.721823	-0.403096	-0.199219	0.375000	0.457031	910	16_54_19_3183900
0.213867	-0.202148	0.750000	-0.853063	-0.712448	-0.403096	-0.222656	0.433594	0.503906	911	16_54_19_3345190
0.234375	-0.205078	0.741211	-0.853063	-0.712448	-0.403096	-0.199219	0.363281	0.386719	912	16_54_19_3506480
0.222656	-0.208008	0.744141	-0.853063	-0.721823	-0.403096	-0.222656	0.375000	0.410156	913	16_54_19_3667770
0.216797	-0.205078	0.758789	-0.853063	-0.712448	-0.403096	-0.187500	0.375000	0.468750	914	16_54_19_3829060
0.216797	-0.202148	0.752930	-0.853063	-0.712448	-0.403096	-0.222656	0.351563	0.433594	915	16_54_19_3990350
0.216797	-0.202148	0.752930	-0.862437	-0.712448	-0.403096	-0.187500	0.398438	0.375000	916	16_54_19_4151640
0.219727	-0.216797	0.755859	-0.843689	-0.721823	-0.403096	-0.222656	0.375000	0.468750	917	16_54_19_4312930
0.225586	-0.202148	0.752930	-0.862437	-0.712448	-0.403096	-0.210938	0.398438	0.515625	918	16_54_19_4474220
0.225586	-0.199219	0.747070	-0.853063	-0.721823	-0.403096	-0.187500	0.351563	0.433594	919	16_54_19_4635510
0.225586	-0.205078	0.758789	-0.853063	-0.721823	-0.403096	-0.222656	0.339844	0.468750	920	16_54_19_4796800
0.216797	-0.202148	0.750000	-0.862437	-0.721823	-0.403096	-0.222656	0.515625	0.492188	921	16_54_19_4958090
0.216797	-0.205078	0.758789	-0.862437	-0.712448	-0.403096	-0.234375	0.339844	0.445313	922	16_54_19_5119380
0.213867	-0.208008	0.755859	-0.862437	-0.721823	-0.403096	-0.199219	0.363281	0.457031	923	16_54_19_5280670
0.216797	-0.205078	0.752930	-0.862437	-0.721823	-0.403096	-0.246094	0.386719	0.445313	924	16_54_19_5441960
0.222656	-0.205078	0.747070	-0.853063	-0.721823	-0.403096	-0.222656	0.363281	0.457031	925	16_54_19_5603250
0.216797	-0.208008	0.750000	-0.853063	-0.721823	-0.403096	-0.222656	0.375000	0.515625	926	16_54_19_5764540
0.213867	-0.202148	0.752930	-0.853063	-0.721823	-0.403096	-0.234375	0.375000	0.492188	927	16_54_19_5925830
0.225586	-0.208008	0.752930	-0.853063	-0.712448	-0.403096	-0.199219	0.386719	0.433594	928	16_54_19_6087120
0.222656	-0.205078	0.752930	-0.853063	-0.712448	-0.403096	-0.222656	0.386719	0.445313	929	16_54_19_6248410
0.234375	-0.210938	0.758789	-0.853063	-0.712448	-0.403096	-0.199219	0.363281	0.457031	930	16_54_19_6409700
0.216797	-0.210938	0.752930	-0.853063	-0.721823	-0.403096	-0.199219	0.328125	0.468750	931	16_54_19_6570990
0.216797	-0.205078	0.752930	-0.853063	-0.721823	-0.403096	-0.257813	0.375000	0.445313	932	16_54_19_6732280
0.222656	-0.216797	0.744141	-0.853063	-0.721823	-0.403096	-0.222656	0.363281	0.433594	933	16_54_19_6893570
0.213867	-0.199219	0.752930	-0.853063	-0.721823	-0.403096	-0.234375	0.351563	0.457031	934	16_54_19_7054860
0.222656	-0.196289	0.747070	-0.853063	-0.721823	-0.403096	-0.234375	0.363281	0.433594	935	16_54_19_7216150
0.228516	-0.208008	0.747070	-0.862437	-0.712448	-0.403096	-0.210938	0.351563	0.386719	936	16_54_19_7377440
0.213867	-0.205078	0.764648	-0.843689	-0.721823	-0.403096	-0.199219	0.363281	0.433594	937	16_54_19_7538730
0.216797	-0.210938	0.752930	-0.862437	-0.721823	-0.403096	-0.210938	0.351563	0.421875	938	16_54_19_7700020
0.222656	-0.216797	0.750000	-0.853063	-0.712448	-0.403096	-0.222656	0.375000	0.398438	939	16_54_19_7861310
0.225586	-0.202148	0.752930	-0.853063	-0.712448	-0.403096	-0.222656	0.351563	0.433594	940	16_54_19_8022600
0.219727	-0.199219	0.750000	-0.853063	-0.721823	-0.403096	-0.199219	0.339844	0.457031	941	16_54_19_8183890
0.213867	-0.210938	0.750000	-0.853063	-0.712448	-0.393721	-0.199219	0.433594	0.468750	942	16_54_19_8345180
0.228516	-0.213867	0.747070	-0.853063	-0.712448	-0.393721	-0.199219	0.351563	0.457031	943	16_54_19_8506470
0.222656	-0.208008	0.750000	-0.862437	-0.712448	-0.403096	-0.222656	0.375000	0.457031	944	16_54_19_8667760
0.225586	-0.208008	0.752930	-0.843689	-0.712448	-0.403096	-0.199219	0.375000	0.433594	945	16_54_19_8829050
0.213867	-0.205078	0.752930	-0.862437	-0.712448	-0.412470	-0.199219	0.398438	0.386719	946	16_54_19_8990340
0.210938	-0.205078	0.752930	-0.862437	-0.721823	-0.403096	-0.199219	0.375000	0.386719	947	16_54_19_9151630
0.222656	-0.202148	0.758789	-0.843689	-0.712448	-0.403096	-0.187500	0.363281	0.410156	948	16_54_19_9312920
0.225586	-0.205078	0.752930	-0.853063	-0.721823	-0.403096	-0.199219	0.363281	0.410156	949	16_54_19_9474210
0.225586	-0.205078	0.747070	-0.853063	-0.721823	-0.403096	-0.222656	0.328125	0.433594	950	16_54_19_9635500
0.231445	-0.213867	0.741211	-0.862437	-0.712448	-0.403096	-0.222656	0.339844	0.433594	951	16_54_19_9796790
0.219727	-0.210938	0.752930	-0.853063	-0.721823	-0.403096	-0.246094	0.339844	0.433594	952	16_54_19_9958080
0.213867	-0.210938	0.747070	-0.862437	-0.721823	-0.403096	-0.152344	0.492188	0.421875	953	16_54_20_0119370
0.222656	-0.208008	0.758789	-0.853063	-0.712448	-0.403096	-0.222656	0.386719	0.410156	954	16_54_20_0280660
0.231445	-0.208008	0.750000	-0.862437	-0.721823	-0.403096	-0.187500	0.363281	0.421875	955	16_54_20_0441950
0.213867	-0.205078	0.752930	-0.871812	-0.721823	-0.403096	-0.128906	0.492188	0.410156	956	16_54_20_0603240
0.225586	-0.208008	0.752930	-0.853063	-0.721823	-0.403096	-0.222656	0.386719	0.410156	957	16_54_20_0764530
0.228516	-0.210938	0.750000	-0.862437	-0.721823	-0.403096	-0.011719	0.621094	0.386719	958	16_54_20_0925820
0.231445	-0.199219	0.747070	-0.862437	-0.712448	-0.403096	-0.199219	0.386719	0.386719	959	16_54_20_1087110
0.222656	-0.210938	0.752930	-0.862437	-0.712448	-0.403096	0.000000	0.796875	0.433594	960	16_54_20_1248400
0.222656	-0.205078	0.747070	-0.862437	-0.721823	-0.403096	-0.222656	0.375000	0.445313	961	16_54_20_1409690
0.222656	-0.210938	0.755859	-0.853063	-0.712448	-0.403096	-0.199219	0.351563	0.457031	962	16_54_20_1570980
0.216797	-0.216797	0.747070	-0.853063	-0.712448	-0.393721	-0.257813	0.351563	0.433594	963	16_54_20_1732270
0.222656	-0.202148	0.747070	-0.853063	-0.712448	-0.403096	-0.222656	0.375000	0.445313	964	16_54_20_1893560
0.222656	-0.205078	0.764648	-0.862437	-0.721823	-0.393721	-0.187500	0.386719	0.492188	965	16_54_20_2054850
0.222656	-0.210938	0.752930	-0.862437	-0.712448	-0.403096	-0.234375	0.375000	0.492188	966	16_54_20_2216140
0.222656	-0.208008	0.750000	-0.853063	-0.721823	-0.403096	-0.234375	0.375000	0.468750	967	16_54_20_2377430
0.219727	-0.205078	0.758789	-0.853063	-0.712448	-0.403096	-0.210938	0.398438	0.421875	968	16_54_20_2538720
0.213867	-0.208008	0.752930	-0.862437	-0.712448	-0.403096	-0.222656	0.363281	0.421875	969	16_54_20_2700010
0.216797	-0.205078	0.761719	-0.862437	-0.721823	-0.403096	-0.199219	0.339844	0.480469	970	16_54_20_2861300
0.216797	-0.210938	0.755859	-0.853063	-0.712448	-0.403096	-0.082031	0.785156	0.515625	971	16_54_20_3022590
0.216797	-0.208008	0.747070	-0.853063	-0.712448	-0.403096	-0.199219	0.421875	0.433594	972	16_54_20_3183880
0.216797	-0.205078	0.750000	-0.862437	-0.721823	-0.403096	-0.222656	0.351563	0.410156	973	16_54_20_3345170
0.225586	-0.210938	0.758789	-0.853063	-0.721823	-0.403096	-0.257813	0.363281	0.386719	974	16_54_20_3506460
0.216797	-0.205078	0.752930	-0.853063	-0.721823	-0.403096	-0.222656	0.339844	0.398438	975	16_54_20_3667750
0.228516	-0.216797	0.752930	-0.862437	-0.721823	-0.403096	-0.246094	0.386719	0.445313	976	16_54_20_3829040
0.222656	-0.205078	0.752930	-0.862437	-0.712448	-0.403096	-0.222656	0.375000	0.445313	977	16_54_20_3990330
0.222656	-0.202148	0.752930	-0.843689	-0.712448	-0.403096	-0.210938	0.351563	0.457031	978	16_54_20_4151620
0.222656	-0.205078	0.750000	-0.853063	-0.712448	-0.403096	-0.222656	0.386719	0.503906	979	16_54_20_4312910
0.228516	-0.222656	0.747070	-0.862437	-0.712448	-0.403096	0.093750	0.796875	0.468750	980	16_54_20_4474200
0.216797	-0.205078	0.750000	-0.843689	-0.712448	-0.403096	-0.210938	0.386719	0.386719	981	16_54_20_4635490
0.225586	-0.210938	0.750000	-0.862437	-0.712448	-0.403096	-0.199219	0.375000	0.445313	982	16_54_20_4796780
0.225586	-0.199219	0.758789	-0.853063	-0.721823	-0.403096	-0.210938	0.363281	0.445313	983	16_54_20_4958070
0.231445	-0.216797	0.750000	-0.853063	-0.721823	-0.403096	-0.246094	0.339844	0.433594	984	16_54_20_5119360
0.222656	-0.213867	0.747070	-0.853063	-0.712448	-0.403096	-0.222656	0.375000	0.457031	985	16_54_20_5280650
0.222656	-0.210938	0.752930	-0.853063	-0.712448	-0.403096	-0.199219	0.386719	0.410156	986	16_54_20_5441940
0.225586	-0.210938	0.758789	-0.843689	-0.712448	-0.403096	-0.187500	0.386719	0.445313	987	16_54_20_5603230
0.234375	-0.202148	0.755859	-0.853063	-0.712448	-0.403096	-0.234375	0.375000	0.421875	988	16_54_20_5764520
0.225586	-0.208008	0.758789	-0.853063	-0.721823	-0.403096	-0.199219	0.351563	0.421875	989	16_54_20_5925810
0.228516	-0.208008	0.758789	-0.862437	-0.712448	-0.393721	0.011719	0.691406	0.480469	990	16_54_20_6087100
0.219727	-0.199219	0.747070	-0.862437	-0.712448	-0.403096	-0.199219	0.410156	0.433594	991	16_54_20_6248390
0.228516	-0.205078	0.758789	-0.862437	-0.721823	-0.403096	-0.199219	0.386719	0.445313	992	16_54_20_6409680
0.225586	-0.216797	0.755859	-0.853063	-0.712448	-0.403096	-0.199219	0.375000	0.480469	993	16_54_20_6570970
0.216797	-0.205078	0.747070	-0.862437	-0.721823	-0.403096	-0.164063	0.410156	0.480469	994	16_54_20_6732260
0.213867	-0.208008	0.750000	-0.862437	-0.721823	-0.403096	-0.222656	0.351563	0.457031	995	16_54_20_6893550
0.210938	-0.208008	0.747070	-0.843689	-0.712448	-0.403096	-0.175781	0.433594	0.445313	996	16_54_20_7054840
0.225586	-0.205078	0.738281	-0.853063	-0.712448	-0.403096	-0.199219	0.375000	0.421875	997	16_54_20_7216130
0.216797	-0.208008	0.752930	-0.853063	-0.712448	-0.412470	-0.234375	0.363281	0.433594	998	16_54_20_7377420
0.205078	-0.208008	0.752930	-0.853063	-0.721823	-0.403096	-0.199219	0.351563	0.433594	999	16_54_20_7538710
0.216797	-0.216797	0.747070	-0.853063	-0.712448	-0.403096	-0.222656	0.386719	0.398438	1000	16_54_20_7700000
0.228516	-0.202148	0.747070	-0.843689	-0.712448	-0.403096	-0.222656	0.386719	0.398438	1001	16_54_20_7861290
0.222656	-0.213867	0.755859	-0.853063	-0.721823	-0.403096	-0.093750	0.539063	0.492188	1002	16_54_20_8022580
0.210938	-0.216797	0.747070	-0.853063	-0.721823	-0.403096	-0.222656	0.351563	0.421875	1003	16_54_20_8183870
0.216797	-0.199219	0.761719	-0.853063	-0.721823	-0.403096	-0.222656	0.375000	0.363281	1004	16_54_20_8345160
0.216797	-0.199219	0.747070	-0.853063	-0.721823	-0.403096	-0.199219	0.363281	0.457031	1005	16_54_20_8506450
0.222656	-0.208008	0.758789	-0.862437	-0.721823	-0.403096	-0.199219	0.386719	0.445313	1006	16_54_20_8667740
0.222656	-0.208008	0.741211	-0.853063	-0.721823	-0.403096	-0.222656	0.386719	0.421875	1007	16_54_20_8829030
0.225586	-0.208008	0.741211	-0.853063	-0.721823	-0.403096	-0.222656	0.386719	0.445313	1008	16_54_20_8990320
0.228516	-0.210938	0.752930	-0.853063	-0.721823	-0.403096	-0.222656	0.375000	0.468750	1009	16_54_20_9151610
0.228516	-0.205078	0.750000	-0.862437	-0.721823	-0.403096	-0.058594	0.585938	0.457031	1010	16_54_20_9312900
0.216797	-0.205078	0.755859	-0.853063	-0.712448	-0.403096	-0.234375	0.351563	0.468750	1011	16_54_20_9474190
0.228516	-0.208008	0.752930	-0.853063	-0.712448	-0.403096	-0.222656	0.386719	0.468750	1012	16_54_20_9635480
0.219727	-0.205078	0.747070	-0.853063	-0.712448	-0.403096	-0.222656	0.375000	0.445313	1013	16_54_20_9796770
0.216797	-0.213867	0.758789	-0.853063	-0.721823	-0.403096	-0.210938	0.351563	0.386719	1014	16_54_20_9958060
0.225586	-0.208008	0.758789	-0.834314	-0.712448	-0.403096	-0.269531	0.351563	0.398438	1015	16_54_21_0119350
0.228516	-0.208008	0.741211	-0.853063	-0.721823	-0.403096	-0.222656	0.351563	0.398438	1016	16_54_21_0280640
0.222656	-0.208008	0.750000	-0.862437	-0.721823	-0.403096	-0.187500	0.433594	0.421875	1017	16_54_21_0441930
0.222656	-0.205078	0.744141	-0.853063	-0.712448	-0.403096	-0.222656	0.375000	0.457031	1018	16_54_21_0603220
0.216797	-0.216797	0.747070	-0.843689	-0.712448	-0.403096	-0.199219	0.375000	0.421875	1019	16_54_21_0764510
0.216797	-0.210938	0.758789	-0.862437	-0.712448	-0.403096	-0.222656	0.363281	0.433594	1020	16_54_21_0925800
0.228516	-0.210938	0.761719	-0.862437	-0.721823	-0.403096	-0.222656	0.386719	0.457031	1021	16_54_21_1087090
0.213867	-0.210938	0.752930	-0.843689	-0.712448	-0.403096	-0.199219	0.386719	0.457031	1022	16_54_21_1248380
0.225586	-0.213867	0.755859	-0.843689	-0.721823	-0.403096	-0.246094	0.386719	0.421875	1023	16_54_21_1409670
0.210938	-0.210938	0.747070	-0.862437	-0.721823	-0.403096	-0.246094	0.386719	0.421875	1024	16_54_21_1570960
0.222656	-0.208008	0.752930	-0.843689	-0.721823	-0.403096	-0.222656	0.386719	0.457031	1025	16_54_21_1732250
0.216797	-0.208008	0.750000	-0.853063	-0.721823	-0.403096	-0.152344	0.457031	0.457031	1026	16_54_21_1893540
0.210938	-0.205078	0.758789	-0.862437	-0.721823	-0.403096	-0.199219	0.386719	0.421875	1027	16_54_21_2054830
0.216797	-0.210938	0.758789	-0.862437	-0.721823	-0.403096	-0.222656	0.375000	0.433594	1028	16_54_21_2216120
0.219727	-0.210938	0.752930	-0.853063	-0.712448	-0.403096	-0.234375	0.386719	0.433594	1029	16_54_21_2377410
0.222656	-0.205078	0.747070	-0.862437	-0.712448	-0.403096	-0.222656	0.375000	0.433594	1030	16_54_21_2538700
0.222656	-0.213867	0.750000	-0.862437	-0.721823	-0.403096	-0.210938	0.386719	0.433594	1031	16_54_21_2699990
0.216797	-0.216797	0.750000	-0.853063	-0.721823	-0.403096	-0.222656	0.351563	0.433594	1032	16_54_21_2861280
0.219727	-0.205078	0.750000	-0.843689	-0.712448	-0.403096	-0.210938	0.304688	0.410156	1033	16_54_21_3022570
0.222656	-0.202148	0.761719	-0.862437	-0.721823	-0.403096	-0.117188	0.750000	0.363281	1034	16_54_21_3183860
0.219727	-0.222656	0.758789	-0.843689	-0.721823	-0.403096	-0.222656	0.386719	0.386719	1035	16_54_21_3345150
0.216797	-0.208008	0.752930	-0.862437	-0.721823	-0.403096	-0.234375	0.375000	0.457031	1036	16_54_21_3506440
0.219727	-0.208008	0.750000	-0.862437	-0.721823	-0.403096	-0.175781	0.445313	0.503906	1037	16_54_21_3667730
0.228516	-0.205078	0.755859	-0.862437	-0.721823	-0.403096	-0.222656	0.351563	0.445313	1038	16_54_21_3829020
0.225586	-0.216797	0.750000	-0.862437	-0.712448	-0.403096	-0.222656	0.375000	0.386719	1039	16_54_21_3990310
0.222656	-0.199219	0.755859	-0.843689	-0.712448	-0.403096	-0.199219	0.386719	0.375000	1040	16_54_21_4151600
0.216797	-0.210938	0.750000	-0.862437	-0.712448	-0.403096	-0.199219	0.363281	0.410156	1041	16_54_21_4312890
0.222656	-0.205078	0.752930	-0.862437	-0.721823	-0.403096	-0.199219	0.339844	0.445313	1042	16_54_21_4474180
0.222656	-0.210938	0.750000	-0.853063	-0.721823	-0.403096	-0.222656	0.351563	0.433594	1043	16_54_21_4635470
0.219727	-0.208008	0.755859	-0.853063	-0.721823	-0.403096	-0.199219	0.375000	0.421875	1044	16_54_21_4796760
0.228516	-0.199219	0.758789	-0.862437	-0.721823	-0.403096	-0.187500	0.386719	0.468750	1045	16_54_21_4958050
0.216797	-0.208008	0.752930	-0.853063	-0.721823	-0.403096	-0.222656	0.351563	0.445313	1046	16_54_21_5119340
0.216797	-0.213867	0.750000	-0.862437	-0.721823	-0.393721	-0.222656	0.351563	0.410156	1047	16_54_21_5280630
0.225586	-0.208008	0.741211	-0.853063	-0.721823	-0.403096	-0.234375	0.375000	0.421875	1048	16_54_21_5441920
0.222656	-0.213867	0.747070	-0.853063	-0.721823	-0.403096	-0.199219	0.375000	0.410156	1049	16_54_21_5603210
0.228516	-0.216797	0.752930	-0.853063	-0.721823	-0.403096	-0.234375	0.363281	0.433594	1050	16_54_21_5764500
0.219727	-0.193359	0.752930	-0.853063	-0.721823	-0.403096	-0.199219	0.363281	0.468750	1051	16_54_21_5925790
0.219727	-0.205078	0.747070	-0.862437	-0.721823	-0.403096	0.082031	0.750000	0.433594	1052	16_54_21_6087080
0.222656	-0.199219	0.752930	-0.853063	-0.721823	-0.403096	-0.199219	0.375000	0.410156	1053	16_54_21_6248370
0.222656	-0.210938	0.750000	-0.862437	-0.721823	-0.403096	-0.222656	0.375000	0.398438	1054	16_54_21_6409660
0.228516	-0.208008	0.747070	-0.862437	-0.721823	-0.403096	-0.175781	0.644531	0.468750	1055	16_54_21_6570950
0.216797	-0.210938	0.752930	-0.862437	-0.721823	-0.403096	-0.222656	0.351563	0.433594	1056	16_54_21_6732240
0.210938	-0.208008	0.750000	-0.853063	-0.712448	-0.403096	-0.222656	0.375000	0.410156	1057	16_54_21_6893530
0.225586	-0.199219	0.752930	-0.862437	-0.712448	-0.403096	-0.199219	0.375000	0.398438	1058	16_54_21_7054820
0.225586	-0.205078	0.752930	-0.862437	-0.712448	-0.403096	-0.222656	0.363281	0.421875	1059	16_54_21_7216110
0.228516	-0.199219	0.747070	-0.853063	-0.721823	-0.403096	-0.222656	0.339844	0.457031	1060	16_54_21_7377400
0.216797	-0.199219	0.758789	-0.853063	-0.721823	-0.403096	-0.222656	0.328125	0.421875	1061	16_54_21_7538690
0.219727	-0.208008	0.752930	-0.853063	-0.712448	-0.403096	-0.234375	0.328125	0.421875	1062	16_54_21_7699980
0.228516	-0.208008	0.752930	-0.853063	-0.721823	-0.403096	-0.222656	0.351563	0.410156	1063	16_54_21_7861270
0.216797	-0.210938	0.750000	-0.843689	-0.721823	-0.403096	-0.246094	0.363281	0.363281	1064	16_54_21_8022560
0.225586	-0.208008	0.761719	-0.862437	-0.721823	-0.403096	-0.222656	0.363281	0.386719	1065	16_54_21_8183850
0.225586	-0.213867	0.752930	-0.862437	-0.712448	-0.403096	-0.222656	0.632813	0.433594	1066	16_54_21_8345140
0.222656	-0.205078	0.752930	-0.862437	-0.712448	-0.403096	-0.234375	0.363281	0.468750	1067	16_54_21_8506430
0.213867	-0.213867	0.747070	-0.862437	-0.712448	-0.403096	-0.246094	0.339844	0.445313	1068	16_54_21_8667720
0.219727	-0.213867	0.747070	-0.862437	-0.721823	-0.403096	-0.210938	0.351563	0.421875	1069	16_54_21_8829010
0.210938	-0.205078	0.758789	-0.853063	-0.721823	-0.403096	-0.222656	0.375000	0.410156	1070	16_54_21_8990300
0.222656	-0.193359	0.758789	-0.853063	-0.721823	-0.403096	-0.246094	0.386719	0.433594	1071	16_54_21_9151590
0.222656	-0.205078	0.752930	-0.862437	-0.712448	-0.403096	-0.199219	0.363281	0.445313	1072	16_54_21_9312880
0.225586	-0.205078	0.752930	-0.862437	-0.721823	-0.403096	-0.222656	0.386719	0.421875	1073	16_54_21_9474170
0.222656	-0.208008	0.755859	-0.853063	-0.721823	-0.403096	-0.187500	0.386719	0.457031	1074	16_54_21_9635460
0.222656	-0.213867	0.750000	-0.853063	-0.712448	-0.403096	-0.222656	0.375000	0.445313	1075	16_54_21_9796750
0.216797	-0.210938	0.744141	-0.862437	-0.712448	-0.403096	-0.210938	0.386719	0.398438	1076	16_54_21_9958040
0.222656	-0.213867	0.758789	-0.862437	-0.721823	-0.403096	-0.199219	0.386719	0.433594	1077	16_54_22_0119330
0.213867	-0.208008	0.752930	-0.853063	-0.712448	-0.403096	-0.246094	0.375000	0.527344	1078	16_54_22_0280620
0.225586	-0.208008	0.758789	-0.853063	-0.721823	-0.403096	-0.222656	0.375000	0.433594	1079	16_54_22_0441910
0.228516	-0.208008	0.747070	-0.853063	-0.721823	-0.403096	-0.222656	0.375000	0.421875	1080	16_54_22_0603200
0.231445	-0.205078	0.750000	-0.862437	-0.712448	-0.403096	-0.210938	0.375000	0.445313	1081	16_54_22_0764490
0.216797	-0.205078	0.750000	-0.881186	-0.721823	-0.403096	-0.199219	0.363281	0.445313	1082	16_54_22_0925780
0.216797	-0.208008	0.752930	-0.853063	-0.721823	-0.403096	-0.234375	0.386719	0.457031	1083	16_54_22_1087070
0.222656	-0.210938	0.752930	-0.862437	-0.712448	-0.403096	-0.199219	0.386719	0.421875	1084	16_54_22_1248360
0.210938	-0.202148	0.747070	-0.853063	-0.712448	-0.403096	-0.234375	0.363281	0.421875	1085	16_54_22_1409650
0.219727	-0.205078	0.747070	-0.853063	-0.712448	-0.403096	-0.199219	0.351563	0.398438	1086	16_54_22_1570940
0.213867	-0.210938	0.755859	-0.853063	-0.721823	-0.403096	-0.234375	0.375000	0.398438	1087	16_54_22_1732230
0.222656	-0.205078	0.758789	-0.862437	-0.721823	-0.403096	-0.199219	0.386719	0.386719	1088	16_54_22_1893520
0.213867	-0.213867	0.747070	-0.853063	-0.721823	-0.403096	-0.199219	0.386719	0.375000	1089	16_54_22_2054810
0.225586	-0.205078	0.744141	-0.853063	-0.721823	-0.403096	-0.175781	0.386719	0.410156	1090	16_54_22_2216100
0.219727	-0.210938	0.747070	-0.862437	-0.712448	-0.403096	-0.210938	0.375000	0.421875	1091	16_54_22_2377390
0.216797	-0.208008	0.741211	-0.862437	-0.721823	-0.403096	-0.246094	0.351563	0.457031	1092	16_54_22_2538680
0.219727	-0.205078	0.752930	-0.853063	-0.712448	-0.403096	-0.222656	0.351563	0.457031	1093	16_54_22_2699970
0.219727	-0.202148	0.752930	-0.853063	-0.712448	-0.403096	-0.222656	0.351563	0.421875	1094	16_54_22_2861260
0.219727	-0.193359	0.752930	-0.853063	-0.721823	-0.403096	-0.199219	0.351563	0.445313	1095	16_54_22_3022550
0.219727	-0.205078	0.758789	-0.862437	-0.721823	-0.403096	-0.058594	0.832031	0.468750	1096	16_54_22_3183840
0.225586	-0.199219	0.755859	-0.853063	-0.721823	-0.403096	-0.234375	0.351563	0.433594	1097	16_54_22_3345130
0.219727	-0.208008	0.747070	-0.862437	-0.721823	-0.393721	-0.234375	0.386719	0.468750	1098	16_54_22_3506420
0.222656	-0.219727	0.758789	-0.862437	-0.721823	-0.403096	-0.199219	0.386719	0.492188	1099	16_54_22_3667710
0.225586	-0.210938	0.750000	-0.843689	-0.712448	-0.393721	-0.199219	0.363281	0.457031	1100	16_54_22_3829000
0.210938	-0.219727	0.747070	-0.843689	-0.721823	-0.403096	-0.222656	0.351563	0.445313	1101	16_54_22_3990290
0.225586	-0.205078	0.750000	-0.862437	-0.721823	-0.393721	-0.234375	0.386719	0.457031	1102	16_54_22_4151580
0.228516	-0.205078	0.752930	-0.862437	-0.712448	-0.403096	-0.070313	0.585938	0.433594	1103	16_54_22_4312870
0.219727	-0.213867	0.750000	-0.853063	-0.712448	-0.403096	-0.199219	0.375000	0.480469	1104	16_54_22_4474160
0.219727	-0.199219	0.750000	-0.862437	-0.712448	-0.403096	-0.199219	0.375000	0.480469	1105	16_54_22_4635450
0.231445	-0.199219	0.747070	-0.862437	-0.712448	-0.403096	-0.269531	0.375000	0.398438	1106	16_54_22_4796740
0.219727	-0.199219	0.747070	-0.853063	-0.721823	-0.403096	-0.257813	0.363281	0.421875	1107	16_54_22_4958030
0.228516	-0.199219	0.750000	-0.853063	-0.712448	-0.393721	-0.187500	0.363281	0.457031	1108	16_54_22_5119320
0.219727	-0.199219	0.752930	-0.853063	-0.712448	-0.403096	-0.210938	0.351563	0.492188	1109	16_54_22_5280610
0.228516	-0.193359	0.761719	-0.853063	-0.712448	-0.403096	-0.222656	0.375000	0.480469	1110	16_54_22_5441900
0.213867	-0.202148	0.752930	-0.853063	-0.712448	-0.403096	-0.199219	0.363281	0.433594	1111	16_54_22_5603190
0.216797	-0.210938	0.752930	-0.853063	-0.712448	-0.403096	-0.222656	0.328125	0.480469	1112	16_54_22_5764480
0.219727	-0.208008	0.750000	-0.853063	-0.712448	-0.403096	-0.210938	0.351563	0.468750	1113	16_54_22_5925770
0.222656	-0.210938	0.752930	-0.862437	-0.712448	-0.412470	-0.199219	0.351563	0.433594	1114	16_54_22_6087060
0.216797	-0.205078	0.744141	-0.862437	-0.721823	-0.403096	0.035156	0.656250	0.410156	1115	16_54_22_6248350
0.228516	-0.199219	0.750000	-0.862437	-0.721823	-0.403096	-0.199219	0.375000	0.410156	1116	16_54_22_6409640
0.216797	-0.205078	0.752930	-0.862437	-0.721823	-0.403096	-0.222656	0.363281	0.410156	1117	16_54_22_6570930
0.228516	-0.199219	0.747070	-0.862437	-0.721823	-0.412470	-0.199219	0.375000	0.421875	1118	16_54_22_6732220
0.216797	-0.202148	0.758789	-0.862437	-0.712448	-0.403096	-0.187500	0.445313	0.457031	1119	16_54_22_6893510
