sensor_ID	0006660160E3
Accel_X	Accel_Y	Accel_Z	Roll	Pitch	Yaw	Mag_X	Mag_Y	Mag_Z	Count	SysTime
0.070313	-0.656250	0.114258	-0.299978	-0.571833	-0.749946	0.457031	1.054688	0.011719	0	16_54_04_6720000
0.005859	-0.597656	0.099609	-0.318727	-0.506213	-0.740571	0.503906	0.937500	-0.070313	1	16_54_04_6881290
-0.017578	-0.559570	0.102539	-0.328101	-0.515588	-0.712448	0.515625	0.902344	-0.011719	2	16_54_04_7042580
-0.017578	-0.550781	0.082031	-0.318727	-0.562459	-0.674951	0.843750	0.925781	0.093750	3	16_54_04_7203870
0.008789	-0.568359	0.067383	-0.318727	-0.637454	-0.628079	0.480469	0.960938	-0.070313	4	16_54_04_7365160
0.052734	-0.591797	0.067383	-0.337475	-0.703074	-0.599956	0.480469	0.914063	-0.070313	5	16_54_04_7526450
0.052734	-0.615234	0.073242	-0.356224	-0.721823	-0.581208	0.503906	0.925781	-0.046875	6	16_54_04_7687740
0.026367	-0.618164	0.064453	-0.384347	-0.712448	-0.581208	0.480469	0.937500	-0.011719	7	16_54_04_7849030
0.023438	-0.606445	0.067383	-0.393721	-0.684325	-0.581208	0.574219	0.949219	0.480469	8	16_54_04_8010320
0.002930	-0.591797	0.055664	-0.393721	-0.665577	-0.581208	0.480469	0.949219	-0.058594	9	16_54_04_8171610
0.000000	-0.591797	0.041016	-0.393721	-0.665577	-0.581208	0.621094	0.914063	-0.023438	10	16_54_04_8332900
-0.005859	-0.591797	0.029297	-0.403096	-0.684325	-0.581208	0.503906	0.867188	-0.093750	11	16_54_04_8494190
-0.017578	-0.580078	0.023438	-0.412470	-0.703074	-0.581208	0.750000	0.902344	0.023438	12	16_54_04_8655480
0.000000	-0.571289	0.032227	-0.412470	-0.712448	-0.590582	0.480469	0.984375	-0.058594	13	16_54_04_8816770
0.011719	-0.574219	0.023438	-0.403096	-0.712448	-0.590582	0.925781	0.960938	0.070313	14	16_54_04_8978060
0.020508	-0.556641	0.026367	-0.393721	-0.693700	-0.590582	0.480469	0.925781	-0.070313	15	16_54_04_9139350
0.023438	-0.577148	0.020508	-0.374973	-0.684325	-0.590582	0.492188	0.890625	-0.046875	16	16_54_04_9300640
0.032227	-0.580078	0.017578	-0.374973	-0.665577	-0.590582	0.503906	0.949219	-0.093750	17	16_54_04_9461930
0.035156	-0.580078	0.020508	-0.374973	-0.656202	-0.599956	0.480469	0.937500	-0.105469	18	16_54_04_9623220
0.041016	-0.585938	0.020508	-0.365598	-0.656202	-0.599956	0.492188	0.914063	-0.070313	19	16_54_04_9784510
0.026367	-0.577148	0.026367	-0.365598	-0.656202	-0.599956	0.632813	0.890625	-0.035156	20	16_54_04_9945800
0.020508	-0.574219	0.020508	-0.365598	-0.656202	-0.599956	0.785156	0.902344	0.117188	21	16_54_05_0107090
0.014648	-0.580078	0.023438	-0.365598	-0.646828	-0.599956	0.503906	0.867188	-0.082031	22	16_54_05_0268380
0.026367	-0.580078	0.032227	-0.356224	-0.656202	-0.599956	0.644531	0.914063	-0.023438	23	16_54_05_0429670
0.017578	-0.577148	0.038086	-0.356224	-0.646828	-0.609331	0.480469	0.914063	-0.082031	24	16_54_05_0590960
0.035156	-0.580078	0.038086	-0.356224	-0.637454	-0.609331	0.492188	0.843750	-0.070313	25	16_54_05_0752250
0.023438	-0.583008	0.043945	-0.356224	-0.628079	-0.609331	0.503906	0.890625	-0.058594	26	16_54_05_0913540
0.020508	-0.571289	0.032227	-0.365598	-0.628079	-0.609331	0.503906	0.914063	-0.058594	27	16_54_05_1074830
0.020508	-0.585938	0.041016	-0.356224	-0.637454	-0.609331	0.503906	0.890625	-0.058594	28	16_54_05_1236120
0.005859	-0.585938	0.038086	-0.356224	-0.646828	-0.609331	0.574219	0.925781	-0.035156	29	16_54_05_1397410
0.020508	-0.585938	0.035156	-0.365598	-0.656202	-0.599956	0.527344	0.960938	-0.011719	30	16_54_05_1558700
0.017578	-0.588867	0.041016	-0.365598	-0.646828	-0.599956	0.492188	0.925781	0.000000	31	16_54_05_1719990
0.020508	-0.594727	0.049805	-0.356224	-0.646828	-0.599956	0.609375	0.937500	-0.011719	32	16_54_05_1881280
0.023438	-0.577148	0.035156	-0.365598	-0.646828	-0.599956	0.480469	0.902344	-0.070313	33	16_54_05_2042570
0.026367	-0.585938	0.038086	-0.365598	-0.637454	-0.599956	0.785156	0.925781	0.046875	34	16_54_05_2203860
0.008789	-0.585938	0.032227	-0.365598	-0.637454	-0.599956	0.480469	0.949219	-0.035156	35	16_54_05_2365150
0.005859	-0.580078	0.029297	-0.374973	-0.637454	-0.599956	0.503906	0.878906	-0.023438	36	16_54_05_2526440
0.011719	-0.580078	0.029297	-0.365598	-0.646828	-0.599956	0.480469	0.914063	-0.011719	37	16_54_05_2687730
0.026367	-0.580078	0.032227	-0.374973	-0.656202	-0.599956	0.480469	0.914063	-0.093750	38	16_54_05_2849020
0.017578	-0.585938	0.023438	-0.365598	-0.656202	-0.599956	0.480469	0.937500	-0.082031	39	16_54_05_3010310
0.011719	-0.591797	0.032227	-0.365598	-0.656202	-0.599956	0.550781	0.996094	-0.023438	40	16_54_05_3171600
0.020508	-0.585938	0.038086	-0.365598	-0.656202	-0.609331	0.503906	0.972656	-0.011719	41	16_54_05_3332890
0.017578	-0.583008	0.038086	-0.365598	-0.646828	-0.599956	0.503906	0.937500	-0.035156	42	16_54_05_3494180
0.029297	-0.585938	0.023438	-0.365598	-0.656202	-0.599956	0.480469	0.937500	-0.035156	43	16_54_05_3655470
0.023438	-0.580078	0.038086	-0.365598	-0.656202	-0.609331	0.492188	0.902344	-0.035156	44	16_54_05_3816760
0.017578	-0.571289	0.035156	-0.365598	-0.646828	-0.609331	0.492188	0.855469	-0.070313	45	16_54_05_3978050
0.005859	-0.568359	0.029297	-0.356224	-0.646828	-0.609331	1.066406	1.019531	0.152344	46	16_54_05_4139340
0.008789	-0.583008	0.026367	-0.365598	-0.646828	-0.599956	0.527344	0.996094	-0.035156	47	16_54_05_4300630
0.017578	-0.588867	0.026367	-0.356224	-0.646828	-0.599956	0.937500	0.984375	0.246094	48	16_54_05_4461920
0.017578	-0.588867	0.020508	-0.374973	-0.646828	-0.609331	0.480469	0.960938	-0.082031	49	16_54_05_4623210
0.017578	-0.583008	0.026367	-0.365598	-0.656202	-0.599956	0.574219	0.914063	0.386719	50	16_54_05_4784500
0.017578	-0.571289	0.026367	-0.365598	-0.646828	-0.609331	0.515625	0.890625	-0.070313	51	16_54_05_4945790
0.017578	-0.583008	0.032227	-0.365598	-0.637454	-0.599956	0.515625	0.960938	-0.058594	52	16_54_05_5107080
0.017578	-0.574219	0.035156	-0.365598	-0.656202	-0.609331	0.480469	0.984375	-0.082031	53	16_54_05_5268370
0.011719	-0.580078	0.038086	-0.365598	-0.646828	-0.599956	0.515625	0.914063	-0.058594	54	16_54_05_5429660
0.026367	-0.568359	0.032227	-0.365598	-0.646828	-0.599956	0.492188	0.937500	-0.035156	55	16_54_05_5590950
0.017578	-0.580078	0.029297	-0.356224	-0.637454	-0.599956	0.492188	0.949219	-0.035156	56	16_54_05_5752240
0.023438	-0.588867	0.032227	-0.356224	-0.637454	-0.599956	0.480469	0.925781	-0.035156	57	16_54_05_5913530
0.008789	-0.585938	0.017578	-0.356224	-0.637454	-0.609331	0.503906	0.937500	-0.046875	58	16_54_05_6074820
0.011719	-0.597656	0.026367	-0.365598	-0.637454	-0.609331	0.492188	0.937500	-0.046875	59	16_54_05_6236110
0.005859	-0.591797	0.017578	-0.374973	-0.646828	-0.599956	0.480469	0.937500	-0.082031	60	16_54_05_6397400
0.014648	-0.591797	0.035156	-0.374973	-0.646828	-0.599956	0.480469	0.867188	-0.093750	61	16_54_05_6558690
0.017578	-0.571289	0.038086	-0.374973	-0.646828	-0.609331	0.539063	0.949219	-0.046875	62	16_54_05_6719980
0.014648	-0.568359	0.032227	-0.374973	-0.646828	-0.599956	0.492188	0.960938	-0.035156	63	16_54_05_6881270
0.005859	-0.574219	0.041016	-0.374973	-0.656202	-0.599956	0.503906	0.890625	-0.046875	64	16_54_05_7042560
0.002930	-0.580078	0.038086	-0.374973	-0.656202	-0.599956	0.503906	0.890625	-0.011719	65	16_54_05_7203850
0.011719	-0.580078	0.035156	-0.374973	-0.656202	-0.599956	0.492188	0.925781	0.011719	66	16_54_05_7365140
0.017578	-0.574219	0.032227	-0.365598	-0.656202	-0.599956	0.527344	0.925781	-0.035156	67	16_54_05_7526430
0.020508	-0.574219	0.026367	-0.365598	-0.656202	-0.599956	0.492188	0.914063	-0.046875	68	16_54_05_7687720
0.017578	-0.574219	0.038086	-0.365598	-0.646828	-0.599956	0.492188	0.937500	-0.035156	69	16_54_05_7849010
0.026367	-0.577148	0.029297	-0.365598	-0.646828	-0.599956	0.480469	0.902344	-0.035156	70	16_54_05_8010300
0.029297	-0.583008	0.026367	-0.365598	-0.637454	-0.609331	0.480469	0.937500	-0.023438	71	16_54_05_8171590
0.017578	-0.583008	0.020508	-0.365598	-0.637454	-0.609331	0.503906	0.937500	0.234375	72	16_54_05_8332880
0.020508	-0.591797	0.020508	-0.365598	-0.637454	-0.609331	0.527344	0.902344	-0.070313	73	16_54_05_8494170
0.014648	-0.583008	0.035156	-0.365598	-0.637454	-0.609331	0.480469	0.937500	-0.011719	74	16_54_05_8655460
0.014648	-0.580078	0.029297	-0.365598	-0.637454	-0.609331	0.503906	0.890625	-0.023438	75	16_54_05_8816750
0.017578	-0.571289	0.026367	-0.365598	-0.646828	-0.609331	0.480469	0.914063	-0.070313	76	16_54_05_8978040
0.017578	-0.583008	0.046875	-0.365598	-0.646828	-0.599956	0.492188	0.960938	-0.058594	77	16_54_05_9139330
0.011719	-0.580078	0.038086	-0.365598	-0.637454	-0.599956	1.101563	0.960938	0.199219	78	16_54_05_9300620
0.020508	-0.574219	0.043945	-0.365598	-0.646828	-0.599956	0.539063	0.914063	-0.023438	79	16_54_05_9461910
0.020508	-0.583008	0.043945	-0.365598	-0.656202	-0.599956	0.925781	0.890625	0.363281	80	16_54_05_9623200
0.014648	-0.577148	0.038086	-0.374973	-0.646828	-0.609331	0.503906	0.960938	-0.046875	81	16_54_05_9784490
0.014648	-0.568359	0.032227	-0.374973	-0.646828	-0.609331	0.480469	0.937500	-0.046875	82	16_54_05_9945780
0.014648	-0.577148	0.023438	-0.374973	-0.646828	-0.609331	0.457031	0.890625	-0.046875	83	16_54_06_0107070
0.023438	-0.562500	0.026367	-0.365598	-0.646828	-0.599956	0.468750	0.925781	-0.035156	84	16_54_06_0268360
0.017578	-0.580078	0.029297	-0.365598	-0.656202	-0.609331	0.468750	0.925781	-0.046875	85	16_54_06_0429650
0.014648	-0.571289	0.029297	-0.365598	-0.656202	-0.609331	0.527344	0.902344	-0.070313	86	16_54_06_0590940
0.017578	-0.580078	0.026367	-0.365598	-0.646828	-0.609331	0.503906	0.972656	-0.082031	87	16_54_06_0752230
0.017578	-0.588867	0.032227	-0.365598	-0.637454	-0.609331	0.503906	0.984375	-0.082031	88	16_54_06_0913520
0.017578	-0.568359	0.032227	-0.365598	-0.637454	-0.609331	0.503906	0.972656	-0.082031	89	16_54_06_1074810
0.017578	-0.583008	0.023438	-0.356224	-0.637454	-0.609331	0.480469	0.902344	-0.070313	90	16_54_06_1236100
0.017578	-0.597656	0.029297	-0.365598	-0.637454	-0.609331	0.574219	0.914063	-0.058594	91	16_54_06_1397390
0.008789	-0.585938	0.023438	-0.356224	-0.637454	-0.609331	0.492188	0.949219	-0.046875	92	16_54_06_1558680
0.005859	-0.562500	0.032227	-0.365598	-0.646828	-0.609331	0.480469	0.937500	0.000000	93	16_54_06_1719970
0.002930	-0.568359	0.041016	-0.365598	-0.646828	-0.609331	0.480469	0.890625	0.000000	94	16_54_06_1881260
0.000000	-0.583008	0.029297	-0.356224	-0.646828	-0.599956	0.503906	0.937500	-0.035156	95	16_54_06_2042550
0.014648	-0.585938	0.038086	-0.365598	-0.646828	-0.609331	0.492188	0.937500	-0.046875	96	16_54_06_2203840
0.000000	-0.583008	0.020508	-0.365598	-0.646828	-0.599956	0.503906	0.867188	-0.058594	97	16_54_06_2365130
-0.005859	-0.580078	0.035156	-0.365598	-0.646828	-0.599956	0.914063	0.867188	0.105469	98	16_54_06_2526420
0.002930	-0.591797	0.014648	-0.365598	-0.656202	-0.599956	1.066406	0.890625	0.175781	99	16_54_06_2687710
0.002930	-0.571289	0.026367	-0.365598	-0.656202	-0.599956	0.574219	0.960938	-0.046875	100	16_54_06_2849000
0.017578	-0.580078	0.014648	-0.374973	-0.656202	-0.599956	0.832031	0.972656	0.386719	101	16_54_06_3010290
0.005859	-0.580078	0.041016	-0.374973	-0.656202	-0.599956	0.492188	0.960938	0.363281	102	16_54_06_3171580
0.008789	-0.580078	0.029297	-0.365598	-0.656202	-0.599956	0.503906	0.914063	-0.046875	103	16_54_06_3332870
0.005859	-0.574219	0.023438	-0.365598	-0.656202	-0.599956	0.492188	0.914063	-0.011719	104	16_54_06_3494160
0.008789	-0.585938	0.023438	-0.374973	-0.656202	-0.599956	0.492188	0.914063	-0.035156	105	16_54_06_3655450
0.005859	-0.571289	0.023438	-0.365598	-0.656202	-0.609331	0.515625	0.914063	-0.058594	106	16_54_06_3816740
0.000000	-0.580078	0.029297	-0.365598	-0.656202	-0.599956	0.855469	0.914063	0.105469	107	16_54_06_3978030
0.002930	-0.577148	0.029297	-0.365598	-0.646828	-0.599956	0.539063	0.878906	-0.023438	108	16_54_06_4139320
0.017578	-0.580078	0.038086	-0.365598	-0.656202	-0.599956	0.503906	0.914063	-0.011719	109	16_54_06_4300610
0.005859	-0.583008	0.032227	-0.365598	-0.656202	-0.599956	0.503906	0.902344	-0.011719	110	16_54_06_4461900
0.008789	-0.580078	0.035156	-0.374973	-0.656202	-0.599956	0.503906	0.878906	-0.046875	111	16_54_06_4623190
0.014648	-0.574219	0.043945	-0.365598	-0.656202	-0.599956	0.539063	0.925781	-0.070313	112	16_54_06_4784480
-0.002930	-0.585938	0.032227	-0.365598	-0.656202	-0.599956	0.457031	0.960938	-0.046875	113	16_54_06_4945770
0.008789	-0.583008	0.041016	-0.365598	-0.656202	-0.599956	0.480469	0.972656	-0.035156	114	16_54_06_5107060
0.014648	-0.588867	0.026367	-0.365598	-0.656202	-0.599956	0.492188	0.937500	0.070313	115	16_54_06_5268350
0.017578	-0.585938	0.032227	-0.365598	-0.656202	-0.590582	0.503906	0.996094	-0.035156	116	16_54_06_5429640
0.023438	-0.580078	0.035156	-0.384347	-0.656202	-0.599956	0.480469	0.996094	-0.035156	117	16_54_06_5590930
0.023438	-0.583008	0.032227	-0.365598	-0.656202	-0.599956	0.527344	0.937500	-0.070313	118	16_54_06_5752220
0.008789	-0.580078	0.026367	-0.365598	-0.646828	-0.609331	0.960938	0.867188	0.128906	119	16_54_06_5913510
0.017578	-0.583008	0.026367	-0.365598	-0.656202	-0.599956	0.492188	0.808594	-0.023438	120	16_54_06_6074800
0.014648	-0.580078	0.011719	-0.374973	-0.656202	-0.599956	0.503906	0.867188	-0.082031	121	16_54_06_6236090
0.008789	-0.577148	0.023438	-0.374973	-0.656202	-0.599956	0.585938	0.878906	-0.023438	122	16_54_06_6397380
0.017578	-0.571289	0.035156	-0.374973	-0.656202	-0.599956	0.492188	0.878906	-0.023438	123	16_54_06_6558670
0.026367	-0.577148	0.035156	-0.365598	-0.656202	-0.599956	0.468750	0.902344	-0.035156	124	16_54_06_6719960
0.005859	-0.574219	0.035156	-0.365598	-0.646828	-0.599956	0.515625	0.914063	-0.093750	125	16_54_06_6881250
0.011719	-0.583008	0.032227	-0.365598	-0.637454	-0.609331	0.691406	0.937500	-0.011719	126	16_54_06_7042540
0.002930	-0.591797	0.032227	-0.365598	-0.646828	-0.599956	0.503906	0.925781	-0.023438	127	16_54_06_7203830
0.008789	-0.571289	0.035156	-0.365598	-0.656202	-0.599956	0.492188	0.937500	-0.046875	128	16_54_06_7365120
0.005859	-0.591797	0.026367	-0.365598	-0.646828	-0.599956	0.550781	0.890625	-0.058594	129	16_54_06_7526410
0.005859	-0.591797	0.035156	-0.365598	-0.656202	-0.599956	0.492188	0.832031	0.000000	130	16_54_06_7687700
0.005859	-0.588867	0.035156	-0.365598	-0.646828	-0.599956	0.492188	0.902344	0.023438	131	16_54_06_7848990
0.002930	-0.577148	0.032227	-0.374973	-0.656202	-0.599956	0.515625	0.960938	-0.035156	132	16_54_06_8010280
0.008789	-0.571289	0.020508	-0.374973	-0.656202	-0.599956	0.492188	0.925781	-0.023438	133	16_54_06_8171570
0.014648	-0.580078	0.038086	-0.374973	-0.656202	-0.599956	0.480469	0.949219	0.035156	134	16_54_06_8332860
0.002930	-0.577148	0.023438	-0.374973	-0.656202	-0.599956	0.492188	0.949219	0.292969	135	16_54_06_8494150
0.011719	-0.580078	0.029297	-0.365598	-0.656202	-0.599956	0.515625	0.867188	-0.058594	136	16_54_06_8655440
0.011719	-0.571289	0.032227	-0.365598	-0.656202	-0.599956	0.515625	0.890625	-0.070313	137	16_54_06_8816730
0.014648	-0.583008	0.035156	-0.365598	-0.656202	-0.590582	0.492188	0.890625	-0.035156	138	16_54_06_8978020
0.011719	-0.583008	0.023438	-0.374973	-0.656202	-0.599956	0.562500	0.937500	-0.011719	139	16_54_06_9139310
0.011719	-0.580078	0.035156	-0.365598	-0.656202	-0.599956	0.972656	0.914063	0.152344	140	16_54_06_9300600
0.014648	-0.580078	0.035156	-0.374973	-0.656202	-0.599956	0.503906	0.937500	-0.093750	141	16_54_06_9461890
0.014648	-0.583008	0.038086	-0.365598	-0.656202	-0.599956	0.492188	0.925781	-0.058594	142	16_54_06_9623180
0.005859	-0.583008	0.032227	-0.365598	-0.646828	-0.599956	0.843750	0.890625	0.515625	143	16_54_06_9784470
0.017578	-0.585938	0.026367	-0.365598	-0.646828	-0.599956	0.515625	0.925781	-0.035156	144	16_54_06_9945760
0.014648	-0.588867	0.026367	-0.365598	-0.656202	-0.599956	0.492188	0.925781	-0.093750	145	16_54_07_0107050
0.017578	-0.585938	0.026367	-0.365598	-0.656202	-0.599956	0.515625	0.937500	-0.082031	146	16_54_07_0268340
0.008789	-0.585938	0.029297	-0.374973	-0.656202	-0.599956	0.492188	0.984375	-0.093750	147	16_54_07_0429630
0.011719	-0.574219	0.029297	-0.374973	-0.646828	-0.599956	0.527344	0.996094	-0.046875	148	16_54_07_0590920
0.017578	-0.574219	0.029297	-0.365598	-0.656202	-0.590582	0.644531	0.949219	0.035156	149	16_54_07_0752210
0.005859	-0.580078	0.029297	-0.374973	-0.656202	-0.599956	0.492188	0.937500	-0.035156	150	16_54_07_0913500
0.011719	-0.577148	0.038086	-0.365598	-0.656202	-0.599956	0.480469	0.984375	-0.023438	151	16_54_07_1074790
0.008789	-0.585938	0.029297	-0.365598	-0.656202	-0.599956	0.503906	0.960938	-0.011719	152	16_54_07_1236080
0.011719	-0.574219	0.020508	-0.365598	-0.656202	-0.599956	0.492188	0.937500	-0.058594	153	16_54_07_1397370
0.008789	-0.583008	0.032227	-0.365598	-0.646828	-0.609331	0.503906	0.914063	-0.082031	154	16_54_07_1558660
0.017578	-0.571289	0.035156	-0.365598	-0.656202	-0.599956	0.480469	0.937500	0.281250	155	16_54_07_1719950
0.011719	-0.580078	0.041016	-0.374973	-0.646828	-0.599956	0.492188	0.890625	-0.105469	156	16_54_07_1881240
0.014648	-0.568359	0.032227	-0.365598	-0.646828	-0.609331	0.679688	0.914063	-0.035156	157	16_54_07_2042530
0.008789	-0.583008	0.029297	-0.365598	-0.646828	-0.609331	0.515625	0.914063	-0.082031	158	16_54_07_2203820
0.005859	-0.583008	0.032227	-0.365598	-0.656202	-0.599956	0.492188	0.914063	-0.082031	159	16_54_07_2365110
0.005859	-0.591797	0.041016	-0.356224	-0.656202	-0.609331	0.539063	0.867188	-0.082031	160	16_54_07_2526400
0.005859	-0.585938	0.029297	-0.365598	-0.646828	-0.599956	0.515625	0.902344	-0.035156	161	16_54_07_2687690
0.017578	-0.580078	0.032227	-0.365598	-0.646828	-0.599956	0.515625	0.925781	-0.058594	162	16_54_07_2848980
0.011719	-0.583008	0.035156	-0.374973	-0.646828	-0.599956	0.480469	0.914063	-0.093750	163	16_54_07_3010270
0.008789	-0.585938	0.041016	-0.365598	-0.656202	-0.599956	0.480469	0.925781	-0.035156	164	16_54_07_3171560
0.002930	-0.580078	0.032227	-0.374973	-0.656202	-0.599956	0.480469	0.925781	-0.023438	165	16_54_07_3332850
0.000000	-0.580078	0.032227	-0.374973	-0.656202	-0.590582	0.503906	0.937500	-0.046875	166	16_54_07_3494140
0.011719	-0.571289	0.032227	-0.374973	-0.656202	-0.590582	0.515625	0.972656	-0.035156	167	16_54_07_3655430
0.011719	-0.580078	0.038086	-0.374973	-0.656202	-0.599956	0.503906	0.984375	-0.035156	168	16_54_07_3816720
0.017578	-0.585938	0.026367	-0.374973	-0.656202	-0.599956	0.527344	0.937500	-0.070313	169	16_54_07_3978010
0.020508	-0.574219	0.020508	-0.374973	-0.646828	-0.609331	0.503906	0.890625	-0.058594	170	16_54_07_4139300
0.011719	-0.583008	0.026367	-0.374973	-0.637454	-0.609331	0.539063	0.937500	-0.011719	171	16_54_07_4300590
0.011719	-0.574219	0.023438	-0.374973	-0.646828	-0.599956	0.492188	0.972656	-0.058594	172	16_54_07_4461880
0.002930	-0.591797	0.026367	-0.374973	-0.656202	-0.599956	0.492188	0.949219	-0.082031	173	16_54_07_4623170
0.000000	-0.574219	0.023438	-0.374973	-0.656202	-0.609331	0.550781	0.914063	-0.058594	174	16_54_07_4784460
0.011719	-0.571289	0.023438	-0.365598	-0.646828	-0.599956	0.492188	0.914063	-0.082031	175	16_54_07_4945750
0.017578	-0.580078	0.038086	-0.365598	-0.646828	-0.599956	0.480469	0.960938	-0.046875	176	16_54_07_5107040
0.008789	-0.580078	0.035156	-0.365598	-0.646828	-0.599956	0.503906	0.925781	-0.046875	177	16_54_07_5268330
-0.005859	-0.580078	0.032227	-0.365598	-0.646828	-0.599956	0.492188	0.937500	-0.082031	178	16_54_07_5429620
0.002930	-0.580078	0.038086	-0.365598	-0.646828	-0.599956	0.492188	0.925781	-0.082031	179	16_54_07_5590910
0.008789	-0.583008	0.038086	-0.356224	-0.656202	-0.599956	0.492188	0.843750	-0.035156	180	16_54_07_5752200
0.011719	-0.580078	0.032227	-0.365598	-0.646828	-0.599956	0.492188	0.925781	-0.035156	181	16_54_07_5913490
0.017578	-0.583008	0.026367	-0.365598	-0.646828	-0.599956	0.492188	0.937500	-0.082031	182	16_54_07_6074780
0.014648	-0.577148	0.032227	-0.365598	-0.646828	-0.599956	0.515625	0.937500	-0.093750	183	16_54_07_6236070
0.011719	-0.583008	0.035156	-0.356224	-0.656202	-0.599956	0.492188	0.984375	-0.093750	184	16_54_07_6397360
0.023438	-0.591797	0.032227	-0.365598	-0.656202	-0.599956	0.492188	0.972656	-0.046875	185	16_54_07_6558650
0.011719	-0.591797	0.026367	-0.365598	-0.656202	-0.590582	0.480469	0.914063	-0.035156	186	16_54_07_6719940
0.002930	-0.580078	0.032227	-0.365598	-0.656202	-0.599956	0.621094	0.855469	0.269531	187	16_54_07_6881230
0.005859	-0.591797	0.026367	-0.365598	-0.656202	-0.590582	0.492188	0.937500	-0.093750	188	16_54_07_7042520
0.011719	-0.594727	0.032227	-0.365598	-0.656202	-0.590582	0.480469	0.937500	-0.093750	189	16_54_07_7203810
-0.002930	-0.594727	0.026367	-0.365598	-0.646828	-0.590582	0.515625	0.937500	-0.035156	190	16_54_07_7365100
0.000000	-0.597656	0.023438	-0.374973	-0.656202	-0.590582	0.492188	0.914063	0.000000	191	16_54_07_7526390
0.014648	-0.594727	0.026367	-0.374973	-0.656202	-0.590582	0.492188	0.890625	-0.046875	192	16_54_07_7687680
-0.002930	-0.577148	0.035156	-0.384347	-0.656202	-0.590582	0.503906	0.949219	-0.070313	193	16_54_07_7848970
0.017578	-0.583008	0.029297	-0.384347	-0.656202	-0.590582	0.492188	0.914063	-0.035156	194	16_54_07_8010260
0.017578	-0.580078	0.029297	-0.374973	-0.656202	-0.590582	0.527344	0.902344	-0.058594	195	16_54_07_8171550
0.017578	-0.568359	0.026367	-0.374973	-0.656202	-0.599956	0.492188	0.890625	-0.093750	196	16_54_07_8332840
0.023438	-0.571289	0.026367	-0.374973	-0.656202	-0.590582	0.480469	0.914063	-0.011719	197	16_54_07_8494130
0.014648	-0.577148	0.020508	-0.374973	-0.646828	-0.590582	0.503906	0.878906	-0.023438	198	16_54_07_8655420
0.026367	-0.580078	0.020508	-0.365598	-0.646828	-0.590582	0.503906	0.937500	-0.046875	199	16_54_07_8816710
0.017578	-0.577148	0.029297	-0.365598	-0.646828	-0.599956	0.808594	0.949219	0.105469	200	16_54_07_8978000
0.014648	-0.571289	0.026367	-0.365598	-0.646828	-0.599956	0.539063	0.902344	0.000000	201	16_54_07_9139290
0.011719	-0.585938	0.023438	-0.365598	-0.646828	-0.599956	0.492188	0.960938	-0.023438	202	16_54_07_9300580
0.017578	-0.585938	0.029297	-0.365598	-0.637454	-0.599956	0.480469	0.984375	-0.035156	203	16_54_07_9461870
0.014648	-0.580078	0.026367	-0.356224	-0.646828	-0.599956	0.503906	0.925781	-0.082031	204	16_54_07_9623160
0.014648	-0.583008	0.035156	-0.365598	-0.646828	-0.599956	0.503906	0.925781	-0.082031	205	16_54_07_9784450
0.008789	-0.583008	0.038086	-0.365598	-0.646828	-0.599956	0.492188	0.914063	-0.046875	206	16_54_07_9945740
0.002930	-0.585938	0.041016	-0.365598	-0.656202	-0.599956	0.539063	0.972656	-0.058594	207	16_54_08_0107030
0.014648	-0.583008	0.046875	-0.365598	-0.656202	-0.599956	0.480469	0.972656	-0.082031	208	16_54_08_0268320
0.017578	-0.591797	0.038086	-0.374973	-0.656202	-0.599956	0.515625	0.960938	-0.093750	209	16_54_08_0429610
0.026367	-0.583008	0.038086	-0.374973	-0.656202	-0.599956	0.492188	0.890625	-0.082031	210	16_54_08_0590900
0.017578	-0.571289	0.035156	-0.365598	-0.656202	-0.599956	0.750000	0.914063	0.046875	211	16_54_08_0752190
0.023438	-0.585938	0.029297	-0.374973	-0.656202	-0.599956	0.492188	0.960938	-0.082031	212	16_54_08_0913480
0.017578	-0.568359	0.026367	-0.365598	-0.656202	-0.599956	0.480469	0.914063	-0.046875	213	16_54_08_1074770
0.023438	-0.577148	0.026367	-0.365598	-0.656202	-0.599956	0.492188	0.914063	-0.023438	214	16_54_08_1236060
0.020508	-0.591797	0.017578	-0.365598	-0.656202	-0.590582	0.527344	0.937500	-0.046875	215	16_54_08_1397350
0.026367	-0.574219	0.032227	-0.374973	-0.656202	-0.599956	0.527344	0.960938	-0.023438	216	16_54_08_1558640
0.017578	-0.583008	0.041016	-0.365598	-0.646828	-0.599956	0.585938	0.984375	0.574219	217	16_54_08_1719930
0.020508	-0.574219	0.032227	-0.365598	-0.637454	-0.599956	0.515625	0.984375	-0.070313	218	16_54_08_1881220
0.011719	-0.577148	0.026367	-0.365598	-0.646828	-0.599956	0.515625	0.914063	-0.058594	219	16_54_08_2042510
0.026367	-0.577148	0.026367	-0.365598	-0.656202	-0.599956	0.515625	0.902344	-0.035156	220	16_54_08_2203800
0.023438	-0.583008	0.029297	-0.365598	-0.656202	-0.609331	0.492188	0.843750	-0.082031	221	16_54_08_2365090
0.017578	-0.574219	0.035156	-0.365598	-0.646828	-0.599956	0.503906	0.925781	-0.093750	222	16_54_08_2526380
0.014648	-0.585938	0.029297	-0.365598	-0.637454	-0.609331	0.492188	0.925781	-0.070313	223	16_54_08_2687670
0.014648	-0.583008	0.032227	-0.365598	-0.637454	-0.609331	0.480469	0.937500	-0.046875	224	16_54_08_2848960
0.005859	-0.580078	0.029297	-0.365598	-0.637454	-0.599956	1.089844	0.949219	0.222656	225	16_54_08_3010250
0.002930	-0.580078	0.032227	-0.374973	-0.646828	-0.599956	0.515625	0.867188	-0.046875	226	16_54_08_3171540
0.029297	-0.588867	0.038086	-0.374973	-0.656202	-0.599956	0.468750	0.914063	-0.046875	227	16_54_08_3332830
0.023438	-0.585938	0.041016	-0.374973	-0.646828	-0.599956	0.527344	0.914063	-0.046875	228	16_54_08_3494120
0.023438	-0.577148	0.035156	-0.365598	-0.646828	-0.609331	0.503906	0.914063	-0.023438	229	16_54_08_3655410
0.011719	-0.583008	0.032227	-0.365598	-0.646828	-0.599956	0.515625	0.914063	0.035156	230	16_54_08_3816700
0.017578	-0.583008	0.032227	-0.365598	-0.646828	-0.599956	0.750000	0.902344	0.046875	231	16_54_08_3977990
0.005859	-0.580078	0.023438	-0.365598	-0.656202	-0.599956	0.492188	0.902344	-0.093750	232	16_54_08_4139280
0.020508	-0.574219	0.041016	-0.365598	-0.646828	-0.599956	0.515625	0.914063	-0.093750	233	16_54_08_4300570
0.017578	-0.580078	0.032227	-0.365598	-0.646828	-0.599956	0.480469	0.972656	-0.058594	234	16_54_08_4461860
0.008789	-0.580078	0.041016	-0.365598	-0.646828	-0.599956	1.066406	0.914063	0.140625	235	16_54_08_4623150
0.011719	-0.583008	0.029297	-0.365598	-0.656202	-0.599956	0.492188	0.890625	-0.105469	236	16_54_08_4784440
0.014648	-0.591797	0.029297	-0.365598	-0.656202	-0.599956	0.796875	0.902344	0.351563	237	16_54_08_4945730
0.023438	-0.585938	0.032227	-0.365598	-0.656202	-0.599956	0.515625	0.890625	-0.046875	238	16_54_08_5107020
0.011719	-0.580078	0.035156	-0.365598	-0.656202	-0.599956	0.492188	0.937500	-0.105469	239	16_54_08_5268310
0.011719	-0.580078	0.035156	-0.365598	-0.646828	-0.599956	0.468750	0.960938	-0.082031	240	16_54_08_5429600
0.017578	-0.568359	0.029297	-0.374973	-0.656202	-0.599956	0.503906	0.914063	-0.046875	241	16_54_08_5590890
0.017578	-0.583008	0.032227	-0.374973	-0.656202	-0.599956	0.503906	0.937500	-0.023438	242	16_54_08_5752180
0.020508	-0.585938	0.020508	-0.374973	-0.656202	-0.599956	0.492188	0.914063	-0.035156	243	16_54_08_5913470
0.017578	-0.583008	0.026367	-0.374973	-0.656202	-0.599956	0.492188	0.972656	-0.058594	244	16_54_08_6074760
0.017578	-0.583008	0.035156	-0.365598	-0.646828	-0.599956	0.539063	0.960938	-0.011719	245	16_54_08_6236050
0.011719	-0.585938	0.029297	-0.374973	-0.656202	-0.599956	0.503906	0.914063	-0.023438	246	16_54_08_6397340
0.005859	-0.580078	0.032227	-0.365598	-0.646828	-0.599956	0.550781	0.914063	0.000000	247	16_54_08_6558630
0.011719	-0.577148	0.041016	-0.365598	-0.656202	-0.599956	0.480469	0.937500	0.023438	248	16_54_08_6719920
0.005859	-0.580078	0.026367	-0.365598	-0.656202	-0.599956	0.691406	0.925781	0.410156	249	16_54_08_6881210
0.017578	-0.580078	0.032227	-0.374973	-0.646828	-0.599956	0.515625	0.878906	-0.058594	250	16_54_08_7042500
0.020508	-0.585938	0.032227	-0.365598	-0.646828	-0.599956	0.503906	0.878906	-0.046875	251	16_54_08_7203790
0.014648	-0.580078	0.038086	-0.365598	-0.646828	-0.599956	0.539063	0.937500	-0.046875	252	16_54_08_7365080
0.020508	-0.580078	0.041016	-0.365598	-0.656202	-0.599956	0.503906	0.960938	-0.046875	253	16_54_08_7526370
0.023438	-0.583008	0.035156	-0.365598	-0.656202	-0.599956	0.503906	0.960938	-0.070313	254	16_54_08_7687660
0.014648	-0.594727	0.026367	-0.365598	-0.656202	-0.599956	0.527344	0.890625	-0.058594	255	16_54_08_7848950
0.011719	-0.583008	0.032227	-0.374973	-0.656202	-0.599956	0.503906	0.820313	-0.046875	256	16_54_08_8010240
0.014648	-0.585938	0.043945	-0.365598	-0.656202	-0.599956	0.503906	0.925781	-0.070313	257	16_54_08_8171530
0.014648	-0.580078	0.032227	-0.365598	-0.646828	-0.599956	0.468750	0.890625	-0.070313	258	16_54_08_8332820
0.017578	-0.580078	0.026367	-0.365598	-0.656202	-0.609331	0.503906	0.855469	-0.035156	259	16_54_08_8494110
0.029297	-0.583008	0.026367	-0.374973	-0.656202	-0.599956	0.492188	0.890625	-0.011719	260	16_54_08_8655400
0.023438	-0.571289	0.032227	-0.374973	-0.656202	-0.599956	0.492188	0.914063	-0.035156	261	16_54_08_8816690
0.029297	-0.580078	0.035156	-0.374973	-0.656202	-0.599956	0.492188	0.937500	-0.035156	262	16_54_08_8977980
0.008789	-0.583008	0.038086	-0.365598	-0.656202	-0.599956	0.492188	0.925781	-0.011719	263	16_54_08_9139270
0.011719	-0.574219	0.029297	-0.374973	-0.656202	-0.599956	0.492188	0.937500	-0.046875	264	16_54_08_9300560
0.014648	-0.583008	0.035156	-0.374973	-0.656202	-0.599956	0.503906	0.890625	-0.046875	265	16_54_08_9461850
0.026367	-0.591797	0.032227	-0.365598	-0.646828	-0.599956	1.054688	0.890625	0.128906	266	16_54_08_9623140
0.017578	-0.585938	0.041016	-0.365598	-0.656202	-0.599956	1.042969	0.937500	0.199219	267	16_54_08_9784430
0.017578	-0.571289	0.032227	-0.365598	-0.656202	-0.599956	0.492188	0.960938	-0.046875	268	16_54_08_9945720
0.020508	-0.580078	0.035156	-0.365598	-0.646828	-0.599956	0.480469	0.937500	-0.058594	269	16_54_09_0107010
0.005859	-0.574219	0.032227	-0.365598	-0.656202	-0.599956	0.515625	0.960938	-0.070313	270	16_54_09_0268300
0.011719	-0.580078	0.023438	-0.365598	-0.656202	-0.599956	0.515625	0.902344	-0.058594	271	16_54_09_0429590
0.017578	-0.580078	0.026367	-0.365598	-0.646828	-0.599956	0.503906	0.867188	-0.035156	272	16_54_09_0590880
0.014648	-0.583008	0.043945	-0.365598	-0.656202	-0.599956	0.503906	0.960938	-0.082031	273	16_54_09_0752170
0.011719	-0.583008	0.029297	-0.365598	-0.646828	-0.599956	0.855469	0.937500	0.035156	274	16_54_09_0913460
0.011719	-0.585938	0.032227	-0.365598	-0.637454	-0.599956	0.468750	0.960938	-0.117188	275	16_54_09_1074750
0.020508	-0.583008	0.026367	-0.365598	-0.646828	-0.599956	0.527344	0.960938	-0.058594	276	16_54_09_1236040
0.017578	-0.585938	0.020508	-0.365598	-0.656202	-0.599956	1.183594	1.019531	0.316406	277	16_54_09_1397330
0.017578	-0.574219	0.032227	-0.374973	-0.646828	-0.599956	0.503906	0.984375	-0.011719	278	16_54_09_1558620
0.008789	-0.591797	0.032227	-0.365598	-0.656202	-0.599956	0.480469	0.914063	0.011719	279	16_54_09_1719910
0.017578	-0.571289	0.041016	-0.365598	-0.656202	-0.599956	0.515625	0.914063	-0.035156	280	16_54_09_1881200
0.011719	-0.583008	0.032227	-0.374973	-0.656202	-0.599956	0.656250	0.937500	0.035156	281	16_54_09_2042490
0.005859	-0.577148	0.029297	-0.365598	-0.656202	-0.599956	0.492188	0.937500	0.046875	282	16_54_09_2203780
0.005859	-0.585938	0.029297	-0.365598	-0.656202	-0.599956	0.480469	0.937500	-0.070313	283	16_54_09_2365070
0.011719	-0.583008	0.032227	-0.365598	-0.656202	-0.609331	0.503906	0.925781	-0.070313	284	16_54_09_2526360
0.014648	-0.580078	0.029297	-0.374973	-0.656202	-0.609331	0.527344	0.890625	-0.035156	285	16_54_09_2687650
0.011719	-0.568359	0.029297	-0.365598	-0.656202	-0.599956	0.480469	0.960938	0.000000	286	16_54_09_2848940
0.014648	-0.585938	0.041016	-0.365598	-0.656202	-0.599956	1.195313	0.937500	0.281250	287	16_54_09_3010230
0.011719	-0.577148	0.026367	-0.365598	-0.646828	-0.599956	0.492188	0.902344	-0.058594	288	16_54_09_3171520
0.023438	-0.583008	0.023438	-0.365598	-0.656202	-0.599956	0.503906	0.902344	-0.105469	289	16_54_09_3332810
0.017578	-0.585938	0.026367	-0.365598	-0.656202	-0.599956	0.492188	0.890625	-0.082031	290	16_54_09_3494100
0.020508	-0.574219	0.026367	-0.365598	-0.656202	-0.599956	0.609375	0.984375	-0.023438	291	16_54_09_3655390
0.023438	-0.574219	0.029297	-0.374973	-0.646828	-0.599956	0.515625	0.972656	-0.070313	292	16_54_09_3816680
0.020508	-0.577148	0.032227	-0.365598	-0.637454	-0.599956	0.609375	0.960938	-0.023438	293	16_54_09_3977970
0.017578	-0.580078	0.032227	-0.374973	-0.646828	-0.599956	0.738281	0.937500	0.046875	294	16_54_09_4139260
0.017578	-0.577148	0.035156	-0.374973	-0.656202	-0.609331	0.492188	0.914063	-0.011719	295	16_54_09_4300550
0.020508	-0.571289	0.035156	-0.374973	-0.656202	-0.599956	0.503906	0.960938	-0.011719	296	16_54_09_4461840
0.029297	-0.580078	0.032227	-0.374973	-0.656202	-0.599956	0.550781	0.914063	-0.023438	297	16_54_09_4623130
0.014648	-0.574219	0.041016	-0.365598	-0.656202	-0.599956	0.527344	0.925781	-0.035156	298	16_54_09_4784420
0.014648	-0.580078	0.032227	-0.365598	-0.646828	-0.599956	0.515625	0.984375	-0.046875	299	16_54_09_4945710
0.017578	-0.580078	0.038086	-0.374973	-0.646828	-0.599956	0.609375	0.949219	-0.046875	300	16_54_09_5107000
0.008789	-0.568359	0.041016	-0.365598	-0.656202	-0.599956	0.527344	0.960938	0.386719	301	16_54_09_5268290
0.005859	-0.583008	0.032227	-0.365598	-0.646828	-0.599956	0.527344	0.914063	-0.058594	302	16_54_09_5429580
0.005859	-0.583008	0.038086	-0.365598	-0.656202	-0.599956	0.503906	0.890625	-0.035156	303	16_54_09_5590870
0.008789	-0.580078	0.035156	-0.365598	-0.656202	-0.599956	0.492188	0.890625	-0.035156	304	16_54_09_5752160
0.014648	-0.580078	0.038086	-0.374973	-0.656202	-0.599956	0.492188	0.878906	-0.058594	305	16_54_09_5913450
0.020508	-0.580078	0.038086	-0.365598	-0.656202	-0.599956	0.539063	0.949219	-0.023438	306	16_54_09_6074740
0.023438	-0.585938	0.038086	-0.365598	-0.646828	-0.599956	0.714844	0.937500	0.070313	307	16_54_09_6236030
0.005859	-0.574219	0.035156	-0.374973	-0.646828	-0.599956	0.492188	0.925781	0.000000	308	16_54_09_6397320
0.014648	-0.583008	0.035156	-0.365598	-0.646828	-0.599956	0.480469	0.914063	-0.023438	309	16_54_09_6558610
0.017578	-0.580078	0.026367	-0.365598	-0.656202	-0.599956	0.714844	0.960938	0.304688	310	16_54_09_6719900
0.020508	-0.577148	0.032227	-0.365598	-0.656202	-0.599956	0.480469	0.949219	-0.070313	311	16_54_09_6881190
0.026367	-0.588867	0.035156	-0.365598	-0.646828	-0.599956	0.480469	0.937500	-0.105469	312	16_54_09_7042480
0.017578	-0.580078	0.038086	-0.365598	-0.646828	-0.599956	0.492188	0.937500	-0.070313	313	16_54_09_7203770
0.020508	-0.571289	0.038086	-0.365598	-0.656202	-0.599956	0.527344	0.878906	-0.035156	314	16_54_09_7365060
0.017578	-0.583008	0.035156	-0.365598	-0.656202	-0.599956	0.492188	0.925781	-0.035156	315	16_54_09_7526350
0.020508	-0.580078	0.023438	-0.365598	-0.656202	-0.599956	0.539063	0.984375	-0.058594	316	16_54_09_7687640
0.017578	-0.585938	0.035156	-0.365598	-0.637454	-0.599956	0.492188	0.960938	-0.058594	317	16_54_09_7848930
0.029297	-0.583008	0.032227	-0.365598	-0.656202	-0.599956	0.480469	0.972656	-0.058594	318	16_54_09_8010220
0.017578	-0.580078	0.026367	-0.374973	-0.646828	-0.599956	0.480469	0.914063	-0.035156	319	16_54_09_8171510
0.023438	-0.583008	0.032227	-0.374973	-0.646828	-0.599956	0.503906	0.996094	-0.093750	320	16_54_09_8332800
0.014648	-0.583008	0.043945	-0.374973	-0.656202	-0.599956	0.503906	0.949219	-0.058594	321	16_54_09_8494090
0.017578	-0.583008	0.041016	-0.374973	-0.656202	-0.599956	0.468750	0.914063	0.398438	322	16_54_09_8655380
0.017578	-0.583008	0.032227	-0.365598	-0.656202	-0.599956	0.503906	0.914063	-0.046875	323	16_54_09_8816670
0.014648	-0.562500	0.043945	-0.374973	-0.656202	-0.599956	0.492188	0.960938	-0.058594	324	16_54_09_8977960
0.017578	-0.580078	0.041016	-0.365598	-0.646828	-0.609331	0.503906	0.925781	-0.035156	325	16_54_09_9139250
0.023438	-0.580078	0.038086	-0.365598	-0.656202	-0.599956	0.515625	0.937500	-0.046875	326	16_54_09_9300540
0.011719	-0.583008	0.035156	-0.365598	-0.656202	-0.599956	0.503906	0.902344	-0.046875	327	16_54_09_9461830
0.017578	-0.580078	0.023438	-0.365598	-0.656202	-0.599956	0.492188	0.867188	-0.035156	328	16_54_09_9623120
0.029297	-0.591797	0.035156	-0.365598	-0.656202	-0.609331	1.136719	0.902344	0.210938	329	16_54_09_9784410
0.020508	-0.580078	0.038086	-0.365598	-0.646828	-0.599956	0.492188	0.878906	-0.058594	330	16_54_09_9945700
0.023438	-0.577148	0.041016	-0.365598	-0.637454	-0.599956	0.492188	0.902344	-0.093750	331	16_54_10_0106990
0.014648	-0.571289	0.038086	-0.374973	-0.646828	-0.599956	0.468750	0.937500	0.363281	332	16_54_10_0268280
0.014648	-0.591797	0.026367	-0.365598	-0.656202	-0.599956	0.644531	0.937500	-0.011719	333	16_54_10_0429570
0.017578	-0.585938	0.026367	-0.374973	-0.656202	-0.599956	0.492188	0.914063	0.000000	334	16_54_10_0590860
0.020508	-0.568359	0.041016	-0.374973	-0.656202	-0.599956	0.503906	0.878906	-0.023438	335	16_54_10_0752150
0.020508	-0.574219	0.032227	-0.365598	-0.656202	-0.599956	0.480469	0.914063	-0.011719	336	16_54_10_0913440
0.023438	-0.585938	0.035156	-0.365598	-0.637454	-0.599956	0.843750	0.960938	0.093750	337	16_54_10_1074730
0.023438	-0.580078	0.032227	-0.365598	-0.646828	-0.599956	0.527344	1.031250	-0.035156	338	16_54_10_1236020
0.023438	-0.585938	0.038086	-0.365598	-0.646828	-0.590582	0.492188	0.996094	-0.035156	339	16_54_10_1397310
0.011719	-0.580078	0.032227	-0.365598	-0.646828	-0.599956	0.457031	0.972656	-0.082031	340	16_54_10_1558600
0.008789	-0.577148	0.043945	-0.374973	-0.656202	-0.599956	0.503906	0.937500	-0.093750	341	16_54_10_1719890
0.017578	-0.585938	0.041016	-0.365598	-0.656202	-0.599956	0.480469	0.937500	-0.058594	342	16_54_10_1881180
0.005859	-0.580078	0.035156	-0.365598	-0.656202	-0.599956	0.597656	0.937500	0.410156	343	16_54_10_2042470
0.008789	-0.591797	0.032227	-0.365598	-0.646828	-0.618705	0.515625	0.902344	-0.011719	344	16_54_10_2203760
0.029297	-0.585938	0.032227	-0.374973	-0.646828	-0.609331	0.515625	0.914063	-0.070313	345	16_54_10_2365050
0.017578	-0.594727	0.032227	-0.365598	-0.646828	-0.599956	0.750000	0.914063	0.000000	346	16_54_10_2526340
0.014648	-0.571289	0.038086	-0.365598	-0.656202	-0.599956	0.738281	0.937500	0.046875	347	16_54_10_2687630
0.014648	-0.583008	0.043945	-0.365598	-0.656202	-0.609331	0.515625	0.960938	-0.058594	348	16_54_10_2848920
0.011719	-0.571289	0.043945	-0.365598	-0.656202	-0.609331	0.515625	0.914063	-0.082031	349	16_54_10_3010210
0.014648	-0.580078	0.038086	-0.374973	-0.646828	-0.599956	0.539063	0.949219	-0.058594	350	16_54_10_3171500
0.017578	-0.580078	0.035156	-0.365598	-0.656202	-0.599956	0.890625	0.984375	0.222656	351	16_54_10_3332790
0.017578	-0.580078	0.035156	-0.365598	-0.646828	-0.599956	0.492188	0.960938	-0.093750	352	16_54_10_3494080
0.020508	-0.588867	0.029297	-0.365598	-0.656202	-0.599956	0.480469	0.914063	-0.058594	353	16_54_10_3655370
0.017578	-0.571289	0.032227	-0.365598	-0.646828	-0.599956	0.503906	0.914063	0.234375	354	16_54_10_3816660
0.017578	-0.583008	0.041016	-0.365598	-0.656202	-0.599956	0.515625	0.890625	-0.070313	355	16_54_10_3977950
0.014648	-0.580078	0.032227	-0.374973	-0.646828	-0.599956	0.480469	0.914063	-0.082031	356	16_54_10_4139240
0.008789	-0.580078	0.038086	-0.365598	-0.656202	-0.599956	0.468750	0.949219	-0.035156	357	16_54_10_4300530
0.017578	-0.580078	0.041016	-0.374973	-0.646828	-0.599956	0.562500	0.914063	-0.011719	358	16_54_10_4461820
0.014648	-0.585938	0.035156	-0.365598	-0.656202	-0.609331	0.527344	0.972656	-0.023438	359	16_54_10_4623110
0.029297	-0.580078	0.032227	-0.365598	-0.646828	-0.599956	1.230469	0.984375	0.269531	360	16_54_10_4784400
0.020508	-0.585938	0.029297	-0.365598	-0.656202	-0.599956	0.984375	0.984375	0.222656	361	16_54_10_4945690
0.011719	-0.577148	0.035156	-0.365598	-0.656202	-0.599956	0.503906	0.984375	-0.070313	362	16_54_10_5106980
0.014648	-0.568359	0.029297	-0.365598	-0.656202	-0.599956	0.480469	0.914063	-0.046875	363	16_54_10_5268270
0.014648	-0.580078	0.041016	-0.374973	-0.656202	-0.599956	0.503906	0.960938	-0.058594	364	16_54_10_5429560
0.020508	-0.585938	0.038086	-0.365598	-0.646828	-0.599956	0.503906	0.984375	0.105469	365	16_54_10_5590850
0.017578	-0.591797	0.046875	-0.365598	-0.656202	-0.599956	0.503906	0.984375	-0.082031	366	16_54_10_5752140
0.017578	-0.585938	0.032227	-0.365598	-0.656202	-0.599956	0.480469	0.972656	-0.070313	367	16_54_10_5913430
0.008789	-0.583008	0.043945	-0.365598	-0.656202	-0.599956	0.527344	0.937500	-0.035156	368	16_54_10_6074720
0.026367	-0.585938	0.035156	-0.365598	-0.656202	-0.599956	0.492188	1.007813	0.000000	369	16_54_10_6236010
0.017578	-0.577148	0.020508	-0.365598	-0.656202	-0.599956	0.515625	0.972656	-0.011719	370	16_54_10_6397300
0.014648	-0.580078	0.032227	-0.365598	-0.656202	-0.599956	0.480469	0.902344	-0.011719	371	16_54_10_6558590
0.017578	-0.580078	0.035156	-0.374973	-0.656202	-0.609331	0.503906	0.855469	-0.035156	372	16_54_10_6719880
0.020508	-0.585938	0.035156	-0.365598	-0.646828	-0.599956	0.468750	0.867188	-0.082031	373	16_54_10_6881170
0.014648	-0.580078	0.035156	-0.365598	-0.646828	-0.599956	0.621094	0.867188	0.000000	374	16_54_10_7042460
0.014648	-0.574219	0.043945	-0.365598	-0.656202	-0.599956	0.515625	0.914063	-0.046875	375	16_54_10_7203750
0.017578	-0.583008	0.032227	-0.365598	-0.656202	-0.599956	0.515625	0.984375	-0.058594	376	16_54_10_7365040
0.011719	-0.580078	0.035156	-0.365598	-0.656202	-0.609331	0.492188	0.937500	-0.082031	377	16_54_10_7526330
0.020508	-0.585938	0.032227	-0.365598	-0.656202	-0.609331	0.761719	0.890625	-0.011719	378	16_54_10_7687620
0.011719	-0.583008	0.038086	-0.365598	-0.656202	-0.599956	0.515625	0.902344	-0.058594	379	16_54_10_7848910
0.017578	-0.580078	0.035156	-0.365598	-0.656202	-0.599956	0.480469	0.972656	-0.011719	380	16_54_10_8010200
0.014648	-0.580078	0.035156	-0.374973	-0.656202	-0.599956	0.750000	0.937500	0.082031	381	16_54_10_8171490
0.014648	-0.585938	0.038086	-0.365598	-0.646828	-0.599956	0.515625	0.878906	-0.082031	382	16_54_10_8332780
0.011719	-0.580078	0.041016	-0.365598	-0.656202	-0.599956	0.480469	0.902344	-0.117188	383	16_54_10_8494070
0.011719	-0.583008	0.043945	-0.365598	-0.646828	-0.599956	0.480469	0.855469	-0.117188	384	16_54_10_8655360
0.008789	-0.577148	0.038086	-0.365598	-0.656202	-0.599956	0.609375	0.855469	0.316406	385	16_54_10_8816650
0.014648	-0.580078	0.035156	-0.374973	-0.656202	-0.599956	0.468750	0.867188	-0.093750	386	16_54_10_8977940
0.014648	-0.588867	0.038086	-0.365598	-0.656202	-0.599956	0.480469	0.914063	-0.105469	387	16_54_10_9139230
0.017578	-0.571289	0.035156	-0.365598	-0.656202	-0.599956	0.503906	0.937500	-0.082031	388	16_54_10_9300520
0.020508	-0.583008	0.032227	-0.365598	-0.656202	-0.599956	0.527344	0.890625	-0.058594	389	16_54_10_9461810
0.014648	-0.583008	0.035156	-0.365598	-0.646828	-0.599956	0.925781	0.855469	0.152344	390	16_54_10_9623100
0.014648	-0.574219	0.032227	-0.365598	-0.656202	-0.599956	0.503906	0.878906	-0.046875	391	16_54_10_9784390
0.020508	-0.580078	0.029297	-0.365598	-0.656202	-0.599956	0.492188	0.960938	-0.117188	392	16_54_10_9945680
0.017578	-0.585938	0.032227	-0.365598	-0.656202	-0.599956	0.503906	0.972656	-0.082031	393	16_54_11_0106970
0.020508	-0.574219	0.038086	-0.365598	-0.656202	-0.599956	0.492188	0.914063	-0.058594	394	16_54_11_0268260
0.014648	-0.583008	0.026367	-0.365598	-0.656202	-0.599956	0.480469	0.914063	-0.046875	395	16_54_11_0429550
0.014648	-0.585938	0.029297	-0.365598	-0.646828	-0.599956	0.480469	0.937500	-0.011719	396	16_54_11_0590840
0.017578	-0.580078	0.032227	-0.374973	-0.656202	-0.609331	0.703125	0.914063	0.046875	397	16_54_11_0752130
0.029297	-0.588867	0.035156	-0.365598	-0.656202	-0.599956	0.480469	0.890625	-0.023438	398	16_54_11_0913420
0.026367	-0.585938	0.038086	-0.365598	-0.656202	-0.609331	0.785156	0.972656	0.070313	399	16_54_11_1074710
0.008789	-0.574219	0.035156	-0.365598	-0.656202	-0.609331	0.843750	0.960938	0.082031	400	16_54_11_1236000
0.014648	-0.577148	0.029297	-0.365598	-0.646828	-0.599956	0.480469	0.914063	-0.058594	401	16_54_11_1397290
0.014648	-0.583008	0.035156	-0.374973	-0.646828	-0.609331	0.480469	0.925781	-0.082031	402	16_54_11_1558580
0.005859	-0.580078	0.046875	-0.374973	-0.646828	-0.599956	0.492188	0.914063	-0.093750	403	16_54_11_1719870
0.017578	-0.580078	0.043945	-0.374973	-0.656202	-0.599956	0.492188	0.855469	-0.058594	404	16_54_11_1881160
0.020508	-0.583008	0.026367	-0.365598	-0.656202	-0.599956	0.609375	0.914063	0.000000	405	16_54_11_2042450
0.020508	-0.583008	0.038086	-0.365598	-0.656202	-0.599956	0.480469	0.960938	-0.082031	406	16_54_11_2203740
0.017578	-0.580078	0.029297	-0.365598	-0.656202	-0.599956	0.468750	0.937500	-0.070313	407	16_54_11_2365030
0.017578	-0.591797	0.026367	-0.365598	-0.646828	-0.599956	0.492188	0.949219	-0.058594	408	16_54_11_2526320
0.017578	-0.585938	0.032227	-0.365598	-0.656202	-0.599956	0.515625	0.902344	-0.023438	409	16_54_11_2687610
0.011719	-0.583008	0.046875	-0.365598	-0.656202	-0.599956	0.492188	0.902344	-0.046875	410	16_54_11_2848900
0.014648	-0.580078	0.032227	-0.365598	-0.646828	-0.599956	0.480469	1.007813	-0.070313	411	16_54_11_3010190
0.014648	-0.580078	0.038086	-0.365598	-0.646828	-0.609331	0.503906	0.960938	-0.023438	412	16_54_11_3171480
0.023438	-0.585938	0.035156	-0.365598	-0.646828	-0.599956	0.503906	0.925781	-0.046875	413	16_54_11_3332770
0.014648	-0.591797	0.035156	-0.365598	-0.656202	-0.599956	0.480469	0.890625	-0.046875	414	16_54_11_3494060
0.020508	-0.580078	0.035156	-0.365598	-0.656202	-0.599956	0.492188	0.867188	-0.058594	415	16_54_11_3655350
0.014648	-0.580078	0.035156	-0.374973	-0.656202	-0.599956	0.515625	0.925781	-0.105469	416	16_54_11_3816640
0.014648	-0.580078	0.035156	-0.365598	-0.656202	-0.609331	0.480469	0.937500	0.152344	417	16_54_11_3977930
0.008789	-0.574219	0.035156	-0.374973	-0.646828	-0.599956	0.691406	0.937500	-0.011719	418	16_54_11_4139220
0.008789	-0.583008	0.035156	-0.365598	-0.656202	-0.599956	0.503906	0.890625	-0.093750	419	16_54_11_4300510
0.008789	-0.574219	0.032227	-0.365598	-0.656202	-0.599956	0.492188	0.949219	-0.070313	420	16_54_11_4461800
0.023438	-0.585938	0.035156	-0.374973	-0.656202	-0.599956	0.492188	0.902344	-0.046875	421	16_54_11_4623090
0.014648	-0.580078	0.035156	-0.365598	-0.646828	-0.599956	0.503906	0.902344	-0.058594	422	16_54_11_4784380
0.020508	-0.583008	0.032227	-0.365598	-0.646828	-0.599956	0.480469	0.878906	-0.058594	423	16_54_11_4945670
0.017578	-0.583008	0.038086	-0.365598	-0.646828	-0.599956	0.890625	0.890625	0.234375	424	16_54_11_5106960
0.014648	-0.585938	0.029297	-0.365598	-0.656202	-0.599956	0.527344	0.890625	-0.011719	425	16_54_11_5268250
0.020508	-0.577148	0.043945	-0.365598	-0.656202	-0.599956	0.492188	0.867188	-0.023438	426	16_54_11_5429540
0.020508	-0.580078	0.032227	-0.365598	-0.656202	-0.599956	0.679688	0.984375	0.281250	427	16_54_11_5590830
0.011719	-0.574219	0.049805	-0.365598	-0.646828	-0.599956	0.527344	0.937500	-0.023438	428	16_54_11_5752120
0.014648	-0.580078	0.026367	-0.365598	-0.656202	-0.599956	0.515625	0.937500	-0.082031	429	16_54_11_5913410
0.029297	-0.577148	0.038086	-0.365598	-0.656202	-0.599956	0.492188	0.960938	-0.117188	430	16_54_11_6074700
0.017578	-0.580078	0.035156	-0.374973	-0.656202	-0.599956	0.773438	0.937500	0.058594	431	16_54_11_6235990
0.011719	-0.580078	0.035156	-0.365598	-0.656202	-0.599956	0.984375	0.949219	0.152344	432	16_54_11_6397280
0.011719	-0.585938	0.026367	-0.365598	-0.646828	-0.599956	0.503906	0.949219	0.000000	433	16_54_11_6558570
0.026367	-0.577148	0.032227	-0.374973	-0.656202	-0.599956	0.539063	0.914063	0.023438	434	16_54_11_6719860
0.014648	-0.577148	0.043945	-0.374973	-0.656202	-0.599956	0.609375	0.925781	0.000000	435	16_54_11_6881150
0.023438	-0.577148	0.038086	-0.365598	-0.656202	-0.599956	0.515625	0.890625	-0.093750	436	16_54_11_7042440
0.014648	-0.580078	0.038086	-0.365598	-0.656202	-0.599956	0.527344	0.890625	-0.093750	437	16_54_11_7203730
0.014648	-0.585938	0.032227	-0.365598	-0.656202	-0.599956	0.492188	0.925781	-0.046875	438	16_54_11_7365020
0.023438	-0.588867	0.035156	-0.365598	-0.656202	-0.599956	0.503906	0.890625	-0.046875	439	16_54_11_7526310
0.014648	-0.580078	0.046875	-0.365598	-0.656202	-0.599956	0.480469	0.878906	-0.093750	440	16_54_11_7687600
0.011719	-0.580078	0.035156	-0.365598	-0.656202	-0.599956	0.750000	0.937500	0.035156	441	16_54_11_7848890
0.029297	-0.585938	0.035156	-0.365598	-0.656202	-0.599956	0.468750	0.949219	-0.070313	442	16_54_11_8010180
0.029297	-0.571289	0.038086	-0.365598	-0.656202	-0.599956	0.492188	0.937500	-0.023438	443	16_54_11_8171470
0.014648	-0.583008	0.026367	-0.365598	-0.656202	-0.599956	1.019531	0.937500	0.199219	444	16_54_11_8332760
0.017578	-0.571289	0.032227	-0.374973	-0.656202	-0.599956	0.925781	0.937500	0.269531	445	16_54_11_8494050
0.011719	-0.577148	0.038086	-0.365598	-0.656202	-0.599956	0.621094	0.984375	0.140625	446	16_54_11_8655340
0.017578	-0.577148	0.038086	-0.365598	-0.656202	-0.599956	0.480469	1.007813	-0.011719	447	16_54_11_8816630
0.029297	-0.574219	0.038086	-0.365598	-0.656202	-0.599956	0.503906	0.949219	-0.035156	448	16_54_11_8977920
0.017578	-0.580078	0.041016	-0.365598	-0.656202	-0.599956	0.480469	0.949219	-0.082031	449	16_54_11_9139210
0.014648	-0.580078	0.043945	-0.365598	-0.646828	-0.599956	0.550781	0.937500	-0.058594	450	16_54_11_9300500
0.011719	-0.580078	0.032227	-0.365598	-0.646828	-0.609331	0.773438	0.937500	0.035156	451	16_54_11_9461790
0.020508	-0.583008	0.043945	-0.365598	-0.646828	-0.599956	0.503906	0.949219	-0.105469	452	16_54_11_9623080
0.017578	-0.585938	0.032227	-0.365598	-0.646828	-0.599956	0.468750	0.914063	-0.093750	453	16_54_11_9784370
0.017578	-0.577148	0.035156	-0.374973	-0.656202	-0.599956	0.503906	0.902344	-0.058594	454	16_54_11_9945660
0.020508	-0.577148	0.043945	-0.365598	-0.656202	-0.599956	0.503906	0.855469	-0.093750	455	16_54_12_0106950
0.011719	-0.568359	0.035156	-0.365598	-0.646828	-0.590582	0.480469	0.878906	-0.070313	456	16_54_12_0268240
0.017578	-0.583008	0.041016	-0.365598	-0.656202	-0.599956	0.503906	0.937500	-0.023438	457	16_54_12_0429530
0.017578	-0.577148	0.026367	-0.365598	-0.656202	-0.599956	0.480469	0.878906	-0.023438	458	16_54_12_0590820
0.017578	-0.583008	0.038086	-0.365598	-0.656202	-0.599956	0.761719	0.878906	0.175781	459	16_54_12_0752110
0.014648	-0.574219	0.032227	-0.365598	-0.646828	-0.599956	0.527344	0.925781	-0.070313	460	16_54_12_0913400
0.017578	-0.580078	0.041016	-0.365598	-0.656202	-0.599956	0.468750	0.949219	-0.082031	461	16_54_12_1074690
0.026367	-0.588867	0.035156	-0.356224	-0.656202	-0.599956	0.796875	0.960938	0.035156	462	16_54_12_1235980
-0.002930	-0.585938	0.038086	-0.374973	-0.646828	-0.599956	0.492188	0.984375	-0.035156	463	16_54_12_1397270
0.014648	-0.580078	0.032227	-0.365598	-0.656202	-0.599956	0.492188	0.937500	-0.058594	464	16_54_12_1558560
0.023438	-0.577148	0.041016	-0.365598	-0.656202	-0.599956	0.527344	0.914063	-0.046875	465	16_54_12_1719850
0.017578	-0.577148	0.038086	-0.374973	-0.656202	-0.599956	0.503906	0.937500	-0.058594	466	16_54_12_1881140
0.017578	-0.580078	0.032227	-0.365598	-0.656202	-0.599956	0.574219	0.902344	-0.023438	467	16_54_12_2042430
0.023438	-0.585938	0.038086	-0.365598	-0.646828	-0.599956	0.656250	0.832031	0.035156	468	16_54_12_2203720
0.017578	-0.583008	0.035156	-0.365598	-0.656202	-0.599956	0.492188	0.925781	-0.070313	469	16_54_12_2365010
0.029297	-0.574219	0.035156	-0.365598	-0.656202	-0.599956	0.503906	0.902344	-0.105469	470	16_54_12_2526300
0.011719	-0.583008	0.041016	-0.365598	-0.656202	-0.599956	0.527344	0.914063	-0.082031	471	16_54_12_2687590
0.023438	-0.580078	0.035156	-0.365598	-0.656202	-0.609331	0.515625	0.890625	-0.023438	472	16_54_12_2848880
0.014648	-0.583008	0.043945	-0.365598	-0.656202	-0.599956	0.492188	0.937500	-0.023438	473	16_54_12_3010170
0.020508	-0.580078	0.029297	-0.365598	-0.646828	-0.599956	0.480469	0.984375	-0.082031	474	16_54_12_3171460
0.008789	-0.583008	0.035156	-0.374973	-0.646828	-0.599956	0.492188	0.902344	-0.117188	475	16_54_12_3332750
0.023438	-0.577148	0.041016	-0.365598	-0.656202	-0.599956	0.609375	0.914063	-0.023438	476	16_54_12_3494040
0.020508	-0.580078	0.035156	-0.365598	-0.656202	-0.599956	0.503906	0.960938	-0.035156	477	16_54_12_3655330
0.026367	-0.574219	0.038086	-0.365598	-0.656202	-0.599956	0.527344	1.007813	-0.070313	478	16_54_12_3816620
0.014648	-0.585938	0.032227	-0.365598	-0.656202	-0.599956	0.503906	0.984375	-0.082031	479	16_54_12_3977910
0.017578	-0.583008	0.023438	-0.365598	-0.656202	-0.599956	0.480469	0.972656	0.070313	480	16_54_12_4139200
0.023438	-0.583008	0.035156	-0.374973	-0.656202	-0.599956	0.480469	0.902344	-0.058594	481	16_54_12_4300490
0.017578	-0.577148	0.032227	-0.365598	-0.656202	-0.599956	0.492188	0.949219	-0.105469	482	16_54_12_4461780
0.014648	-0.577148	0.046875	-0.365598	-0.656202	-0.599956	0.539063	0.937500	-0.070313	483	16_54_12_4623070
0.029297	-0.580078	0.026367	-0.365598	-0.656202	-0.599956	0.890625	0.937500	0.105469	484	16_54_12_4784360
0.014648	-0.568359	0.038086	-0.365598	-0.656202	-0.599956	0.492188	0.914063	-0.058594	485	16_54_12_4945650
0.017578	-0.577148	0.032227	-0.365598	-0.656202	-0.599956	0.480469	0.960938	-0.058594	486	16_54_12_5106940
0.008789	-0.577148	0.038086	-0.374973	-0.656202	-0.599956	0.503906	0.937500	-0.070313	487	16_54_12_5268230
0.017578	-0.574219	0.035156	-0.365598	-0.656202	-0.599956	0.503906	0.960938	-0.082031	488	16_54_12_5429520
0.017578	-0.577148	0.038086	-0.374973	-0.656202	-0.599956	0.503906	0.914063	-0.023438	489	16_54_12_5590810
0.023438	-0.577148	0.032227	-0.365598	-0.656202	-0.609331	0.492188	0.914063	0.000000	490	16_54_12_5752100
0.014648	-0.577148	0.032227	-0.365598	-0.656202	-0.599956	0.527344	0.890625	-0.011719	491	16_54_12_5913390
0.035156	-0.585938	0.029297	-0.365598	-0.656202	-0.599956	0.738281	0.960938	0.000000	492	16_54_12_6074680
0.017578	-0.574219	0.032227	-0.365598	-0.646828	-0.599956	0.492188	0.902344	-0.070313	493	16_54_12_6235970
0.017578	-0.574219	0.032227	-0.365598	-0.656202	-0.599956	0.925781	0.914063	0.082031	494	16_54_12_6397260
0.020508	-0.571289	0.032227	-0.365598	-0.656202	-0.599956	0.515625	0.914063	-0.046875	495	16_54_12_6558550
0.011719	-0.583008	0.035156	-0.365598	-0.656202	-0.599956	0.539063	0.867188	-0.011719	496	16_54_12_6719840
0.020508	-0.580078	0.038086	-0.365598	-0.656202	-0.599956	0.914063	0.867188	0.281250	497	16_54_12_6881130
0.020508	-0.580078	0.038086	-0.365598	-0.656202	-0.599956	0.492188	0.902344	-0.093750	498	16_54_12_7042420
0.023438	-0.577148	0.035156	-0.365598	-0.656202	-0.599956	0.515625	0.867188	0.269531	499	16_54_12_7203710
0.005859	-0.585938	0.035156	-0.365598	-0.656202	-0.599956	0.609375	0.914063	0.257813	500	16_54_12_7365000
0.026367	-0.585938	0.038086	-0.365598	-0.656202	-0.599956	0.503906	0.902344	-0.082031	501	16_54_12_7526290
0.023438	-0.585938	0.035156	-0.365598	-0.656202	-0.599956	0.738281	0.902344	0.000000	502	16_54_12_7687580
0.014648	-0.577148	0.032227	-0.374973	-0.656202	-0.599956	0.480469	0.914063	-0.058594	503	16_54_12_7848870
0.023438	-0.568359	0.032227	-0.365598	-0.656202	-0.599956	0.785156	0.960938	0.035156	504	16_54_12_8010160
0.026367	-0.585938	0.029297	-0.365598	-0.656202	-0.599956	0.492188	0.996094	-0.070313	505	16_54_12_8171450
0.020508	-0.591797	0.032227	-0.365598	-0.646828	-0.590582	0.503906	0.984375	-0.046875	506	16_54_12_8332740
0.017578	-0.574219	0.029297	-0.365598	-0.656202	-0.599956	0.503906	0.925781	-0.093750	507	16_54_12_8494030
0.023438	-0.580078	0.032227	-0.365598	-0.656202	-0.599956	0.492188	0.914063	-0.070313	508	16_54_12_8655320
0.017578	-0.574219	0.032227	-0.365598	-0.646828	-0.599956	0.480469	0.890625	-0.046875	509	16_54_12_8816610
0.014648	-0.580078	0.038086	-0.365598	-0.646828	-0.599956	0.492188	0.867188	-0.058594	510	16_54_12_8977900
0.014648	-0.580078	0.043945	-0.365598	-0.656202	-0.599956	0.527344	0.984375	-0.070313	511	16_54_12_9139190
0.017578	-0.583008	0.029297	-0.374973	-0.656202	-0.599956	0.515625	1.031250	-0.070313	512	16_54_12_9300480
0.023438	-0.574219	0.032227	-0.374973	-0.656202	-0.599956	0.515625	1.007813	-0.105469	513	16_54_12_9461770
0.023438	-0.585938	0.043945	-0.374973	-0.656202	-0.599956	0.480469	0.937500	-0.117188	514	16_54_12_9623060
0.020508	-0.580078	0.038086	-0.365598	-0.656202	-0.599956	0.480469	0.960938	-0.082031	515	16_54_12_9784350
0.029297	-0.583008	0.035156	-0.365598	-0.656202	-0.599956	0.492188	0.890625	-0.070313	516	16_54_12_9945640
0.017578	-0.577148	0.035156	-0.374973	-0.646828	-0.599956	0.480469	0.902344	-0.070313	517	16_54_13_0106930
0.020508	-0.583008	0.032227	-0.365598	-0.646828	-0.599956	0.984375	0.949219	0.082031	518	16_54_13_0268220
0.023438	-0.583008	0.032227	-0.365598	-0.656202	-0.599956	0.597656	0.960938	-0.023438	519	16_54_13_0429510
0.029297	-0.583008	0.038086	-0.365598	-0.656202	-0.599956	0.503906	0.902344	0.316406	520	16_54_13_0590800
0.014648	-0.571289	0.035156	-0.365598	-0.646828	-0.609331	0.492188	0.890625	-0.093750	521	16_54_13_0752090
0.017578	-0.585938	0.046875	-0.365598	-0.656202	-0.599956	0.492188	0.878906	-0.058594	522	16_54_13_0913380
0.008789	-0.580078	0.041016	-0.365598	-0.656202	-0.599956	0.492188	0.914063	-0.011719	523	16_54_13_1074670
0.017578	-0.571289	0.032227	-0.374973	-0.656202	-0.599956	0.527344	0.890625	-0.035156	524	16_54_13_1235960
0.023438	-0.580078	0.043945	-0.356224	-0.656202	-0.599956	0.492188	0.914063	-0.082031	525	16_54_13_1397250
0.017578	-0.580078	0.038086	-0.374973	-0.656202	-0.599956	0.503906	0.925781	-0.105469	526	16_54_13_1558540
0.023438	-0.583008	0.032227	-0.365598	-0.646828	-0.599956	0.492188	0.937500	-0.128906	527	16_54_13_1719830
0.023438	-0.583008	0.043945	-0.365598	-0.656202	-0.599956	0.574219	0.972656	-0.058594	528	16_54_13_1881120
0.008789	-0.577148	0.029297	-0.374973	-0.656202	-0.599956	0.503906	0.984375	-0.070313	529	16_54_13_2042410
0.029297	-0.574219	0.038086	-0.365598	-0.656202	-0.590582	0.515625	0.925781	0.339844	530	16_54_13_2203700
0.032227	-0.571289	0.041016	-0.365598	-0.656202	-0.599956	0.503906	0.855469	-0.093750	531	16_54_13_2364990
0.023438	-0.585938	0.032227	-0.365598	-0.656202	-0.599956	0.503906	0.960938	-0.082031	532	16_54_13_2526280
0.017578	-0.583008	0.035156	-0.365598	-0.656202	-0.599956	0.492188	0.937500	-0.070313	533	16_54_13_2687570
0.032227	-0.580078	0.032227	-0.365598	-0.656202	-0.599956	0.492188	0.914063	-0.058594	534	16_54_13_2848860
0.017578	-0.574219	0.032227	-0.365598	-0.656202	-0.599956	0.480469	0.925781	-0.058594	535	16_54_13_3010150
0.026367	-0.583008	0.038086	-0.365598	-0.646828	-0.599956	0.503906	0.937500	-0.093750	536	16_54_13_3171440
0.017578	-0.580078	0.035156	-0.374973	-0.646828	-0.599956	0.492188	0.902344	-0.070313	537	16_54_13_3332730
0.020508	-0.574219	0.038086	-0.365598	-0.656202	-0.599956	0.480469	0.890625	-0.023438	538	16_54_13_3494020
0.017578	-0.583008	0.035156	-0.374973	-0.656202	-0.599956	0.515625	0.925781	-0.023438	539	16_54_13_3655310
0.011719	-0.574219	0.035156	-0.365598	-0.656202	-0.609331	0.503906	0.937500	-0.058594	540	16_54_13_3816600
0.017578	-0.583008	0.032227	-0.365598	-0.656202	-0.599956	0.480469	0.960938	-0.035156	541	16_54_13_3977890
0.020508	-0.583008	0.035156	-0.374973	-0.656202	-0.599956	0.480469	0.984375	-0.046875	542	16_54_13_4139180
0.011719	-0.577148	0.043945	-0.365598	-0.656202	-0.599956	0.644531	0.925781	0.000000	543	16_54_13_4300470
0.008789	-0.591797	0.032227	-0.365598	-0.656202	-0.599956	0.492188	0.949219	-0.035156	544	16_54_13_4461760
0.026367	-0.574219	0.041016	-0.374973	-0.656202	-0.599956	0.492188	0.984375	-0.046875	545	16_54_13_4623050
0.023438	-0.577148	0.032227	-0.365598	-0.656202	-0.599956	0.492188	0.914063	-0.082031	546	16_54_13_4784340
0.029297	-0.574219	0.035156	-0.365598	-0.656202	-0.599956	0.527344	0.902344	-0.082031	547	16_54_13_4945630
0.017578	-0.583008	0.043945	-0.365598	-0.656202	-0.599956	0.539063	0.960938	-0.093750	548	16_54_13_5106920
0.020508	-0.571289	0.038086	-0.365598	-0.656202	-0.599956	0.480469	0.984375	-0.070313	549	16_54_13_5268210
0.002930	-0.580078	0.043945	-0.365598	-0.656202	-0.599956	0.457031	0.890625	-0.023438	550	16_54_13_5429500
0.020508	-0.580078	0.041016	-0.365598	-0.656202	-0.599956	0.656250	0.855469	0.433594	551	16_54_13_5590790
0.023438	-0.580078	0.032227	-0.365598	-0.656202	-0.599956	0.503906	0.890625	-0.058594	552	16_54_13_5752080
0.020508	-0.583008	0.026367	-0.365598	-0.656202	-0.599956	0.468750	0.914063	-0.011719	553	16_54_13_5913370
0.026367	-0.583008	0.032227	-0.365598	-0.646828	-0.599956	0.515625	0.914063	-0.035156	554	16_54_13_6074660
0.026367	-0.580078	0.038086	-0.374973	-0.656202	-0.599956	0.503906	0.925781	-0.058594	555	16_54_13_6235950
0.029297	-0.580078	0.038086	-0.365598	-0.656202	-0.599956	0.820313	0.937500	0.070313	556	16_54_13_6397240
0.026367	-0.571289	0.043945	-0.365598	-0.656202	-0.599956	0.550781	0.914063	-0.058594	557	16_54_13_6558530
0.020508	-0.580078	0.029297	-0.356224	-0.656202	-0.599956	0.480469	0.960938	-0.070313	558	16_54_13_6719820
0.011719	-0.574219	0.038086	-0.365598	-0.656202	-0.599956	0.492188	0.949219	-0.035156	559	16_54_13_6881110
0.017578	-0.568359	0.035156	-0.365598	-0.656202	-0.599956	0.480469	0.937500	-0.058594	560	16_54_13_7042400
0.032227	-0.577148	0.035156	-0.374973	-0.656202	-0.599956	0.503906	0.960938	-0.070313	561	16_54_13_7203690
0.020508	-0.577148	0.035156	-0.365598	-0.646828	-0.599956	0.597656	0.914063	0.363281	562	16_54_13_7364980
0.017578	-0.580078	0.038086	-0.374973	-0.646828	-0.609331	0.503906	0.925781	-0.046875	563	16_54_13_7526270
0.017578	-0.591797	0.035156	-0.365598	-0.656202	-0.599956	0.726563	0.937500	0.000000	564	16_54_13_7687560
0.026367	-0.580078	0.043945	-0.365598	-0.656202	-0.599956	0.492188	0.984375	-0.082031	565	16_54_13_7848850
0.017578	-0.580078	0.038086	-0.365598	-0.656202	-0.590582	0.539063	1.007813	-0.082031	566	16_54_13_8010140
0.035156	-0.585938	0.035156	-0.365598	-0.656202	-0.599956	0.503906	0.996094	-0.046875	567	16_54_13_8171430
0.014648	-0.580078	0.032227	-0.365598	-0.656202	-0.599956	0.996094	0.960938	0.082031	568	16_54_13_8332720
0.014648	-0.583008	0.029297	-0.365598	-0.656202	-0.599956	0.492188	0.914063	-0.070313	569	16_54_13_8494010
0.014648	-0.577148	0.038086	-0.365598	-0.646828	-0.599956	0.539063	0.937500	-0.023438	570	16_54_13_8655300
0.023438	-0.574219	0.038086	-0.365598	-0.646828	-0.599956	0.527344	0.937500	-0.011719	571	16_54_13_8816590
0.017578	-0.583008	0.032227	-0.365598	-0.656202	-0.599956	0.597656	0.890625	0.011719	572	16_54_13_8977880
0.026367	-0.580078	0.035156	-0.365598	-0.646828	-0.599956	0.492188	0.878906	-0.058594	573	16_54_13_9139170
0.017578	-0.571289	0.041016	-0.365598	-0.656202	-0.599956	0.761719	0.914063	0.046875	574	16_54_13_9300460
0.017578	-0.568359	0.035156	-0.365598	-0.656202	-0.599956	0.503906	0.972656	-0.011719	575	16_54_13_9461750
0.014648	-0.597656	0.035156	-0.374973	-0.656202	-0.599956	0.539063	0.949219	-0.082031	576	16_54_13_9623040
0.008789	-0.577148	0.043945	-0.365598	-0.656202	-0.599956	0.503906	0.937500	-0.082031	577	16_54_13_9784330
0.029297	-0.580078	0.032227	-0.365598	-0.646828	-0.599956	0.503906	0.925781	-0.058594	578	16_54_13_9945620
0.014648	-0.571289	0.038086	-0.365598	-0.656202	-0.599956	0.503906	0.914063	-0.093750	579	16_54_14_0106910
0.017578	-0.583008	0.032227	-0.365598	-0.646828	-0.599956	0.480469	0.960938	-0.105469	580	16_54_14_0268200
0.017578	-0.583008	0.035156	-0.374973	-0.656202	-0.599956	0.480469	0.937500	-0.070313	581	16_54_14_0429490
0.017578	-0.580078	0.026367	-0.365598	-0.656202	-0.599956	0.574219	0.914063	0.468750	582	16_54_14_0590780
0.017578	-0.588867	0.032227	-0.365598	-0.656202	-0.599956	0.480469	0.890625	-0.035156	583	16_54_14_0752070
0.026367	-0.580078	0.032227	-0.374973	-0.656202	-0.599956	0.492188	0.914063	-0.070313	584	16_54_14_0913360
0.008789	-0.574219	0.041016	-0.365598	-0.656202	-0.599956	0.667969	0.949219	0.011719	585	16_54_14_1074650
0.017578	-0.574219	0.043945	-0.365598	-0.646828	-0.599956	0.515625	0.914063	-0.082031	586	16_54_14_1235940
0.014648	-0.577148	0.035156	-0.365598	-0.656202	-0.609331	0.492188	0.890625	-0.058594	587	16_54_14_1397230
0.026367	-0.562500	0.032227	-0.365598	-0.665577	-0.599956	0.515625	0.914063	-0.035156	588	16_54_14_1558520
0.023438	-0.565430	0.035156	-0.365598	-0.656202	-0.599956	0.503906	0.937500	-0.105469	589	16_54_14_1719810
0.017578	-0.588867	0.038086	-0.365598	-0.656202	-0.599956	0.785156	0.937500	0.035156	590	16_54_14_1881100
0.020508	-0.580078	0.035156	-0.365598	-0.656202	-0.599956	0.480469	0.960938	-0.046875	591	16_54_14_2042390
0.023438	-0.580078	0.026367	-0.365598	-0.656202	-0.599956	0.480469	0.937500	-0.023438	592	16_54_14_2203680
0.035156	-0.580078	0.026367	-0.365598	-0.656202	-0.599956	0.574219	0.890625	0.421875	593	16_54_14_2364970
0.026367	-0.585938	0.041016	-0.365598	-0.656202	-0.609331	0.503906	0.890625	-0.058594	594	16_54_14_2526260
0.026367	-0.580078	0.029297	-0.365598	-0.646828	-0.599956	0.503906	0.890625	-0.046875	595	16_54_14_2687550
0.023438	-0.577148	0.038086	-0.365598	-0.656202	-0.599956	0.492188	0.937500	-0.046875	596	16_54_14_2848840
0.017578	-0.588867	0.035156	-0.365598	-0.656202	-0.609331	0.761719	0.960938	0.046875	597	16_54_14_3010130
0.020508	-0.588867	0.041016	-0.365598	-0.656202	-0.609331	0.457031	0.984375	-0.058594	598	16_54_14_3171420
0.023438	-0.580078	0.038086	-0.365598	-0.646828	-0.599956	0.867188	0.937500	0.117188	599	16_54_14_3332710
0.023438	-0.574219	0.038086	-0.365598	-0.646828	-0.599956	0.550781	0.855469	0.000000	600	16_54_14_3494000
0.023438	-0.571289	0.035156	-0.374973	-0.656202	-0.599956	0.480469	0.937500	-0.023438	601	16_54_14_3655290
0.026367	-0.580078	0.041016	-0.365598	-0.656202	-0.599956	0.457031	0.937500	-0.035156	602	16_54_14_3816580
0.017578	-0.568359	0.038086	-0.365598	-0.656202	-0.599956	0.621094	0.914063	0.011719	603	16_54_14_3977870
0.017578	-0.591797	0.035156	-0.365598	-0.656202	-0.599956	0.480469	0.914063	-0.058594	604	16_54_14_4139160
0.017578	-0.580078	0.038086	-0.374973	-0.656202	-0.599956	0.480469	0.984375	-0.058594	605	16_54_14_4300450
0.011719	-0.585938	0.041016	-0.374973	-0.646828	-0.599956	0.480469	1.007813	-0.058594	606	16_54_14_4461740
0.026367	-0.583008	0.032227	-0.365598	-0.656202	-0.599956	0.480469	0.960938	-0.058594	607	16_54_14_4623030
0.020508	-0.574219	0.046875	-0.365598	-0.656202	-0.599956	0.527344	0.914063	-0.035156	608	16_54_14_4784320
0.020508	-0.591797	0.041016	-0.365598	-0.656202	-0.599956	0.492188	0.878906	-0.011719	609	16_54_14_4945610
0.026367	-0.580078	0.026367	-0.365598	-0.656202	-0.599956	0.492188	0.878906	-0.046875	610	16_54_14_5106900
0.017578	-0.577148	0.032227	-0.365598	-0.656202	-0.599956	0.492188	0.832031	-0.058594	611	16_54_14_5268190
0.017578	-0.583008	0.029297	-0.365598	-0.656202	-0.599956	0.492188	0.914063	-0.046875	612	16_54_14_5429480
0.023438	-0.574219	0.032227	-0.365598	-0.656202	-0.599956	0.492188	0.937500	-0.070313	613	16_54_14_5590770
0.020508	-0.580078	0.038086	-0.365598	-0.656202	-0.599956	0.597656	0.914063	0.292969	614	16_54_14_5752060
0.029297	-0.583008	0.041016	-0.374973	-0.656202	-0.599956	0.539063	0.914063	-0.035156	615	16_54_14_5913350
0.011719	-0.580078	0.038086	-0.374973	-0.656202	-0.599956	0.515625	0.925781	-0.035156	616	16_54_14_6074640
0.020508	-0.577148	0.038086	-0.374973	-0.656202	-0.599956	0.492188	0.890625	-0.070313	617	16_54_14_6235930
0.020508	-0.574219	0.032227	-0.374973	-0.656202	-0.599956	0.480469	0.890625	-0.046875	618	16_54_14_6397220
0.017578	-0.585938	0.038086	-0.374973	-0.656202	-0.599956	0.492188	0.867188	-0.035156	619	16_54_14_6558510
0.020508	-0.583008	0.032227	-0.365598	-0.656202	-0.599956	0.503906	0.902344	-0.058594	620	16_54_14_6719800
0.017578	-0.574219	0.032227	-0.365598	-0.656202	-0.599956	0.503906	0.878906	-0.058594	621	16_54_14_6881090
0.017578	-0.580078	0.043945	-0.365598	-0.656202	-0.599956	1.031250	0.902344	0.363281	622	16_54_14_7042380
0.026367	-0.580078	0.032227	-0.365598	-0.656202	-0.599956	0.527344	0.949219	-0.046875	623	16_54_14_7203670
0.029297	-0.580078	0.038086	-0.365598	-0.656202	-0.599956	0.492188	0.890625	-0.046875	624	16_54_14_7364960
0.011719	-0.580078	0.041016	-0.365598	-0.656202	-0.609331	0.515625	0.902344	-0.011719	625	16_54_14_7526250
0.023438	-0.583008	0.041016	-0.365598	-0.646828	-0.599956	0.480469	0.878906	-0.046875	626	16_54_14_7687540
0.023438	-0.571289	0.041016	-0.365598	-0.656202	-0.609331	0.492188	0.960938	-0.058594	627	16_54_14_7848830
0.008789	-0.568359	0.043945	-0.374973	-0.656202	-0.599956	0.539063	0.937500	-0.058594	628	16_54_14_8010120
0.014648	-0.583008	0.026367	-0.365598	-0.656202	-0.599956	0.503906	0.914063	-0.082031	629	16_54_14_8171410
0.029297	-0.588867	0.041016	-0.365598	-0.656202	-0.599956	0.515625	0.843750	-0.082031	630	16_54_14_8332700
0.035156	-0.571289	0.041016	-0.365598	-0.646828	-0.599956	0.527344	0.843750	-0.070313	631	16_54_14_8493990
0.011719	-0.591797	0.032227	-0.374973	-0.646828	-0.599956	0.515625	0.937500	-0.035156	632	16_54_14_8655280
0.026367	-0.583008	0.032227	-0.374973	-0.656202	-0.599956	0.515625	0.937500	-0.046875	633	16_54_14_8816570
0.017578	-0.568359	0.032227	-0.374973	-0.656202	-0.609331	0.527344	0.960938	-0.058594	634	16_54_14_8977860
0.011719	-0.574219	0.041016	-0.374973	-0.656202	-0.599956	0.492188	0.960938	-0.046875	635	16_54_14_9139150
0.017578	-0.583008	0.041016	-0.374973	-0.646828	-0.599956	0.492188	0.914063	-0.070313	636	16_54_14_9300440
0.023438	-0.580078	0.035156	-0.365598	-0.656202	-0.599956	0.691406	0.902344	0.035156	637	16_54_14_9461730
0.020508	-0.580078	0.041016	-0.374973	-0.656202	-0.599956	0.492188	0.890625	-0.046875	638	16_54_14_9623020
0.023438	-0.580078	0.035156	-0.365598	-0.656202	-0.599956	0.539063	0.878906	-0.082031	639	16_54_14_9784310
0.023438	-0.580078	0.035156	-0.365598	-0.656202	-0.599956	0.480469	0.937500	-0.082031	640	16_54_14_9945600
0.011719	-0.571289	0.046875	-0.365598	-0.646828	-0.599956	0.503906	0.914063	-0.082031	641	16_54_15_0106890
0.017578	-0.574219	0.041016	-0.365598	-0.656202	-0.599956	1.066406	0.960938	0.175781	642	16_54_15_0268180
0.017578	-0.585938	0.043945	-0.365598	-0.656202	-0.609331	0.515625	0.937500	-0.011719	643	16_54_15_0429470
0.017578	-0.580078	0.038086	-0.365598	-0.656202	-0.599956	0.480469	0.960938	-0.035156	644	16_54_15_0590760
0.026367	-0.583008	0.035156	-0.365598	-0.656202	-0.599956	0.515625	0.855469	-0.035156	645	16_54_15_0752050
0.023438	-0.580078	0.038086	-0.365598	-0.646828	-0.599956	0.480469	0.855469	-0.070313	646	16_54_15_0913340
0.023438	-0.574219	0.043945	-0.374973	-0.656202	-0.599956	0.480469	0.890625	-0.093750	647	16_54_15_1074630
0.017578	-0.580078	0.038086	-0.365598	-0.656202	-0.599956	0.503906	0.949219	-0.046875	648	16_54_15_1235920
0.014648	-0.585938	0.038086	-0.365598	-0.656202	-0.599956	0.750000	0.937500	0.046875	649	16_54_15_1397210
0.023438	-0.583008	0.038086	-0.374973	-0.656202	-0.599956	0.480469	0.902344	-0.046875	650	16_54_15_1558500
0.023438	-0.583008	0.032227	-0.365598	-0.656202	-0.609331	0.492188	0.914063	-0.011719	651	16_54_15_1719790
0.020508	-0.577148	0.035156	-0.365598	-0.656202	-0.599956	1.019531	0.960938	0.187500	652	16_54_15_1881080
0.023438	-0.580078	0.038086	-0.365598	-0.656202	-0.599956	1.089844	0.972656	0.316406	653	16_54_15_2042370
0.011719	-0.585938	0.032227	-0.365598	-0.656202	-0.599956	0.492188	0.878906	-0.082031	654	16_54_15_2203660
0.014648	-0.574219	0.038086	-0.365598	-0.656202	-0.599956	0.503906	0.890625	-0.046875	655	16_54_15_2364950
0.017578	-0.568359	0.043945	-0.374973	-0.656202	-0.599956	0.644531	0.914063	0.257813	656	16_54_15_2526240
0.008789	-0.568359	0.035156	-0.365598	-0.656202	-0.609331	0.492188	0.937500	-0.046875	657	16_54_15_2687530
0.026367	-0.568359	0.041016	-0.365598	-0.656202	-0.599956	0.492188	0.984375	-0.023438	658	16_54_15_2848820
0.014648	-0.568359	0.032227	-0.365598	-0.656202	-0.599956	0.480469	0.984375	-0.058594	659	16_54_15_3010110
0.020508	-0.583008	0.043945	-0.365598	-0.656202	-0.599956	0.492188	0.984375	-0.058594	660	16_54_15_3171400
0.023438	-0.583008	0.038086	-0.365598	-0.656202	-0.599956	0.503906	0.949219	-0.070313	661	16_54_15_3332690
0.020508	-0.577148	0.026367	-0.365598	-0.656202	-0.599956	0.492188	0.925781	-0.093750	662	16_54_15_3493980
0.017578	-0.583008	0.032227	-0.374973	-0.656202	-0.599956	0.503906	0.925781	-0.105469	663	16_54_15_3655270
0.020508	-0.580078	0.035156	-0.374973	-0.656202	-0.599956	0.503906	0.937500	-0.070313	664	16_54_15_3816560
0.026367	-0.577148	0.026367	-0.365598	-0.646828	-0.599956	0.503906	0.949219	-0.035156	665	16_54_15_3977850
0.002930	-0.577148	0.046875	-0.374973	-0.646828	-0.599956	0.574219	0.937500	-0.035156	666	16_54_15_4139140
0.020508	-0.580078	0.026367	-0.365598	-0.656202	-0.599956	0.527344	0.890625	-0.035156	667	16_54_15_4300430
0.014648	-0.580078	0.038086	-0.365598	-0.656202	-0.599956	0.515625	0.984375	-0.058594	668	16_54_15_4461720
0.017578	-0.583008	0.046875	-0.365598	-0.656202	-0.599956	0.503906	0.937500	-0.082031	669	16_54_15_4623010
0.014648	-0.580078	0.043945	-0.365598	-0.656202	-0.599956	0.808594	0.960938	0.035156	670	16_54_15_4784300
0.017578	-0.580078	0.032227	-0.365598	-0.646828	-0.609331	0.515625	0.937500	-0.058594	671	16_54_15_4945590
0.020508	-0.588867	0.032227	-0.365598	-0.656202	-0.599956	0.480469	0.937500	-0.093750	672	16_54_15_5106880
0.014648	-0.568359	0.035156	-0.365598	-0.656202	-0.599956	0.503906	0.996094	-0.046875	673	16_54_15_5268170
0.020508	-0.580078	0.046875	-0.365598	-0.656202	-0.599956	0.468750	0.960938	0.000000	674	16_54_15_5429460
0.011719	-0.583008	0.043945	-0.374973	-0.656202	-0.599956	0.515625	0.937500	-0.011719	675	16_54_15_5590750
0.008789	-0.580078	0.041016	-0.374973	-0.656202	-0.599956	0.515625	0.902344	-0.035156	676	16_54_15_5752040
0.011719	-0.583008	0.038086	-0.365598	-0.656202	-0.599956	0.527344	0.925781	-0.035156	677	16_54_15_5913330
0.020508	-0.574219	0.046875	-0.365598	-0.656202	-0.599956	0.503906	0.914063	0.000000	678	16_54_15_6074620
0.017578	-0.577148	0.035156	-0.365598	-0.656202	-0.599956	0.480469	0.925781	-0.058594	679	16_54_15_6235910
0.017578	-0.580078	0.041016	-0.365598	-0.656202	-0.599956	0.457031	0.890625	-0.105469	680	16_54_15_6397200
0.023438	-0.591797	0.035156	-0.374973	-0.656202	-0.599956	0.515625	0.914063	-0.105469	681	16_54_15_6558490
0.023438	-0.577148	0.038086	-0.365598	-0.656202	-0.599956	0.515625	0.984375	-0.093750	682	16_54_15_6719780
0.011719	-0.580078	0.038086	-0.374973	-0.656202	-0.599956	0.527344	0.972656	-0.058594	683	16_54_15_6881070
0.014648	-0.580078	0.032227	-0.365598	-0.646828	-0.599956	0.527344	0.937500	-0.046875	684	16_54_15_7042360
0.017578	-0.580078	0.029297	-0.365598	-0.656202	-0.599956	0.515625	0.937500	-0.070313	685	16_54_15_7203650
0.020508	-0.580078	0.035156	-0.365598	-0.656202	-0.599956	0.515625	0.902344	-0.082031	686	16_54_15_7364940
0.026367	-0.580078	0.035156	-0.365598	-0.656202	-0.599956	0.503906	0.890625	-0.070313	687	16_54_15_7526230
0.017578	-0.574219	0.041016	-0.374973	-0.656202	-0.599956	0.515625	0.937500	-0.058594	688	16_54_15_7687520
0.017578	-0.568359	0.043945	-0.365598	-0.656202	-0.599956	0.492188	0.949219	-0.046875	689	16_54_15_7848810
0.023438	-0.580078	0.038086	-0.365598	-0.656202	-0.599956	0.480469	0.890625	0.000000	690	16_54_15_8010100
0.029297	-0.571289	0.043945	-0.365598	-0.656202	-0.599956	0.492188	0.832031	-0.046875	691	16_54_15_8171390
0.020508	-0.574219	0.041016	-0.365598	-0.656202	-0.599956	0.492188	0.867188	-0.093750	692	16_54_15_8332680
0.017578	-0.580078	0.043945	-0.365598	-0.656202	-0.599956	0.527344	0.914063	-0.058594	693	16_54_15_8493970
0.017578	-0.574219	0.043945	-0.365598	-0.646828	-0.599956	0.539063	0.902344	-0.046875	694	16_54_15_8655260
0.011719	-0.574219	0.043945	-0.365598	-0.656202	-0.599956	0.855469	0.890625	0.093750	695	16_54_15_8816550
0.017578	-0.585938	0.026367	-0.365598	-0.656202	-0.599956	0.503906	0.914063	0.000000	696	16_54_15_8977840
0.017578	-0.585938	0.026367	-0.374973	-0.656202	-0.599956	0.468750	0.937500	-0.011719	697	16_54_15_9139130
0.011719	-0.583008	0.023438	-0.365598	-0.656202	-0.599956	0.480469	0.902344	-0.035156	698	16_54_15_9300420
0.017578	-0.583008	0.041016	-0.374973	-0.656202	-0.599956	0.480469	0.972656	-0.058594	699	16_54_15_9461710
0.017578	-0.580078	0.032227	-0.365598	-0.656202	-0.599956	0.492188	0.960938	-0.070313	700	16_54_15_9623000
0.014648	-0.580078	0.038086	-0.365598	-0.656202	-0.599956	0.492188	0.937500	-0.046875	701	16_54_15_9784290
0.017578	-0.583008	0.041016	-0.374973	-0.656202	-0.609331	0.550781	0.925781	-0.058594	702	16_54_15_9945580
0.026367	-0.577148	0.041016	-0.365598	-0.656202	-0.599956	0.480469	0.878906	-0.023438	703	16_54_16_0106870
0.017578	-0.571289	0.049805	-0.365598	-0.656202	-0.599956	0.492188	0.855469	0.000000	704	16_54_16_0268160
0.017578	-0.580078	0.035156	-0.365598	-0.656202	-0.599956	0.492188	0.949219	-0.058594	705	16_54_16_0429450
0.023438	-0.574219	0.043945	-0.365598	-0.656202	-0.599956	0.480469	0.937500	-0.058594	706	16_54_16_0590740
0.026367	-0.580078	0.043945	-0.365598	-0.656202	-0.599956	0.492188	0.960938	-0.058594	707	16_54_16_0752030
0.026367	-0.580078	0.026367	-0.365598	-0.656202	-0.599956	0.503906	0.914063	-0.082031	708	16_54_16_0913320
0.011719	-0.571289	0.035156	-0.374973	-0.656202	-0.599956	0.492188	0.902344	-0.046875	709	16_54_16_1074610
0.020508	-0.571289	0.032227	-0.365598	-0.646828	-0.599956	0.480469	0.914063	-0.023438	710	16_54_16_1235900
0.020508	-0.583008	0.041016	-0.365598	-0.656202	-0.599956	0.492188	0.902344	-0.035156	711	16_54_16_1397190
0.014648	-0.574219	0.038086	-0.365598	-0.656202	-0.599956	0.503906	0.937500	-0.093750	712	16_54_16_1558480
0.014648	-0.583008	0.043945	-0.365598	-0.656202	-0.599956	0.808594	0.890625	0.023438	713	16_54_16_1719770
0.023438	-0.577148	0.043945	-0.365598	-0.656202	-0.599956	1.007813	0.984375	0.128906	714	16_54_16_1881060
0.011719	-0.577148	0.038086	-0.365598	-0.656202	-0.599956	0.492188	1.007813	-0.058594	715	16_54_16_2042350
0.029297	-0.583008	0.035156	-0.365598	-0.656202	-0.599956	0.550781	0.949219	-0.058594	716	16_54_16_2203640
0.017578	-0.574219	0.035156	-0.365598	-0.656202	-0.599956	0.492188	0.878906	-0.105469	717	16_54_16_2364930
0.023438	-0.585938	0.041016	-0.365598	-0.656202	-0.599956	0.492188	0.914063	0.398438	718	16_54_16_2526220
0.029297	-0.580078	0.029297	-0.374973	-0.656202	-0.599956	0.492188	0.855469	-0.070313	719	16_54_16_2687510
0.014648	-0.577148	0.041016	-0.374973	-0.656202	-0.599956	0.679688	0.914063	0.000000	720	16_54_16_2848800
0.020508	-0.583008	0.046875	-0.365598	-0.656202	-0.599956	0.480469	0.867188	-0.058594	721	16_54_16_3010090
0.020508	-0.583008	0.043945	-0.365598	-0.646828	-0.599956	0.503906	0.867188	-0.046875	722	16_54_16_3171380
0.020508	-0.574219	0.026367	-0.365598	-0.656202	-0.599956	0.492188	0.914063	-0.011719	723	16_54_16_3332670
0.017578	-0.580078	0.043945	-0.365598	-0.656202	-0.599956	0.480469	0.914063	-0.035156	724	16_54_16_3493960
0.017578	-0.571289	0.032227	-0.365598	-0.656202	-0.599956	0.925781	0.972656	0.128906	725	16_54_16_3655250
0.020508	-0.583008	0.038086	-0.365598	-0.656202	-0.599956	0.492188	0.902344	-0.035156	726	16_54_16_3816540
0.026367	-0.588867	0.038086	-0.374973	-0.656202	-0.599956	0.890625	0.796875	0.269531	727	16_54_16_3977830
0.026367	-0.568359	0.041016	-0.365598	-0.656202	-0.599956	0.480469	0.855469	-0.046875	728	16_54_16_4139120
0.017578	-0.574219	0.035156	-0.374973	-0.656202	-0.599956	0.457031	0.937500	-0.035156	729	16_54_16_4300410
0.017578	-0.574219	0.038086	-0.356224	-0.656202	-0.609331	0.492188	0.878906	0.140625	730	16_54_16_4461700
0.014648	-0.571289	0.041016	-0.365598	-0.656202	-0.599956	0.738281	0.914063	0.035156	731	16_54_16_4622990
0.029297	-0.585938	0.043945	-0.365598	-0.656202	-0.599956	0.480469	0.878906	-0.070313	732	16_54_16_4784280
0.029297	-0.580078	0.029297	-0.365598	-0.656202	-0.609331	0.492188	0.855469	-0.082031	733	16_54_16_4945570
0.014648	-0.585938	0.029297	-0.365598	-0.656202	-0.609331	0.503906	0.914063	-0.070313	734	16_54_16_5106860
0.014648	-0.571289	0.035156	-0.356224	-0.646828	-0.599956	1.054688	0.937500	0.105469	735	16_54_16_5268150
0.017578	-0.577148	0.035156	-0.365598	-0.656202	-0.599956	0.492188	0.890625	-0.093750	736	16_54_16_5429440
0.023438	-0.585938	0.035156	-0.365598	-0.656202	-0.599956	0.468750	0.902344	-0.093750	737	16_54_16_5590730
0.029297	-0.574219	0.043945	-0.365598	-0.656202	-0.599956	0.492188	0.902344	-0.046875	738	16_54_16_5752020
0.017578	-0.583008	0.032227	-0.365598	-0.656202	-0.599956	0.515625	0.937500	-0.058594	739	16_54_16_5913310
0.038086	-0.577148	0.035156	-0.365598	-0.656202	-0.599956	0.539063	0.914063	0.257813	740	16_54_16_6074600
0.023438	-0.577148	0.032227	-0.365598	-0.656202	-0.599956	0.503906	0.937500	-0.046875	741	16_54_16_6235890
0.026367	-0.583008	0.032227	-0.365598	-0.656202	-0.609331	0.480469	0.960938	-0.046875	742	16_54_16_6397180
0.023438	-0.583008	0.043945	-0.374973	-0.656202	-0.599956	0.492188	0.937500	-0.035156	743	16_54_16_6558470
0.023438	-0.580078	0.043945	-0.374973	-0.656202	-0.599956	0.492188	0.914063	-0.082031	744	16_54_16_6719760
0.017578	-0.583008	0.046875	-0.365598	-0.656202	-0.599956	0.457031	0.949219	-0.070313	745	16_54_16_6881050
0.008789	-0.583008	0.038086	-0.365598	-0.656202	-0.599956	0.480469	0.972656	-0.035156	746	16_54_16_7042340
0.014648	-0.580078	0.032227	-0.374973	-0.656202	-0.599956	0.539063	0.914063	0.000000	747	16_54_16_7203630
0.020508	-0.574219	0.043945	-0.365598	-0.656202	-0.609331	0.480469	0.937500	0.011719	748	16_54_16_7364920
0.017578	-0.568359	0.035156	-0.365598	-0.656202	-0.599956	0.632813	0.972656	0.398438	749	16_54_16_7526210
0.011719	-0.583008	0.032227	-0.365598	-0.646828	-0.599956	0.492188	1.007813	-0.082031	750	16_54_16_7687500
0.023438	-0.580078	0.041016	-0.365598	-0.656202	-0.599956	0.515625	0.972656	-0.058594	751	16_54_16_7848790
0.032227	-0.585938	0.032227	-0.365598	-0.656202	-0.599956	0.515625	0.878906	-0.046875	752	16_54_16_8010080
0.023438	-0.585938	0.032227	-0.365598	-0.656202	-0.599956	0.527344	0.937500	-0.046875	753	16_54_16_8171370
0.023438	-0.574219	0.043945	-0.365598	-0.656202	-0.599956	0.832031	0.984375	0.082031	754	16_54_16_8332660
0.023438	-0.583008	0.038086	-0.374973	-0.646828	-0.599956	0.515625	0.960938	-0.035156	755	16_54_16_8493950
0.017578	-0.583008	0.035156	-0.374973	-0.656202	-0.609331	0.539063	0.937500	-0.070313	756	16_54_16_8655240
0.023438	-0.571289	0.043945	-0.365598	-0.656202	-0.599956	0.492188	0.984375	-0.058594	757	16_54_16_8816530
0.023438	-0.568359	0.043945	-0.374973	-0.656202	-0.599956	0.492188	0.914063	-0.035156	758	16_54_16_8977820
0.023438	-0.580078	0.026367	-0.365598	-0.656202	-0.609331	0.515625	0.902344	-0.070313	759	16_54_16_9139110
0.032227	-0.568359	0.041016	-0.365598	-0.656202	-0.599956	0.550781	0.937500	-0.046875	760	16_54_16_9300400
0.023438	-0.574219	0.029297	-0.365598	-0.646828	-0.599956	0.691406	0.878906	0.246094	761	16_54_16_9461690
0.035156	-0.577148	0.035156	-0.365598	-0.646828	-0.590582	0.562500	0.867188	0.000000	762	16_54_16_9622980
0.032227	-0.583008	0.038086	-0.356224	-0.646828	-0.599956	0.714844	0.914063	0.035156	763	16_54_16_9784270
0.029297	-0.580078	0.043945	-0.365598	-0.646828	-0.599956	0.515625	0.937500	0.000000	764	16_54_16_9945560
0.029297	-0.574219	0.038086	-0.365598	-0.646828	-0.590582	0.902344	0.949219	0.070313	765	16_54_17_0106850
0.023438	-0.568359	0.041016	-0.356224	-0.656202	-0.590582	0.480469	0.960938	-0.105469	766	16_54_17_0268140
0.014648	-0.580078	0.043945	-0.346850	-0.656202	-0.590582	0.515625	0.972656	-0.058594	767	16_54_17_0429430
0.005859	-0.574219	0.038086	-0.346850	-0.656202	-0.590582	0.503906	0.937500	-0.070313	768	16_54_17_0590720
0.020508	-0.597656	0.038086	-0.356224	-0.656202	-0.590582	0.785156	0.914063	0.328125	769	16_54_17_0752010
0.035156	-0.603516	0.032227	-0.356224	-0.656202	-0.581208	0.515625	0.937500	-0.023438	770	16_54_17_0913300
0.043945	-0.615234	0.029297	-0.356224	-0.646828	-0.590582	0.492188	0.914063	-0.093750	771	16_54_17_1074590
0.041016	-0.618164	0.043945	-0.365598	-0.637454	-0.590582	0.656250	0.914063	-0.011719	772	16_54_17_1235880
0.038086	-0.612305	0.032227	-0.374973	-0.637454	-0.590582	0.550781	0.914063	-0.011719	773	16_54_17_1397170
0.026367	-0.591797	0.032227	-0.393721	-0.637454	-0.590582	0.492188	0.925781	0.000000	774	16_54_17_1558460
0.026367	-0.603516	0.029297	-0.393721	-0.656202	-0.590582	0.480469	0.914063	-0.035156	775	16_54_17_1719750
0.043945	-0.585938	0.026367	-0.393721	-0.656202	-0.571833	0.480469	0.902344	-0.070313	776	16_54_17_1881040
0.046875	-0.583008	0.026367	-0.393721	-0.665577	-0.571833	0.503906	0.925781	-0.093750	777	16_54_17_2042330
0.032227	-0.615234	0.032227	-0.393721	-0.684325	-0.571833	0.515625	0.914063	-0.105469	778	16_54_17_2203620
0.020508	-0.612305	0.043945	-0.393721	-0.693700	-0.571833	0.937500	0.890625	0.375000	779	16_54_17_2364910
-0.002930	-0.594727	0.038086	-0.403096	-0.703074	-0.581208	0.503906	0.878906	-0.011719	780	16_54_17_2526200
-0.011719	-0.559570	0.020508	-0.393721	-0.712448	-0.599956	0.480469	0.937500	-0.046875	781	16_54_17_2687490
0.000000	-0.512695	0.026367	-0.393721	-0.712448	-0.609331	0.503906	0.937500	-0.082031	782	16_54_17_2848780
0.014648	-0.480469	0.014648	-0.384347	-0.703074	-0.609331	0.515625	0.937500	-0.046875	783	16_54_17_3010070
0.043945	-0.477539	0.011719	-0.374973	-0.693700	-0.609331	0.503906	0.914063	-0.035156	784	16_54_17_3171360
0.055664	-0.498047	0.026367	-0.374973	-0.665577	-0.618705	0.667969	0.949219	-0.023438	785	16_54_17_3332650
0.052734	-0.536133	0.032227	-0.365598	-0.646828	-0.628079	0.503906	0.937500	-0.117188	786	16_54_17_3493940
0.032227	-0.568359	0.023438	-0.374973	-0.599956	-0.646828	0.515625	0.902344	-0.082031	787	16_54_17_3655230
0.020508	-0.583008	0.043945	-0.365598	-0.581208	-0.646828	0.550781	0.878906	-0.070313	788	16_54_17_3816520
-0.011719	-0.606445	0.055664	-0.365598	-0.571833	-0.656202	0.492188	0.878906	-0.070313	789	16_54_17_3977810
-0.029297	-0.624023	0.067383	-0.365598	-0.581208	-0.656202	0.492188	0.890625	-0.023438	790	16_54_17_4139100
-0.032227	-0.618164	0.073242	-0.365598	-0.599956	-0.656202	0.503906	0.937500	-0.082031	791	16_54_17_4300390
-0.035156	-0.597656	0.073242	-0.365598	-0.628079	-0.656202	0.492188	0.902344	-0.105469	792	16_54_17_4461680
-0.029297	-0.568359	0.076172	-0.356224	-0.656202	-0.665577	0.503906	0.902344	0.058594	793	16_54_17_4622970
-0.011719	-0.550781	0.076172	-0.356224	-0.656202	-0.656202	0.503906	0.996094	-0.070313	794	16_54_17_4784260
0.032227	-0.536133	0.073242	-0.346850	-0.646828	-0.656202	0.503906	0.984375	-0.082031	795	16_54_17_4945550
0.105469	-0.556641	0.035156	-0.337475	-0.637454	-0.628079	0.527344	0.914063	-0.058594	796	16_54_17_5106840
0.131836	-0.600586	0.020508	-0.346850	-0.656202	-0.590582	0.492188	0.890625	-0.023438	797	16_54_17_5268130
0.082031	-0.635742	0.026367	-0.384347	-0.703074	-0.581208	0.492188	0.878906	-0.046875	798	16_54_17_5429420
0.017578	-0.603516	0.038086	-0.393721	-0.721823	-0.581208	0.550781	0.878906	-0.035156	799	16_54_17_5590710
-0.017578	-0.583008	0.032227	-0.393721	-0.731197	-0.581208	0.796875	0.914063	0.375000	800	16_54_17_5752000
-0.020508	-0.556641	0.029297	-0.384347	-0.731197	-0.581208	0.644531	0.878906	0.304688	801	16_54_17_5913290
-0.020508	-0.568359	0.029297	-0.365598	-0.731197	-0.581208	0.492188	0.902344	0.269531	802	16_54_17_6074580
0.014648	-0.577148	0.026367	-0.356224	-0.693700	-0.590582	0.562500	0.925781	-0.058594	803	16_54_17_6235870
0.038086	-0.600586	0.038086	-0.356224	-0.637454	-0.609331	0.527344	0.960938	-0.070313	804	16_54_17_6397160
0.038086	-0.594727	0.032227	-0.365598	-0.590582	-0.618705	0.492188	0.984375	-0.093750	805	16_54_17_6558450
0.023438	-0.580078	0.038086	-0.365598	-0.562459	-0.628079	0.972656	0.972656	0.164063	806	16_54_17_6719740
0.005859	-0.556641	0.032227	-0.365598	-0.553085	-0.637454	0.492188	0.914063	-0.011719	807	16_54_17_6881030
-0.011719	-0.547852	0.020508	-0.356224	-0.581208	-0.637454	0.996094	0.855469	0.105469	808	16_54_17_7042320
-0.002930	-0.565430	0.014648	-0.356224	-0.618705	-0.618705	0.492188	0.867188	-0.035156	809	16_54_17_7203610
0.023438	-0.580078	0.023438	-0.346850	-0.656202	-0.618705	0.492188	0.937500	-0.011719	810	16_54_17_7364900
0.026367	-0.591797	0.035156	-0.346850	-0.665577	-0.609331	0.539063	0.925781	-0.058594	811	16_54_17_7526190
0.020508	-0.591797	0.043945	-0.346850	-0.665577	-0.609331	0.480469	0.890625	-0.070313	812	16_54_17_7687480
-0.002930	-0.591797	0.041016	-0.356224	-0.646828	-0.609331	0.562500	0.937500	-0.023438	813	16_54_17_7848770
-0.002930	-0.591797	0.043945	-0.346850	-0.637454	-0.609331	0.515625	0.878906	-0.046875	814	16_54_17_8010060
0.002930	-0.594727	0.055664	-0.356224	-0.628079	-0.609331	0.492188	0.914063	-0.105469	815	16_54_17_8171350
-0.005859	-0.594727	0.052734	-0.356224	-0.618705	-0.609331	0.492188	0.937500	-0.070313	816	16_54_17_8332640
-0.002930	-0.577148	0.049805	-0.365598	-0.618705	-0.609331	0.550781	0.902344	-0.023438	817	16_54_17_8493930
0.002930	-0.580078	0.055664	-0.374973	-0.609331	-0.609331	0.562500	0.937500	-0.046875	818	16_54_17_8655220
0.011719	-0.583008	0.043945	-0.374973	-0.609331	-0.599956	0.503906	0.902344	-0.082031	819	16_54_17_8816510
0.002930	-0.571289	0.038086	-0.384347	-0.618705	-0.599956	0.539063	0.902344	-0.105469	820	16_54_17_8977800
0.005859	-0.580078	0.035156	-0.365598	-0.637454	-0.590582	0.550781	0.902344	-0.070313	821	16_54_17_9139090
0.008789	-0.580078	0.035156	-0.374973	-0.646828	-0.581208	0.492188	0.925781	-0.058594	822	16_54_17_9300380
0.011719	-0.588867	0.029297	-0.374973	-0.656202	-0.581208	0.644531	0.972656	0.375000	823	16_54_17_9461670
0.005859	-0.580078	0.017578	-0.365598	-0.665577	-0.581208	0.492188	0.949219	-0.070313	824	16_54_17_9622960
0.002930	-0.571289	0.032227	-0.365598	-0.665577	-0.590582	0.503906	0.972656	-0.070313	825	16_54_17_9784250
0.005859	-0.574219	0.020508	-0.365598	-0.656202	-0.599956	0.492188	0.972656	-0.058594	826	16_54_17_9945540
0.000000	-0.568359	0.029297	-0.365598	-0.637454	-0.609331	0.492188	0.937500	-0.058594	827	16_54_18_0106830
-0.002930	-0.568359	0.029297	-0.374973	-0.628079	-0.609331	0.492188	0.890625	-0.035156	828	16_54_18_0268120
-0.011719	-0.568359	0.043945	-0.365598	-0.628079	-0.609331	0.468750	0.925781	-0.058594	829	16_54_18_0429410
-0.008789	-0.571289	0.046875	-0.365598	-0.628079	-0.609331	0.457031	0.902344	-0.058594	830	16_54_18_0590700
-0.008789	-0.577148	0.038086	-0.365598	-0.637454	-0.609331	0.492188	0.902344	-0.082031	831	16_54_18_0751990
-0.005859	-0.585938	0.032227	-0.365598	-0.646828	-0.609331	0.492188	0.960938	-0.093750	832	16_54_18_0913280
-0.002930	-0.574219	0.043945	-0.365598	-0.656202	-0.590582	0.492188	0.937500	-0.082031	833	16_54_18_1074570
0.005859	-0.585938	0.043945	-0.365598	-0.656202	-0.590582	0.527344	0.878906	-0.046875	834	16_54_18_1235860
0.005859	-0.577148	0.041016	-0.365598	-0.665577	-0.590582	0.503906	0.925781	-0.046875	835	16_54_18_1397150
0.005859	-0.571289	0.032227	-0.365598	-0.665577	-0.599956	0.492188	0.937500	-0.035156	836	16_54_18_1558440
0.000000	-0.574219	0.032227	-0.374973	-0.656202	-0.599956	0.503906	0.937500	-0.011719	837	16_54_18_1719730
0.000000	-0.568359	0.032227	-0.365598	-0.656202	-0.599956	0.527344	0.914063	0.000000	838	16_54_18_1881020
0.000000	-0.577148	0.032227	-0.365598	-0.656202	-0.599956	0.492188	0.902344	-0.093750	839	16_54_18_2042310
0.017578	-0.583008	0.032227	-0.365598	-0.656202	-0.590582	0.515625	0.914063	-0.105469	840	16_54_18_2203600
0.014648	-0.571289	0.035156	-0.374973	-0.656202	-0.599956	0.515625	0.984375	-0.058594	841	16_54_18_2364890
0.002930	-0.580078	0.038086	-0.365598	-0.656202	-0.590582	0.515625	0.937500	-0.082031	842	16_54_18_2526180
0.000000	-0.580078	0.035156	-0.365598	-0.656202	-0.599956	0.492188	0.890625	0.410156	843	16_54_18_2687470
0.002930	-0.580078	0.038086	-0.365598	-0.656202	-0.599956	0.515625	0.878906	-0.082031	844	16_54_18_2848760
0.000000	-0.580078	0.043945	-0.365598	-0.665577	-0.599956	0.492188	0.890625	-0.058594	845	16_54_18_3010050
0.011719	-0.574219	0.035156	-0.374973	-0.665577	-0.599956	0.492188	0.890625	-0.070313	846	16_54_18_3171340
0.005859	-0.580078	0.038086	-0.374973	-0.665577	-0.599956	0.503906	0.960938	-0.093750	847	16_54_18_3332630
0.011719	-0.580078	0.032227	-0.374973	-0.665577	-0.599956	0.550781	0.960938	-0.058594	848	16_54_18_3493920
0.023438	-0.588867	0.041016	-0.374973	-0.665577	-0.599956	0.691406	0.890625	0.011719	849	16_54_18_3655210
0.017578	-0.577148	0.026367	-0.365598	-0.656202	-0.599956	0.503906	0.855469	-0.046875	850	16_54_18_3816500
0.011719	-0.580078	0.038086	-0.374973	-0.665577	-0.599956	0.480469	0.867188	-0.046875	851	16_54_18_3977790
0.002930	-0.583008	0.043945	-0.374973	-0.665577	-0.599956	0.492188	0.902344	-0.058594	852	16_54_18_4139080
0.011719	-0.574219	0.038086	-0.365598	-0.665577	-0.599956	0.550781	0.914063	-0.035156	853	16_54_18_4300370
0.014648	-0.580078	0.035156	-0.365598	-0.665577	-0.599956	0.527344	0.867188	0.304688	854	16_54_18_4461660
0.026367	-0.571289	0.032227	-0.374973	-0.656202	-0.599956	0.492188	0.937500	-0.082031	855	16_54_18_4622950
0.014648	-0.580078	0.038086	-0.374973	-0.665577	-0.599956	0.492188	0.914063	-0.093750	856	16_54_18_4784240
0.005859	-0.574219	0.038086	-0.365598	-0.656202	-0.599956	0.503906	0.890625	-0.105469	857	16_54_18_4945530
0.017578	-0.580078	0.038086	-0.374973	-0.665577	-0.599956	0.515625	0.902344	-0.058594	858	16_54_18_5106820
0.017578	-0.591797	0.032227	-0.365598	-0.656202	-0.599956	0.527344	0.925781	-0.011719	859	16_54_18_5268110
0.011719	-0.580078	0.026367	-0.365598	-0.656202	-0.609331	0.925781	0.937500	0.128906	860	16_54_18_5429400
0.011719	-0.574219	0.043945	-0.365598	-0.656202	-0.599956	0.503906	0.949219	-0.093750	861	16_54_18_5590690
0.017578	-0.571289	0.035156	-0.365598	-0.656202	-0.599956	0.492188	0.925781	-0.058594	862	16_54_18_5751980
0.011719	-0.580078	0.035156	-0.365598	-0.656202	-0.599956	0.515625	0.949219	-0.023438	863	16_54_18_5913270
0.011719	-0.577148	0.032227	-0.365598	-0.656202	-0.599956	0.503906	0.890625	-0.046875	864	16_54_18_6074560
0.014648	-0.571289	0.046875	-0.365598	-0.656202	-0.599956	0.468750	0.890625	-0.070313	865	16_54_18_6235850
0.008789	-0.580078	0.043945	-0.365598	-0.646828	-0.599956	0.585938	0.925781	-0.046875	866	16_54_18_6397140
0.005859	-0.585938	0.041016	-0.365598	-0.656202	-0.599956	0.480469	0.960938	-0.082031	867	16_54_18_6558430
0.011719	-0.571289	0.043945	-0.365598	-0.656202	-0.599956	0.468750	0.949219	-0.105469	868	16_54_18_6719720
0.005859	-0.580078	0.041016	-0.365598	-0.656202	-0.599956	0.492188	0.867188	-0.082031	869	16_54_18_6881010
0.011719	-0.571289	0.041016	-0.365598	-0.656202	-0.599956	0.492188	0.890625	-0.046875	870	16_54_18_7042300
0.005859	-0.580078	0.043945	-0.374973	-0.656202	-0.599956	1.066406	0.925781	0.128906	871	16_54_18_7203590
0.011719	-0.577148	0.035156	-0.374973	-0.665577	-0.599956	0.843750	0.972656	0.011719	872	16_54_18_7364880
0.014648	-0.583008	0.035156	-0.365598	-0.656202	-0.599956	0.550781	0.960938	-0.035156	873	16_54_18_7526170
0.011719	-0.580078	0.038086	-0.365598	-0.656202	-0.599956	0.515625	0.937500	-0.023438	874	16_54_18_7687460
0.011719	-0.580078	0.035156	-0.365598	-0.656202	-0.599956	0.550781	0.937500	0.222656	875	16_54_18_7848750
0.005859	-0.574219	0.041016	-0.374973	-0.656202	-0.581208	0.492188	0.925781	-0.035156	876	16_54_18_8010040
0.011719	-0.580078	0.043945	-0.365598	-0.656202	-0.609331	0.515625	0.960938	-0.070313	877	16_54_18_8171330
0.011719	-0.580078	0.038086	-0.365598	-0.656202	-0.609331	0.515625	0.937500	-0.082031	878	16_54_18_8332620
0.002930	-0.571289	0.038086	-0.365598	-0.656202	-0.599956	0.503906	0.937500	-0.035156	879	16_54_18_8493910
0.011719	-0.574219	0.049805	-0.365598	-0.656202	-0.599956	0.515625	0.937500	-0.046875	880	16_54_18_8655200
0.008789	-0.580078	0.029297	-0.365598	-0.646828	-0.599956	0.480469	0.960938	-0.082031	881	16_54_18_8816490
0.008789	-0.585938	0.041016	-0.365598	-0.656202	-0.599956	0.492188	0.972656	-0.046875	882	16_54_18_8977780
0.002930	-0.580078	0.041016	-0.365598	-0.656202	-0.599956	0.492188	0.972656	-0.093750	883	16_54_18_9139070
0.017578	-0.585938	0.038086	-0.365598	-0.656202	-0.599956	0.503906	0.925781	-0.117188	884	16_54_18_9300360
0.008789	-0.577148	0.026367	-0.374973	-0.656202	-0.599956	0.492188	0.937500	-0.082031	885	16_54_18_9461650
0.002930	-0.588867	0.038086	-0.374973	-0.656202	-0.599956	0.492188	0.914063	-0.046875	886	16_54_18_9622940
0.011719	-0.580078	0.038086	-0.365598	-0.656202	-0.599956	0.492188	0.937500	-0.070313	887	16_54_18_9784230
0.000000	-0.568359	0.035156	-0.374973	-0.656202	-0.599956	0.492188	0.925781	-0.011719	888	16_54_18_9945520
0.005859	-0.571289	0.032227	-0.384347	-0.656202	-0.599956	0.492188	0.949219	-0.035156	889	16_54_19_0106810
0.005859	-0.580078	0.043945	-0.365598	-0.665577	-0.599956	0.492188	0.960938	-0.082031	890	16_54_19_0268100
0.017578	-0.580078	0.035156	-0.374973	-0.656202	-0.599956	0.480469	0.902344	-0.070313	891	16_54_19_0429390
0.017578	-0.577148	0.032227	-0.365598	-0.656202	-0.590582	0.468750	0.914063	-0.046875	892	16_54_19_0590680
0.011719	-0.585938	0.032227	-0.365598	-0.656202	-0.599956	0.515625	0.949219	-0.070313	893	16_54_19_0751970
0.008789	-0.577148	0.038086	-0.365598	-0.656202	-0.599956	0.492188	0.867188	-0.070313	894	16_54_19_0913260
0.011719	-0.588867	0.043945	-0.374973	-0.656202	-0.599956	0.503906	0.914063	-0.093750	895	16_54_19_1074550
0.017578	-0.583008	0.035156	-0.365598	-0.656202	-0.599956	0.503906	0.949219	-0.058594	896	16_54_19_1235840
0.011719	-0.577148	0.035156	-0.365598	-0.656202	-0.599956	0.468750	0.984375	-0.046875	897	16_54_19_1397130
0.014648	-0.577148	0.026367	-0.374973	-0.656202	-0.599956	0.503906	0.960938	-0.093750	898	16_54_19_1558420
0.008789	-0.580078	0.032227	-0.374973	-0.656202	-0.599956	0.515625	0.960938	-0.082031	899	16_54_19_1719710
0.011719	-0.583008	0.032227	-0.365598	-0.665577	-0.609331	0.503906	0.960938	-0.070313	900	16_54_19_1881000
0.011719	-0.583008	0.035156	-0.365598	-0.656202	-0.599956	0.937500	0.949219	0.093750	901	16_54_19_2042290
0.020508	-0.574219	0.035156	-0.365598	-0.637454	-0.599956	0.492188	0.937500	-0.070313	902	16_54_19_2203580
0.011719	-0.580078	0.035156	-0.365598	-0.656202	-0.599956	0.515625	0.902344	-0.058594	903	16_54_19_2364870
0.017578	-0.577148	0.035156	-0.365598	-0.656202	-0.599956	0.527344	0.914063	-0.070313	904	16_54_19_2526160
0.014648	-0.574219	0.038086	-0.374973	-0.656202	-0.599956	0.539063	0.914063	-0.093750	905	16_54_19_2687450
0.011719	-0.580078	0.041016	-0.365598	-0.656202	-0.599956	0.480469	0.914063	-0.058594	906	16_54_19_2848740
0.005859	-0.580078	0.035156	-0.365598	-0.656202	-0.599956	0.503906	0.855469	-0.035156	907	16_54_19_3010030
0.011719	-0.583008	0.043945	-0.374973	-0.656202	-0.599956	0.515625	0.878906	-0.070313	908	16_54_19_3171320
0.005859	-0.580078	0.035156	-0.365598	-0.656202	-0.599956	0.457031	0.937500	-0.058594	909	16_54_19_3332610
0.011719	-0.574219	0.038086	-0.365598	-0.656202	-0.599956	0.714844	1.007813	0.023438	910	16_54_19_3493900
0.011719	-0.583008	0.043945	-0.365598	-0.656202	-0.599956	0.503906	0.996094	-0.011719	911	16_54_19_3655190
0.011719	-0.580078	0.029297	-0.365598	-0.656202	-0.599956	0.539063	0.925781	-0.011719	912	16_54_19_3816480
0.011719	-0.571289	0.038086	-0.365598	-0.656202	-0.599956	1.195313	0.960938	0.316406	913	16_54_19_3977770
0.011719	-0.583008	0.049805	-0.365598	-0.656202	-0.599956	1.031250	0.925781	0.386719	914	16_54_19_4139060
0.017578	-0.571289	0.041016	-0.365598	-0.656202	-0.599956	0.492188	0.960938	-0.046875	915	16_54_19_4300350
0.011719	-0.580078	0.032227	-0.365598	-0.656202	-0.599956	0.492188	0.914063	-0.011719	916	16_54_19_4461640
0.011719	-0.574219	0.032227	-0.365598	-0.656202	-0.599956	0.503906	0.855469	0.000000	917	16_54_19_4622930
0.011719	-0.574219	0.035156	-0.365598	-0.656202	-0.599956	0.492188	0.902344	-0.023438	918	16_54_19_4784220
0.002930	-0.580078	0.032227	-0.365598	-0.646828	-0.609331	0.527344	0.960938	-0.070313	919	16_54_19_4945510
0.014648	-0.585938	0.038086	-0.365598	-0.656202	-0.599956	0.492188	0.949219	-0.058594	920	16_54_19_5106800
0.005859	-0.571289	0.029297	-0.365598	-0.656202	-0.599956	0.562500	0.925781	-0.082031	921	16_54_19_5268090
0.011719	-0.580078	0.032227	-0.365598	-0.656202	-0.609331	0.527344	0.925781	-0.082031	922	16_54_19_5429380
0.017578	-0.583008	0.029297	-0.365598	-0.656202	-0.599956	0.492188	0.949219	-0.035156	923	16_54_19_5590670
0.008789	-0.585938	0.046875	-0.365598	-0.656202	-0.599956	0.503906	0.937500	-0.070313	924	16_54_19_5751960
0.020508	-0.574219	0.041016	-0.365598	-0.656202	-0.590582	0.492188	0.960938	-0.082031	925	16_54_19_5913250
0.002930	-0.577148	0.038086	-0.365598	-0.646828	-0.599956	0.503906	0.890625	-0.035156	926	16_54_19_6074540
0.014648	-0.580078	0.041016	-0.365598	-0.656202	-0.599956	0.492188	0.890625	-0.058594	927	16_54_19_6235830
0.008789	-0.585938	0.041016	-0.374973	-0.656202	-0.599956	0.632813	0.960938	-0.035156	928	16_54_19_6397120
0.017578	-0.580078	0.026367	-0.365598	-0.665577	-0.599956	0.585938	0.984375	-0.058594	929	16_54_19_6558410
0.017578	-0.583008	0.052734	-0.365598	-0.656202	-0.599956	0.539063	0.960938	-0.058594	930	16_54_19_6719700
0.005859	-0.583008	0.038086	-0.365598	-0.656202	-0.599956	0.515625	0.937500	-0.058594	931	16_54_19_6880990
0.005859	-0.577148	0.035156	-0.365598	-0.646828	-0.599956	0.492188	0.867188	-0.046875	932	16_54_19_7042280
0.011719	-0.571289	0.032227	-0.374973	-0.656202	-0.599956	0.492188	0.832031	-0.058594	933	16_54_19_7203570
0.011719	-0.571289	0.032227	-0.374973	-0.656202	-0.599956	0.492188	0.902344	-0.070313	934	16_54_19_7364860
0.014648	-0.577148	0.041016	-0.374973	-0.656202	-0.599956	0.492188	0.914063	-0.082031	935	16_54_19_7526150
0.011719	-0.577148	0.038086	-0.365598	-0.656202	-0.599956	0.492188	0.937500	-0.093750	936	16_54_19_7687440
0.011719	-0.571289	0.029297	-0.365598	-0.656202	-0.599956	0.503906	0.984375	-0.046875	937	16_54_19_7848730
0.017578	-0.583008	0.038086	-0.365598	-0.656202	-0.599956	0.691406	0.937500	0.281250	938	16_54_19_8010020
0.020508	-0.562500	0.032227	-0.365598	-0.656202	-0.609331	0.480469	0.937500	-0.082031	939	16_54_19_8171310
0.014648	-0.580078	0.035156	-0.365598	-0.656202	-0.599956	0.468750	0.972656	-0.117188	940	16_54_19_8332600
0.008789	-0.577148	0.035156	-0.365598	-0.656202	-0.599956	0.515625	0.960938	-0.105469	941	16_54_19_8493890
0.008789	-0.574219	0.032227	-0.374973	-0.646828	-0.599956	0.550781	0.914063	-0.082031	942	16_54_19_8655180
0.011719	-0.583008	0.038086	-0.365598	-0.656202	-0.599956	0.503906	0.937500	-0.082031	943	16_54_19_8816470
0.008789	-0.580078	0.043945	-0.365598	-0.656202	-0.599956	1.089844	0.925781	0.117188	944	16_54_19_8977760
0.008789	-0.583008	0.038086	-0.374973	-0.656202	-0.599956	0.527344	0.867188	-0.058594	945	16_54_19_9139050
0.014648	-0.574219	0.032227	-0.365598	-0.656202	-0.599956	0.820313	0.925781	0.164063	946	16_54_19_9300340
0.023438	-0.574219	0.035156	-0.365598	-0.656202	-0.599956	0.585938	0.937500	0.035156	947	16_54_19_9461630
0.023438	-0.577148	0.038086	-0.365598	-0.656202	-0.599956	0.492188	0.972656	0.000000	948	16_54_19_9622920
0.023438	-0.580078	0.035156	-0.365598	-0.656202	-0.599956	0.515625	0.914063	0.000000	949	16_54_19_9784210
0.014648	-0.577148	0.041016	-0.365598	-0.656202	-0.599956	0.550781	0.914063	-0.058594	950	16_54_19_9945500
0.011719	-0.568359	0.041016	-0.365598	-0.656202	-0.599956	0.726563	0.925781	0.011719	951	16_54_20_0106790
0.014648	-0.574219	0.035156	-0.365598	-0.656202	-0.599956	0.539063	0.984375	-0.035156	952	16_54_20_0268080
0.017578	-0.583008	0.038086	-0.365598	-0.665577	-0.599956	0.515625	0.960938	-0.058594	953	16_54_20_0429370
0.020508	-0.583008	0.035156	-0.365598	-0.656202	-0.599956	0.503906	0.960938	-0.011719	954	16_54_20_0590660
0.017578	-0.580078	0.041016	-0.374973	-0.656202	-0.599956	0.515625	0.914063	0.011719	955	16_54_20_0751950
0.000000	-0.574219	0.035156	-0.365598	-0.656202	-0.599956	0.492188	0.820313	-0.023438	956	16_54_20_0913240
0.005859	-0.580078	0.026367	-0.365598	-0.656202	-0.599956	0.738281	0.902344	0.363281	957	16_54_20_1074530
0.014648	-0.580078	0.038086	-0.365598	-0.656202	-0.599956	0.492188	0.972656	0.421875	958	16_54_20_1235820
0.014648	-0.574219	0.043945	-0.365598	-0.656202	-0.599956	0.492188	0.972656	-0.093750	959	16_54_20_1397110
0.014648	-0.583008	0.043945	-0.365598	-0.656202	-0.599956	0.667969	0.972656	-0.023438	960	16_54_20_1558400
0.008789	-0.585938	0.038086	-0.365598	-0.656202	-0.599956	0.492188	0.960938	-0.035156	961	16_54_20_1719690
0.017578	-0.580078	0.043945	-0.365598	-0.656202	-0.599956	0.492188	0.984375	-0.046875	962	16_54_20_1880980
0.023438	-0.568359	0.038086	-0.365598	-0.656202	-0.599956	0.503906	0.960938	-0.070313	963	16_54_20_2042270
0.014648	-0.580078	0.035156	-0.365598	-0.656202	-0.599956	0.503906	0.937500	-0.093750	964	16_54_20_2203560
0.017578	-0.577148	0.038086	-0.374973	-0.656202	-0.599956	0.503906	0.984375	-0.093750	965	16_54_20_2364850
0.017578	-0.580078	0.046875	-0.365598	-0.656202	-0.599956	1.066406	0.960938	0.187500	966	16_54_20_2526140
0.014648	-0.568359	0.041016	-0.365598	-0.656202	-0.599956	0.492188	0.937500	-0.035156	967	16_54_20_2687430
0.023438	-0.571289	0.041016	-0.374973	-0.656202	-0.599956	0.503906	0.937500	-0.070313	968	16_54_20_2848720
0.014648	-0.568359	0.020508	-0.365598	-0.656202	-0.599956	0.492188	0.855469	-0.082031	969	16_54_20_3010010
0.002930	-0.574219	0.035156	-0.365598	-0.656202	-0.599956	0.515625	0.855469	0.128906	970	16_54_20_3171300
0.017578	-0.580078	0.032227	-0.365598	-0.656202	-0.599956	0.503906	0.890625	-0.035156	971	16_54_20_3332590
0.014648	-0.583008	0.035156	-0.365598	-0.656202	-0.599956	0.468750	0.937500	-0.035156	972	16_54_20_3493880
0.023438	-0.571289	0.041016	-0.365598	-0.656202	-0.609331	0.492188	0.937500	-0.023438	973	16_54_20_3655170
0.008789	-0.585938	0.041016	-0.365598	-0.665577	-0.599956	0.527344	0.890625	-0.070313	974	16_54_20_3816460
0.011719	-0.583008	0.038086	-0.365598	-0.656202	-0.599956	0.468750	0.925781	-0.093750	975	16_54_20_3977750
0.011719	-0.580078	0.035156	-0.365598	-0.665577	-0.590582	0.503906	0.867188	-0.035156	976	16_54_20_4139040
0.020508	-0.591797	0.026367	-0.365598	-0.656202	-0.599956	0.949219	0.867188	0.398438	977	16_54_20_4300330
0.023438	-0.580078	0.032227	-0.365598	-0.665577	-0.599956	0.621094	0.843750	0.304688	978	16_54_20_4461620
0.023438	-0.574219	0.041016	-0.365598	-0.656202	-0.599956	0.503906	0.914063	-0.023438	979	16_54_20_4622910
0.005859	-0.571289	0.026367	-0.365598	-0.656202	-0.599956	0.492188	0.996094	-0.070313	980	16_54_20_4784200
0.008789	-0.583008	0.029297	-0.365598	-0.656202	-0.599956	0.492188	0.902344	-0.058594	981	16_54_20_4945490
0.008789	-0.580078	0.041016	-0.374973	-0.656202	-0.609331	0.539063	0.925781	-0.070313	982	16_54_20_5106780
0.017578	-0.580078	0.032227	-0.365598	-0.656202	-0.599956	0.492188	0.902344	-0.023438	983	16_54_20_5268070
0.005859	-0.577148	0.043945	-0.374973	-0.656202	-0.599956	0.492188	0.937500	-0.046875	984	16_54_20_5429360
0.008789	-0.577148	0.035156	-0.365598	-0.656202	-0.599956	0.492188	0.972656	-0.070313	985	16_54_20_5590650
0.011719	-0.588867	0.038086	-0.365598	-0.656202	-0.599956	0.468750	0.960938	-0.082031	986	16_54_20_5751940
0.017578	-0.583008	0.032227	-0.374973	-0.656202	-0.599956	0.492188	0.925781	-0.070313	987	16_54_20_5913230
0.017578	-0.577148	0.038086	-0.365598	-0.656202	-0.599956	0.738281	0.867188	0.281250	988	16_54_20_6074520
0.005859	-0.580078	0.046875	-0.365598	-0.656202	-0.599956	0.527344	0.937500	-0.011719	989	16_54_20_6235810
0.017578	-0.580078	0.041016	-0.365598	-0.656202	-0.599956	0.480469	0.937500	-0.023438	990	16_54_20_6397100
0.008789	-0.580078	0.046875	-0.365598	-0.656202	-0.599956	0.503906	0.937500	-0.046875	991	16_54_20_6558390
0.011719	-0.583008	0.038086	-0.365598	-0.656202	-0.599956	0.527344	0.914063	-0.046875	992	16_54_20_6719680
0.000000	-0.574219	0.043945	-0.365598	-0.656202	-0.599956	0.503906	0.937500	-0.046875	993	16_54_20_6880970
0.005859	-0.585938	0.035156	-0.365598	-0.656202	-0.599956	0.996094	0.937500	0.128906	994	16_54_20_7042260
0.011719	-0.571289	0.038086	-0.374973	-0.656202	-0.599956	0.937500	0.960938	0.082031	995	16_54_20_7203550
0.017578	-0.580078	0.032227	-0.365598	-0.656202	-0.599956	0.527344	0.960938	-0.058594	996	16_54_20_7364840
0.020508	-0.588867	0.043945	-0.365598	-0.656202	-0.599956	0.539063	0.984375	-0.035156	997	16_54_20_7526130
0.014648	-0.580078	0.026367	-0.365598	-0.646828	-0.599956	0.550781	0.914063	-0.058594	998	16_54_20_7687420
0.008789	-0.580078	0.041016	-0.365598	-0.656202	-0.609331	0.609375	0.878906	-0.011719	999	16_54_20_7848710
0.014648	-0.583008	0.043945	-0.365598	-0.656202	-0.599956	0.503906	0.937500	-0.035156	1000	16_54_20_8010000
0.011719	-0.588867	0.038086	-0.365598	-0.656202	-0.609331	0.492188	0.890625	-0.046875	1001	16_54_20_8171290
0.008789	-0.574219	0.038086	-0.374973	-0.656202	-0.599956	0.597656	0.890625	0.023438	1002	16_54_20_8332580
0.002930	-0.580078	0.055664	-0.365598	-0.656202	-0.599956	0.539063	0.914063	0.000000	1003	16_54_20_8493870
0.014648	-0.580078	0.043945	-0.374973	-0.656202	-0.599956	0.527344	0.960938	-0.023438	1004	16_54_20_8655160
0.008789	-0.588867	0.035156	-0.365598	-0.656202	-0.599956	0.539063	0.960938	-0.023438	1005	16_54_20_8816450
0.017578	-0.580078	0.041016	-0.365598	-0.656202	-0.599956	0.492188	1.007813	-0.023438	1006	16_54_20_8977740
0.020508	-0.568359	0.032227	-0.365598	-0.656202	-0.599956	1.113281	1.042969	0.164063	1007	16_54_20_9139030
0.020508	-0.577148	0.038086	-0.365598	-0.656202	-0.599956	0.492188	0.984375	-0.082031	1008	16_54_20_9300320
0.023438	-0.580078	0.041016	-0.365598	-0.656202	-0.599956	0.480469	0.984375	-0.070313	1009	16_54_20_9461610
0.014648	-0.585938	0.041016	-0.365598	-0.656202	-0.599956	0.597656	0.996094	0.503906	1010	16_54_20_9622900
0.005859	-0.580078	0.029297	-0.365598	-0.656202	-0.599956	0.492188	0.937500	-0.035156	1011	16_54_20_9784190
0.008789	-0.574219	0.032227	-0.365598	-0.656202	-0.599956	0.503906	0.960938	-0.070313	1012	16_54_20_9945480
0.017578	-0.580078	0.038086	-0.374973	-0.656202	-0.599956	0.515625	0.914063	-0.058594	1013	16_54_21_0106770
0.011719	-0.585938	0.038086	-0.374973	-0.656202	-0.609331	0.738281	0.867188	0.011719	1014	16_54_21_0268060
0.002930	-0.577148	0.032227	-0.365598	-0.656202	-0.609331	0.515625	0.925781	-0.093750	1015	16_54_21_0429350
0.014648	-0.583008	0.041016	-0.365598	-0.656202	-0.599956	0.726563	0.867188	0.011719	1016	16_54_21_0590640
0.014648	-0.574219	0.043945	-0.365598	-0.656202	-0.599956	0.492188	0.914063	-0.011719	1017	16_54_21_0751930
0.005859	-0.568359	0.032227	-0.365598	-0.656202	-0.599956	0.503906	0.937500	-0.035156	1018	16_54_21_0913220
0.014648	-0.585938	0.041016	-0.365598	-0.656202	-0.599956	0.878906	0.937500	0.410156	1019	16_54_21_1074510
0.017578	-0.583008	0.049805	-0.374973	-0.656202	-0.599956	0.492188	0.972656	-0.035156	1020	16_54_21_1235800
0.017578	-0.580078	0.041016	-0.365598	-0.646828	-0.599956	0.492188	0.949219	-0.046875	1021	16_54_21_1397090
0.011719	-0.580078	0.035156	-0.374973	-0.656202	-0.599956	0.515625	0.949219	0.164063	1022	16_54_21_1558380
0.011719	-0.577148	0.041016	-0.365598	-0.656202	-0.599956	0.691406	0.937500	-0.035156	1023	16_54_21_1719670
0.008789	-0.577148	0.041016	-0.365598	-0.656202	-0.599956	0.492188	0.914063	-0.058594	1024	16_54_21_1880960
0.008789	-0.580078	0.035156	-0.365598	-0.656202	-0.599956	0.503906	0.890625	-0.082031	1025	16_54_21_2042250
0.017578	-0.583008	0.043945	-0.365598	-0.656202	-0.599956	0.492188	0.937500	-0.070313	1026	16_54_21_2203540
0.017578	-0.585938	0.038086	-0.374973	-0.656202	-0.599956	0.492188	0.972656	-0.023438	1027	16_54_21_2364830
0.008789	-0.583008	0.029297	-0.365598	-0.665577	-0.599956	0.480469	0.890625	-0.058594	1028	16_54_21_2526120
0.017578	-0.585938	0.032227	-0.365598	-0.656202	-0.599956	0.585938	0.855469	-0.046875	1029	16_54_21_2687410
0.008789	-0.597656	0.038086	-0.365598	-0.656202	-0.599956	0.503906	0.902344	-0.082031	1030	16_54_21_2848700
0.011719	-0.580078	0.032227	-0.365598	-0.646828	-0.599956	0.621094	0.902344	-0.011719	1031	16_54_21_3009990
0.008789	-0.580078	0.046875	-0.365598	-0.656202	-0.599956	0.503906	0.925781	-0.046875	1032	16_54_21_3171280
0.014648	-0.571289	0.035156	-0.365598	-0.656202	-0.599956	0.515625	0.902344	-0.070313	1033	16_54_21_3332570
0.014648	-0.580078	0.041016	-0.365598	-0.665577	-0.599956	0.515625	0.867188	-0.070313	1034	16_54_21_3493860
0.017578	-0.580078	0.035156	-0.365598	-0.665577	-0.599956	0.492188	0.867188	-0.035156	1035	16_54_21_3655150
0.014648	-0.583008	0.032227	-0.365598	-0.665577	-0.599956	0.492188	0.914063	-0.070313	1036	16_54_21_3816440
0.017578	-0.585938	0.041016	-0.365598	-0.656202	-0.599956	0.503906	0.890625	-0.093750	1037	16_54_21_3977730
0.014648	-0.583008	0.032227	-0.365598	-0.656202	-0.590582	0.468750	0.937500	-0.058594	1038	16_54_21_4139020
0.008789	-0.580078	0.032227	-0.365598	-0.656202	-0.599956	0.492188	0.914063	-0.070313	1039	16_54_21_4300310
0.011719	-0.580078	0.035156	-0.365598	-0.656202	-0.599956	0.480469	0.914063	-0.082031	1040	16_54_21_4461600
0.008789	-0.585938	0.035156	-0.365598	-0.656202	-0.599956	0.492188	0.984375	-0.058594	1041	16_54_21_4622890
0.011719	-0.580078	0.043945	-0.365598	-0.656202	-0.599956	0.503906	0.960938	-0.058594	1042	16_54_21_4784180
0.008789	-0.574219	0.029297	-0.365598	-0.656202	-0.599956	0.503906	0.902344	-0.070313	1043	16_54_21_4945470
0.017578	-0.571289	0.035156	-0.365598	-0.656202	-0.599956	0.667969	0.890625	0.023438	1044	16_54_21_5106760
0.008789	-0.583008	0.043945	-0.365598	-0.665577	-0.609331	0.515625	0.914063	-0.023438	1045	16_54_21_5268050
0.008789	-0.577148	0.032227	-0.365598	-0.656202	-0.599956	0.492188	0.902344	-0.093750	1046	16_54_21_5429340
0.005859	-0.585938	0.038086	-0.365598	-0.656202	-0.599956	0.492188	0.914063	-0.082031	1047	16_54_21_5590630
0.014648	-0.574219	0.041016	-0.365598	-0.665577	-0.599956	0.468750	0.960938	-0.058594	1048	16_54_21_5751920
0.020508	-0.580078	0.035156	-0.365598	-0.665577	-0.599956	0.480469	0.925781	-0.070313	1049	16_54_21_5913210
0.008789	-0.577148	0.032227	-0.365598	-0.656202	-0.599956	0.480469	0.914063	-0.070313	1050	16_54_21_6074500
0.011719	-0.571289	0.043945	-0.374973	-0.656202	-0.599956	0.503906	0.914063	-0.058594	1051	16_54_21_6235790
0.002930	-0.574219	0.038086	-0.365598	-0.656202	-0.599956	0.503906	0.960938	-0.035156	1052	16_54_21_6397080
0.014648	-0.580078	0.029297	-0.365598	-0.656202	-0.599956	0.515625	0.914063	-0.011719	1053	16_54_21_6558370
0.017578	-0.577148	0.038086	-0.365598	-0.656202	-0.599956	0.492188	0.914063	-0.011719	1054	16_54_21_6719660
0.011719	-0.580078	0.043945	-0.365598	-0.665577	-0.599956	0.585938	0.925781	-0.035156	1055	16_54_21_6880950
0.014648	-0.580078	0.032227	-0.356224	-0.656202	-0.609331	0.773438	0.902344	0.058594	1056	16_54_21_7042240
0.002930	-0.580078	0.038086	-0.365598	-0.665577	-0.599956	0.492188	0.925781	-0.035156	1057	16_54_21_7203530
0.005859	-0.577148	0.049805	-0.365598	-0.656202	-0.599956	0.468750	0.937500	-0.011719	1058	16_54_21_7364820
0.017578	-0.583008	0.038086	-0.365598	-0.656202	-0.590582	1.113281	0.890625	0.175781	1059	16_54_21_7526110
0.017578	-0.580078	0.038086	-0.365598	-0.656202	-0.599956	0.503906	0.949219	-0.070313	1060	16_54_21_7687400
0.011719	-0.574219	0.038086	-0.365598	-0.656202	-0.599956	0.750000	0.902344	0.386719	1061	16_54_21_7848690
0.005859	-0.571289	0.038086	-0.365598	-0.656202	-0.599956	0.515625	0.914063	-0.058594	1062	16_54_21_8009980
0.011719	-0.588867	0.038086	-0.365598	-0.656202	-0.599956	0.492188	0.914063	-0.058594	1063	16_54_21_8171270
0.020508	-0.588867	0.038086	-0.365598	-0.656202	-0.599956	0.515625	0.914063	-0.058594	1064	16_54_21_8332560
0.002930	-0.580078	0.029297	-0.365598	-0.656202	-0.599956	0.515625	0.914063	-0.082031	1065	16_54_21_8493850
0.014648	-0.580078	0.038086	-0.365598	-0.656202	-0.599956	0.503906	0.914063	-0.035156	1066	16_54_21_8655140
0.017578	-0.580078	0.035156	-0.365598	-0.656202	-0.599956	0.820313	0.914063	0.082031	1067	16_54_21_8816430
0.011719	-0.577148	0.035156	-0.365598	-0.656202	-0.599956	0.492188	0.855469	-0.058594	1068	16_54_21_8977720
0.023438	-0.580078	0.035156	-0.365598	-0.656202	-0.599956	0.480469	0.867188	-0.035156	1069	16_54_21_9139010
0.014648	-0.574219	0.035156	-0.365598	-0.656202	-0.609331	0.492188	0.890625	-0.070313	1070	16_54_21_9300300
0.014648	-0.574219	0.041016	-0.365598	-0.656202	-0.599956	0.492188	0.914063	-0.093750	1071	16_54_21_9461590
0.008789	-0.580078	0.032227	-0.365598	-0.656202	-0.599956	0.468750	0.890625	-0.058594	1072	16_54_21_9622880
0.017578	-0.580078	0.038086	-0.365598	-0.656202	-0.599956	0.492188	0.902344	-0.105469	1073	16_54_21_9784170
0.014648	-0.585938	0.032227	-0.365598	-0.656202	-0.599956	0.539063	0.960938	-0.105469	1074	16_54_21_9945460
0.017578	-0.580078	0.041016	-0.365598	-0.656202	-0.599956	0.515625	0.960938	-0.058594	1075	16_54_22_0106750
0.017578	-0.580078	0.035156	-0.374973	-0.656202	-0.599956	0.550781	0.949219	-0.058594	1076	16_54_22_0268040
0.014648	-0.580078	0.041016	-0.365598	-0.656202	-0.599956	0.503906	0.937500	-0.082031	1077	16_54_22_0429330
0.017578	-0.580078	0.043945	-0.365598	-0.665577	-0.599956	0.503906	0.937500	-0.046875	1078	16_54_22_0590620
0.020508	-0.574219	0.038086	-0.365598	-0.665577	-0.599956	0.480469	0.867188	-0.058594	1079	16_54_22_0751910
0.023438	-0.583008	0.041016	-0.365598	-0.656202	-0.599956	0.527344	0.843750	-0.082031	1080	16_54_22_0913200
0.020508	-0.583008	0.038086	-0.365598	-0.656202	-0.599956	0.480469	0.832031	-0.070313	1081	16_54_22_1074490
0.008789	-0.583008	0.038086	-0.365598	-0.656202	-0.599956	0.515625	0.914063	-0.082031	1082	16_54_22_1235780
0.020508	-0.585938	0.043945	-0.374973	-0.656202	-0.599956	0.492188	0.867188	-0.093750	1083	16_54_22_1397070
0.008789	-0.585938	0.041016	-0.374973	-0.656202	-0.609331	0.515625	0.843750	-0.117188	1084	16_54_22_1558360
0.017578	-0.580078	0.043945	-0.374973	-0.656202	-0.599956	0.515625	0.902344	-0.105469	1085	16_54_22_1719650
0.008789	-0.583008	0.049805	-0.384347	-0.665577	-0.599956	0.503906	0.902344	-0.070313	1086	16_54_22_1880940
0.023438	-0.565430	0.038086	-0.365598	-0.656202	-0.599956	0.492188	0.902344	-0.070313	1087	16_54_22_2042230
0.017578	-0.571289	0.041016	-0.365598	-0.656202	-0.599956	0.492188	0.902344	-0.046875	1088	16_54_22_2203520
0.005859	-0.568359	0.029297	-0.356224	-0.656202	-0.599956	0.515625	0.890625	-0.046875	1089	16_54_22_2364810
0.005859	-0.583008	0.043945	-0.356224	-0.656202	-0.590582	0.515625	0.984375	-0.082031	1090	16_54_22_2526100
0.014648	-0.580078	0.046875	-0.356224	-0.656202	-0.590582	0.480469	0.949219	-0.093750	1091	16_54_22_2687390
0.011719	-0.591797	0.032227	-0.356224	-0.665577	-0.590582	0.480469	0.914063	-0.058594	1092	16_54_22_2848680
0.017578	-0.594727	0.041016	-0.356224	-0.656202	-0.590582	0.574219	1.007813	0.175781	1093	16_54_22_3009970
0.011719	-0.594727	0.035156	-0.365598	-0.656202	-0.599956	0.515625	0.949219	-0.082031	1094	16_54_22_3171260
0.020508	-0.585938	0.032227	-0.374973	-0.656202	-0.599956	0.714844	0.855469	0.175781	1095	16_54_22_3332550
0.008789	-0.583008	0.043945	-0.384347	-0.656202	-0.599956	0.515625	0.914063	-0.093750	1096	16_54_22_3493840
0.017578	-0.580078	0.043945	-0.384347	-0.656202	-0.599956	0.492188	0.960938	-0.046875	1097	16_54_22_3655130
0.023438	-0.577148	0.029297	-0.384347	-0.656202	-0.599956	0.527344	0.960938	-0.058594	1098	16_54_22_3816420
0.014648	-0.583008	0.043945	-0.403096	-0.656202	-0.590582	0.515625	0.914063	-0.058594	1099	16_54_22_3977710
0.017578	-0.583008	0.041016	-0.374973	-0.665577	-0.590582	0.550781	0.960938	-0.046875	1100	16_54_22_4139000
0.011719	-0.577148	0.038086	-0.374973	-0.656202	-0.590582	0.503906	0.890625	-0.082031	1101	16_54_22_4300290
0.017578	-0.568359	0.046875	-0.374973	-0.656202	-0.590582	0.503906	0.867188	-0.093750	1102	16_54_22_4461580
0.011719	-0.574219	0.041016	-0.374973	-0.656202	-0.599956	0.503906	0.855469	-0.046875	1103	16_54_22_4622870
0.011719	-0.574219	0.043945	-0.374973	-0.656202	-0.590582	0.492188	0.867188	-0.035156	1104	16_54_22_4784160
0.023438	-0.580078	0.049805	-0.374973	-0.656202	-0.599956	0.515625	0.890625	-0.035156	1105	16_54_22_4945450
0.029297	-0.583008	0.049805	-0.384347	-0.656202	-0.609331	0.515625	0.949219	-0.023438	1106	16_54_22_5106740
0.026367	-0.585938	0.038086	-0.374973	-0.656202	-0.609331	0.656250	0.984375	0.000000	1107	16_54_22_5268030
0.029297	-0.577148	0.055664	-0.374973	-0.646828	-0.609331	0.492188	0.960938	-0.082031	1108	16_54_22_5429320
0.023438	-0.571289	0.043945	-0.384347	-0.637454	-0.609331	0.515625	0.890625	-0.070313	1109	16_54_22_5590610
0.017578	-0.571289	0.038086	-0.374973	-0.646828	-0.618705	0.515625	0.914063	-0.046875	1110	16_54_22_5751900
0.014648	-0.571289	0.032227	-0.374973	-0.656202	-0.609331	0.468750	0.984375	-0.082031	1111	16_54_22_5913190
0.020508	-0.577148	0.038086	-0.374973	-0.656202	-0.609331	0.480469	0.972656	-0.105469	1112	16_54_22_6074480
0.017578	-0.571289	0.032227	-0.374973	-0.656202	-0.609331	0.503906	0.914063	-0.070313	1113	16_54_22_6235770
0.014648	-0.574219	0.046875	-0.365598	-0.656202	-0.609331	0.597656	0.890625	-0.011719	1114	16_54_22_6397060
0.014648	-0.571289	0.055664	-0.365598	-0.656202	-0.609331	0.527344	0.914063	-0.023438	1115	16_54_22_6558350
0.005859	-0.583008	0.046875	-0.365598	-0.656202	-0.609331	0.492188	0.960938	-0.046875	1116	16_54_22_6719640
0.017578	-0.580078	0.043945	-0.365598	-0.656202	-0.599956	0.492188	0.960938	-0.058594	1117	16_54_22_6880930
0.017578	-0.574219	0.046875	-0.365598	-0.656202	-0.609331	0.492188	0.937500	-0.093750	1118	16_54_22_7042220
0.029297	-0.577148	0.046875	-0.365598	-0.656202	-0.618705	0.492188	0.972656	-0.093750	1119	16_54_22_7203510
0.011719	-0.580078	0.041016	-0.365598	-0.656202	-0.618705	0.503906	0.960938	-0.105469	1120	16_54_22_7364800
0.017578	-0.574219	0.043945	-0.365598	-0.646828	-0.609331	0.492188	0.914063	-0.117188	1121	16_54_22_7526090
