sensor_ID	000666015715
Accel_X	Accel_Y	Accel_Z	Roll	Pitch	Yaw	Mag_X	Mag_Y	Mag_Z	Count	SysTime
-0.114258	-0.694336	-0.067383	-0.187486	0.187486	-0.121866	0.691406	1.089844	0.597656	0	16_54_04_6410000
-0.093750	-0.697266	-0.064453	-0.187486	0.178112	-0.131240	0.726563	0.949219	0.503906	1	16_54_04_6571290
-0.108398	-0.697266	-0.082031	-0.178112	0.187486	-0.149989	0.703125	0.878906	0.503906	2	16_54_04_6732580
-0.105469	-0.703125	-0.079102	-0.178112	0.187486	-0.168738	0.773438	0.949219	0.539063	3	16_54_04_6893870
-0.134766	-0.706055	-0.067383	-0.178112	0.187486	-0.168738	0.691406	0.890625	0.527344	4	16_54_04_7055160
-0.125977	-0.711914	-0.090820	-0.178112	0.187486	-0.168738	0.691406	0.855469	0.515625	5	16_54_04_7216450
-0.123047	-0.720703	-0.096680	-0.178112	0.168738	-0.168738	0.703125	0.808594	0.515625	6	16_54_04_7377740
-0.123047	-0.720703	-0.096680	-0.187486	0.168738	-0.159363	0.703125	0.843750	0.492188	7	16_54_04_7539030
-0.111328	-0.714844	-0.105469	-0.196861	0.168738	-0.159363	0.703125	0.890625	0.503906	8	16_54_04_7700320
-0.102539	-0.720703	-0.105469	-0.196861	0.168738	-0.159363	0.691406	0.902344	0.515625	9	16_54_04_7861610
-0.099609	-0.708984	-0.082031	-0.196861	0.168738	-0.159363	0.703125	0.914063	0.480469	10	16_54_04_8022900
-0.096680	-0.691406	-0.084961	-0.196861	0.168738	-0.168738	0.691406	0.914063	0.503906	11	16_54_04_8184190
-0.099609	-0.703125	-0.084961	-0.187486	0.168738	-0.178112	0.714844	0.914063	0.492188	12	16_54_04_8345480
-0.099609	-0.703125	-0.082031	-0.187486	0.159363	-0.178112	0.679688	0.878906	0.480469	13	16_54_04_8506770
-0.096680	-0.714844	-0.093750	-0.178112	0.149989	-0.178112	0.679688	0.914063	0.550781	14	16_54_04_8668060
-0.090820	-0.717773	-0.084961	-0.178112	0.149989	-0.178112	0.691406	0.914063	0.503906	15	16_54_04_8829350
-0.087891	-0.714844	-0.096680	-0.187486	0.149989	-0.187486	0.691406	0.843750	0.480469	16	16_54_04_8990640
-0.084961	-0.720703	-0.096680	-0.187486	0.149989	-0.187486	0.667969	0.867188	0.527344	17	16_54_04_9151930
-0.093750	-0.717773	-0.099609	-0.187486	0.159363	-0.187486	0.691406	0.902344	0.515625	18	16_54_04_9313220
-0.090820	-0.720703	-0.090820	-0.187486	0.168738	-0.187486	0.679688	0.832031	0.515625	19	16_54_04_9474510
-0.090820	-0.720703	-0.090820	-0.187486	0.168738	-0.187486	0.691406	0.843750	0.539063	20	16_54_04_9635800
-0.084961	-0.720703	-0.084961	-0.187486	0.168738	-0.196861	0.691406	0.914063	0.539063	21	16_54_04_9797090
-0.084961	-0.726563	-0.084961	-0.187486	0.178112	-0.196861	0.691406	0.867188	0.492188	22	16_54_04_9958380
-0.087891	-0.735352	-0.102539	-0.187486	0.178112	-0.196861	0.679688	0.914063	0.468750	23	16_54_05_0119670
-0.093750	-0.726563	-0.105469	-0.196861	0.187486	-0.196861	0.703125	0.949219	0.480469	24	16_54_05_0280960
-0.090820	-0.714844	-0.102539	-0.206235	0.187486	-0.206235	0.679688	0.914063	0.503906	25	16_54_05_0442250
-0.087891	-0.708984	-0.096680	-0.206235	0.187486	-0.206235	0.691406	0.914063	0.515625	26	16_54_05_0603540
-0.093750	-0.717773	-0.096680	-0.206235	0.196861	-0.196861	0.679688	0.890625	0.492188	27	16_54_05_0764830
-0.099609	-0.706055	-0.087891	-0.206235	0.196861	-0.196861	0.691406	0.890625	0.503906	28	16_54_05_0926120
-0.096680	-0.714844	-0.099609	-0.206235	0.196861	-0.196861	0.691406	0.820313	0.503906	29	16_54_05_1087410
-0.108398	-0.711914	-0.102539	-0.206235	0.187486	-0.196861	0.691406	0.867188	0.503906	30	16_54_05_1248700
-0.093750	-0.714844	-0.093750	-0.206235	0.196861	-0.196861	0.691406	0.890625	0.527344	31	16_54_05_1409990
-0.099609	-0.708984	-0.096680	-0.206235	0.187486	-0.196861	0.785156	1.066406	0.550781	32	16_54_05_1571280
-0.099609	-0.706055	-0.108398	-0.206235	0.187486	-0.196861	0.691406	0.890625	0.527344	33	16_54_05_1732570
-0.099609	-0.720703	-0.099609	-0.206235	0.187486	-0.196861	0.691406	0.902344	0.550781	34	16_54_05_1893860
-0.102539	-0.697266	-0.105469	-0.206235	0.187486	-0.196861	0.679688	0.867188	0.527344	35	16_54_05_2055150
-0.093750	-0.703125	-0.105469	-0.206235	0.178112	-0.196861	0.679688	0.890625	0.527344	36	16_54_05_2216440
-0.099609	-0.706055	-0.105469	-0.206235	0.187486	-0.187486	0.679688	0.937500	0.527344	37	16_54_05_2377730
-0.096680	-0.708984	-0.102539	-0.206235	0.178112	-0.196861	0.703125	0.867188	0.539063	38	16_54_05_2539020
-0.090820	-0.706055	-0.099609	-0.206235	0.187486	-0.196861	0.703125	0.832031	0.515625	39	16_54_05_2700310
-0.090820	-0.708984	-0.102539	-0.206235	0.187486	-0.196861	0.691406	0.808594	0.492188	40	16_54_05_2861600
-0.102539	-0.708984	-0.096680	-0.206235	0.187486	-0.196861	0.691406	0.855469	0.492188	41	16_54_05_3022890
-0.093750	-0.711914	-0.093750	-0.206235	0.178112	-0.187486	0.691406	0.855469	0.503906	42	16_54_05_3184180
-0.087891	-0.720703	-0.105469	-0.206235	0.178112	-0.196861	0.703125	0.878906	0.480469	43	16_54_05_3345470
-0.093750	-0.720703	-0.096680	-0.206235	0.178112	-0.196861	0.714844	0.843750	0.515625	44	16_54_05_3506760
-0.102539	-0.706055	-0.102539	-0.206235	0.187486	-0.196861	0.703125	0.878906	0.527344	45	16_54_05_3668050
-0.093750	-0.711914	-0.108398	-0.206235	0.178112	-0.196861	0.691406	0.890625	0.480469	46	16_54_05_3829340
-0.096680	-0.706055	-0.102539	-0.206235	0.178112	-0.187486	0.679688	0.914063	0.480469	47	16_54_05_3990630
-0.079102	-0.700195	-0.093750	-0.206235	0.178112	-0.196861	0.691406	0.937500	0.480469	48	16_54_05_4151920
-0.087891	-0.711914	-0.096680	-0.206235	0.187486	-0.196861	0.691406	0.960938	0.515625	49	16_54_05_4313210
-0.093750	-0.708984	-0.102539	-0.206235	0.187486	-0.196861	0.703125	0.925781	0.503906	50	16_54_05_4474500
-0.093750	-0.708984	-0.096680	-0.206235	0.187486	-0.196861	0.691406	0.890625	0.480469	51	16_54_05_4635790
-0.087891	-0.708984	-0.114258	-0.206235	0.187486	-0.196861	0.679688	0.878906	0.515625	52	16_54_05_4797080
-0.093750	-0.708984	-0.114258	-0.206235	0.187486	-0.187486	0.691406	0.808594	0.515625	53	16_54_05_4958370
-0.093750	-0.717773	-0.108398	-0.206235	0.187486	-0.196861	0.656250	0.855469	0.539063	54	16_54_05_5119660
-0.096680	-0.714844	-0.108398	-0.206235	0.187486	-0.196861	0.691406	0.808594	0.539063	55	16_54_05_5280950
-0.096680	-0.708984	-0.096680	-0.206235	0.187486	-0.196861	0.691406	0.820313	0.480469	56	16_54_05_5442240
-0.087891	-0.711914	-0.093750	-0.206235	0.178112	-0.196861	0.703125	0.867188	0.492188	57	16_54_05_5603530
-0.096680	-0.694336	-0.096680	-0.206235	0.187486	-0.206235	0.679688	0.867188	0.503906	58	16_54_05_5764820
-0.093750	-0.708984	-0.099609	-0.206235	0.187486	-0.206235	0.714844	0.832031	0.515625	59	16_54_05_5926110
-0.099609	-0.706055	-0.108398	-0.206235	0.187486	-0.196861	0.679688	0.937500	0.480469	60	16_54_05_6087400
-0.090820	-0.697266	-0.096680	-0.206235	0.187486	-0.196861	0.679688	0.937500	0.480469	61	16_54_05_6248690
-0.099609	-0.703125	-0.102539	-0.206235	0.187486	-0.187486	0.691406	0.925781	0.492188	62	16_54_05_6409980
-0.084961	-0.711914	-0.114258	-0.196861	0.178112	-0.178112	0.644531	0.867188	0.503906	63	16_54_05_6571270
-0.102539	-0.708984	-0.108398	-0.196861	0.178112	-0.178112	0.679688	0.843750	0.527344	64	16_54_05_6732560
-0.093750	-0.714844	-0.102539	-0.196861	0.187486	-0.178112	0.679688	0.878906	0.539063	65	16_54_05_6893850
-0.114258	-0.708984	-0.108398	-0.196861	0.178112	-0.178112	0.773438	0.996094	0.515625	66	16_54_05_7055140
-0.099609	-0.726563	-0.102539	-0.187486	0.178112	-0.178112	0.691406	0.914063	0.457031	67	16_54_05_7216430
-0.096680	-0.717773	-0.114258	-0.196861	0.168738	-0.178112	0.691406	0.902344	0.492188	68	16_54_05_7377720
-0.090820	-0.726563	-0.105469	-0.206235	0.178112	-0.178112	0.679688	0.843750	0.527344	69	16_54_05_7539010
-0.090820	-0.729492	-0.111328	-0.206235	0.168738	-0.178112	0.679688	0.867188	0.539063	70	16_54_05_7700300
-0.096680	-0.720703	-0.108398	-0.206235	0.168738	-0.187486	0.691406	0.925781	0.503906	71	16_54_05_7861590
-0.090820	-0.711914	-0.099609	-0.206235	0.168738	-0.187486	0.691406	0.937500	0.492188	72	16_54_05_8022880
-0.079102	-0.714844	-0.090820	-0.206235	0.168738	-0.196861	0.656250	0.937500	0.503906	73	16_54_05_8184170
-0.079102	-0.723633	-0.105469	-0.206235	0.178112	-0.196861	0.679688	0.867188	0.515625	74	16_54_05_8345460
-0.070313	-0.723633	-0.093750	-0.206235	0.187486	-0.196861	0.878906	1.148438	0.562500	75	16_54_05_8506750
-0.073242	-0.703125	-0.108398	-0.215609	0.187486	-0.196861	0.679688	0.843750	0.550781	76	16_54_05_8668040
-0.087891	-0.708984	-0.099609	-0.206235	0.187486	-0.196861	0.679688	0.890625	0.527344	77	16_54_05_8829330
-0.090820	-0.708984	-0.099609	-0.206235	0.187486	-0.196861	0.679688	0.843750	0.515625	78	16_54_05_8990620
-0.090820	-0.708984	-0.108398	-0.206235	0.187486	-0.196861	0.667969	0.832031	0.515625	79	16_54_05_9151910
-0.084961	-0.717773	-0.111328	-0.206235	0.187486	-0.196861	0.691406	0.855469	0.527344	80	16_54_05_9313200
-0.096680	-0.708984	-0.114258	-0.206235	0.196861	-0.196861	0.679688	0.867188	0.503906	81	16_54_05_9474490
-0.087891	-0.723633	-0.117188	-0.206235	0.187486	-0.196861	0.703125	0.902344	0.468750	82	16_54_05_9635780
-0.099609	-0.711914	-0.111328	-0.206235	0.187486	-0.196861	0.679688	0.914063	0.503906	83	16_54_05_9797070
-0.099609	-0.720703	-0.105469	-0.206235	0.178112	-0.196861	0.679688	0.890625	0.527344	84	16_54_05_9958360
-0.084961	-0.711914	-0.105469	-0.215609	0.178112	-0.196861	0.632813	0.914063	0.539063	85	16_54_06_0119650
-0.082031	-0.711914	-0.099609	-0.215609	0.187486	-0.196861	0.679688	0.890625	0.492188	86	16_54_06_0280940
-0.079102	-0.714844	-0.099609	-0.215609	0.187486	-0.196861	0.691406	0.855469	0.468750	87	16_54_06_0442230
-0.082031	-0.706055	-0.102539	-0.206235	0.187486	-0.196861	0.703125	0.878906	0.515625	88	16_54_06_0603520
-0.084961	-0.711914	-0.105469	-0.206235	0.187486	-0.206235	0.679688	0.878906	0.480469	89	16_54_06_0764810
-0.082031	-0.714844	-0.102539	-0.206235	0.187486	-0.206235	0.679688	0.960938	0.480469	90	16_54_06_0926100
-0.090820	-0.714844	-0.096680	-0.206235	0.187486	-0.206235	0.691406	0.937500	0.515625	91	16_54_06_1087390
-0.096680	-0.703125	-0.099609	-0.215609	0.187486	-0.206235	0.703125	0.867188	0.527344	92	16_54_06_1248680
-0.090820	-0.703125	-0.108398	-0.206235	0.187486	-0.206235	0.691406	0.855469	0.480469	93	16_54_06_1409970
-0.090820	-0.708984	-0.108398	-0.206235	0.187486	-0.196861	0.679688	0.890625	0.433594	94	16_54_06_1571260
-0.099609	-0.711914	-0.102539	-0.206235	0.187486	-0.196861	0.679688	0.878906	0.480469	95	16_54_06_1732550
-0.096680	-0.708984	-0.105469	-0.206235	0.187486	-0.206235	0.691406	0.890625	0.503906	96	16_54_06_1893840
-0.099609	-0.717773	-0.108398	-0.206235	0.187486	-0.206235	0.679688	0.890625	0.492188	97	16_54_06_2055130
-0.105469	-0.703125	-0.108398	-0.196861	0.187486	-0.206235	0.667969	0.914063	0.480469	98	16_54_06_2216420
-0.102539	-0.720703	-0.096680	-0.196861	0.178112	-0.196861	0.703125	0.855469	0.480469	99	16_54_06_2377710
-0.102539	-0.720703	-0.114258	-0.206235	0.187486	-0.196861	0.679688	0.902344	0.503906	100	16_54_06_2539000
-0.090820	-0.708984	-0.102539	-0.206235	0.187486	-0.196861	0.703125	0.972656	0.515625	101	16_54_06_2700290
-0.090820	-0.711914	-0.099609	-0.206235	0.187486	-0.196861	0.726563	0.914063	0.503906	102	16_54_06_2861580
-0.093750	-0.711914	-0.108398	-0.206235	0.187486	-0.196861	0.703125	0.867188	0.503906	103	16_54_06_3022870
-0.093750	-0.708984	-0.111328	-0.206235	0.187486	-0.196861	0.691406	0.820313	0.480469	104	16_54_06_3184160
-0.096680	-0.714844	-0.111328	-0.206235	0.187486	-0.196861	0.703125	0.867188	0.480469	105	16_54_06_3345450
-0.099609	-0.711914	-0.111328	-0.206235	0.187486	-0.196861	0.691406	0.878906	0.492188	106	16_54_06_3506740
-0.087891	-0.720703	-0.111328	-0.215609	0.187486	-0.196861	0.691406	0.890625	0.503906	107	16_54_06_3668030
-0.099609	-0.703125	-0.102539	-0.206235	0.187486	-0.196861	0.679688	0.937500	0.480469	108	16_54_06_3829320
-0.093750	-0.708984	-0.105469	-0.206235	0.187486	-0.196861	0.679688	0.867188	0.492188	109	16_54_06_3990610
-0.093750	-0.708984	-0.105469	-0.206235	0.187486	-0.196861	0.679688	0.820313	0.550781	110	16_54_06_4151900
-0.087891	-0.697266	-0.102539	-0.206235	0.178112	-0.196861	0.703125	0.867188	0.550781	111	16_54_06_4313190
-0.093750	-0.711914	-0.108398	-0.206235	0.178112	-0.187486	0.691406	0.890625	0.503906	112	16_54_06_4474480
-0.084961	-0.714844	-0.099609	-0.206235	0.187486	-0.196861	0.679688	0.914063	0.503906	113	16_54_06_4635770
-0.093750	-0.706055	-0.090820	-0.206235	0.187486	-0.196861	0.703125	0.890625	0.480469	114	16_54_06_4797060
-0.087891	-0.708984	-0.111328	-0.196861	0.187486	-0.196861	0.656250	0.996094	0.503906	115	16_54_06_4958350
-0.079102	-0.708984	-0.102539	-0.206235	0.187486	-0.196861	0.679688	0.925781	0.550781	116	16_54_06_5119640
-0.096680	-0.711914	-0.105469	-0.206235	0.187486	-0.196861	0.679688	0.820313	0.480469	117	16_54_06_5280930
-0.093750	-0.711914	-0.105469	-0.206235	0.187486	-0.196861	0.679688	0.820313	0.468750	118	16_54_06_5442220
-0.093750	-0.711914	-0.111328	-0.206235	0.187486	-0.196861	0.679688	0.808594	0.515625	119	16_54_06_5603510
-0.084961	-0.706055	-0.111328	-0.206235	0.187486	-0.196861	0.691406	0.855469	0.503906	120	16_54_06_5764800
-0.087891	-0.714844	-0.102539	-0.206235	0.187486	-0.196861	0.679688	0.890625	0.515625	121	16_54_06_5926090
-0.093750	-0.706055	-0.099609	-0.206235	0.196861	-0.196861	0.679688	0.878906	0.503906	122	16_54_06_6087380
-0.090820	-0.708984	-0.102539	-0.206235	0.196861	-0.196861	0.691406	0.867188	0.492188	123	16_54_06_6248670
-0.096680	-0.711914	-0.111328	-0.206235	0.196861	-0.196861	0.691406	0.902344	0.527344	124	16_54_06_6409960
-0.087891	-0.720703	-0.105469	-0.206235	0.196861	-0.187486	0.691406	0.937500	0.550781	125	16_54_06_6571250
-0.096680	-0.708984	-0.108398	-0.206235	0.187486	-0.196861	0.832031	1.125000	0.527344	126	16_54_06_6732540
-0.093750	-0.708984	-0.108398	-0.206235	0.187486	-0.196861	0.703125	0.902344	0.503906	127	16_54_06_6893830
-0.090820	-0.714844	-0.105469	-0.206235	0.187486	-0.196861	0.691406	0.832031	0.492188	128	16_54_06_7055120
-0.079102	-0.714844	-0.108398	-0.206235	0.187486	-0.187486	0.691406	0.902344	0.480469	129	16_54_06_7216410
-0.079102	-0.700195	-0.093750	-0.206235	0.187486	-0.196861	0.691406	0.902344	0.503906	130	16_54_06_7377700
-0.084961	-0.703125	-0.099609	-0.206235	0.187486	-0.196861	0.679688	0.960938	0.527344	131	16_54_06_7538990
-0.087891	-0.711914	-0.105469	-0.196861	0.196861	-0.196861	0.691406	0.960938	0.539063	132	16_54_06_7700280
-0.090820	-0.729492	-0.114258	-0.206235	0.187486	-0.187486	0.679688	0.878906	0.539063	133	16_54_06_7861570
-0.076172	-0.720703	-0.102539	-0.206235	0.187486	-0.187486	0.679688	0.867188	0.539063	134	16_54_06_8022860
-0.084961	-0.714844	-0.102539	-0.206235	0.187486	-0.196861	0.679688	0.843750	0.503906	135	16_54_06_8184150
-0.084961	-0.717773	-0.108398	-0.206235	0.187486	-0.196861	0.703125	0.867188	0.492188	136	16_54_06_8345440
-0.087891	-0.708984	-0.105469	-0.196861	0.196861	-0.196861	0.691406	0.890625	0.480469	137	16_54_06_8506730
-0.093750	-0.711914	-0.102539	-0.206235	0.187486	-0.196861	0.714844	0.925781	0.492188	138	16_54_06_8668020
-0.087891	-0.700195	-0.102539	-0.206235	0.187486	-0.196861	0.679688	0.878906	0.527344	139	16_54_06_8829310
-0.090820	-0.711914	-0.111328	-0.206235	0.187486	-0.196861	0.703125	0.902344	0.550781	140	16_54_06_8990600
-0.087891	-0.706055	-0.108398	-0.206235	0.187486	-0.196861	0.679688	0.960938	0.539063	141	16_54_06_9151890
-0.090820	-0.714844	-0.114258	-0.206235	0.187486	-0.196861	0.679688	0.937500	0.527344	142	16_54_06_9313180
-0.084961	-0.714844	-0.114258	-0.206235	0.187486	-0.196861	0.691406	0.878906	0.539063	143	16_54_06_9474470
-0.087891	-0.720703	-0.111328	-0.206235	0.187486	-0.196861	0.656250	0.867188	0.503906	144	16_54_06_9635760
-0.099609	-0.706055	-0.108398	-0.206235	0.187486	-0.196861	0.656250	0.796875	0.480469	145	16_54_06_9797050
-0.093750	-0.691406	-0.111328	-0.206235	0.187486	-0.196861	0.714844	0.890625	0.515625	146	16_54_06_9958340
-0.090820	-0.708984	-0.114258	-0.206235	0.187486	-0.196861	0.691406	0.773438	0.539063	147	16_54_07_0119630
-0.087891	-0.706055	-0.105469	-0.206235	0.187486	-0.196861	0.738281	0.855469	0.503906	148	16_54_07_0280920
-0.084961	-0.708984	-0.108398	-0.206235	0.178112	-0.196861	0.691406	0.808594	0.503906	149	16_54_07_0442210
-0.079102	-0.714844	-0.114258	-0.206235	0.187486	-0.196861	0.703125	0.843750	0.527344	150	16_54_07_0603500
-0.090820	-0.717773	-0.123047	-0.206235	0.187486	-0.196861	0.679688	0.867188	0.539063	151	16_54_07_0764790
-0.087891	-0.723633	-0.099609	-0.206235	0.196861	-0.196861	0.679688	0.867188	0.515625	152	16_54_07_0926080
-0.087891	-0.714844	-0.099609	-0.206235	0.196861	-0.196861	0.667969	0.808594	0.492188	153	16_54_07_1087370
-0.087891	-0.720703	-0.111328	-0.206235	0.187486	-0.196861	0.703125	0.843750	0.503906	154	16_54_07_1248660
-0.082031	-0.717773	-0.102539	-0.206235	0.187486	-0.206235	0.691406	0.820313	0.550781	155	16_54_07_1409950
-0.082031	-0.714844	-0.117188	-0.215609	0.187486	-0.196861	0.656250	0.843750	0.597656	156	16_54_07_1571240
-0.082031	-0.706055	-0.111328	-0.206235	0.187486	-0.196861	0.691406	0.832031	0.527344	157	16_54_07_1732530
-0.082031	-0.708984	-0.105469	-0.206235	0.196861	-0.196861	0.679688	0.890625	0.492188	158	16_54_07_1893820
-0.076172	-0.694336	-0.114258	-0.215609	0.206235	-0.206235	0.726563	0.996094	0.480469	159	16_54_07_2055110
-0.084961	-0.700195	-0.114258	-0.206235	0.196861	-0.206235	0.703125	0.960938	0.492188	160	16_54_07_2216400
-0.093750	-0.706055	-0.108398	-0.206235	0.196861	-0.196861	0.691406	0.867188	0.527344	161	16_54_07_2377690
-0.096680	-0.706055	-0.108398	-0.206235	0.196861	-0.206235	0.679688	0.843750	0.527344	162	16_54_07_2538980
-0.099609	-0.703125	-0.114258	-0.206235	0.196861	-0.196861	0.714844	0.855469	0.550781	163	16_54_07_2700270
-0.096680	-0.700195	-0.120117	-0.206235	0.187486	-0.196861	0.691406	0.890625	0.503906	164	16_54_07_2861560
-0.090820	-0.711914	-0.117188	-0.206235	0.187486	-0.196861	0.679688	0.902344	0.480469	165	16_54_07_3022850
-0.084961	-0.708984	-0.105469	-0.206235	0.178112	-0.187486	0.703125	0.914063	0.539063	166	16_54_07_3184140
-0.099609	-0.711914	-0.108398	-0.206235	0.178112	-0.196861	0.691406	0.878906	0.550781	167	16_54_07_3345430
-0.096680	-0.711914	-0.102539	-0.206235	0.178112	-0.187486	0.691406	0.890625	0.515625	168	16_54_07_3506720
-0.087891	-0.711914	-0.102539	-0.196861	0.187486	-0.187486	0.691406	0.796875	0.515625	169	16_54_07_3668010
-0.096680	-0.720703	-0.105469	-0.206235	0.187486	-0.196861	0.703125	0.867188	0.527344	170	16_54_07_3829300
-0.087891	-0.706055	-0.102539	-0.206235	0.187486	-0.187486	0.703125	1.125000	0.574219	171	16_54_07_3990590
-0.087891	-0.714844	-0.111328	-0.206235	0.178112	-0.187486	0.679688	0.937500	0.527344	172	16_54_07_4151880
-0.084961	-0.711914	-0.105469	-0.206235	0.187486	-0.187486	0.679688	0.890625	0.562500	173	16_54_07_4313170
-0.090820	-0.711914	-0.102539	-0.206235	0.187486	-0.196861	0.679688	0.984375	0.550781	174	16_54_07_4474460
-0.090820	-0.708984	-0.105469	-0.206235	0.187486	-0.196861	0.679688	0.855469	0.527344	175	16_54_07_4635750
-0.079102	-0.708984	-0.105469	-0.206235	0.187486	-0.187486	0.691406	0.785156	0.503906	176	16_54_07_4797040
-0.084961	-0.708984	-0.120117	-0.206235	0.187486	-0.196861	0.691406	0.914063	0.492188	177	16_54_07_4958330
-0.076172	-0.714844	-0.108398	-0.206235	0.196861	-0.196861	0.656250	0.902344	0.550781	178	16_54_07_5119620
-0.096680	-0.720703	-0.105469	-0.206235	0.196861	-0.196861	0.667969	0.937500	0.550781	179	16_54_07_5280910
-0.082031	-0.714844	-0.114258	-0.206235	0.187486	-0.196861	0.679688	0.902344	0.515625	180	16_54_07_5442200
-0.070313	-0.708984	-0.114258	-0.206235	0.187486	-0.196861	0.691406	0.796875	0.480469	181	16_54_07_5603490
-0.076172	-0.711914	-0.108398	-0.206235	0.187486	-0.196861	0.703125	0.925781	0.515625	182	16_54_07_5764780
-0.082031	-0.714844	-0.117188	-0.206235	0.187486	-0.196861	0.691406	0.984375	0.539063	183	16_54_07_5926070
-0.090820	-0.711914	-0.108398	-0.206235	0.187486	-0.196861	0.691406	0.890625	0.527344	184	16_54_07_6087360
-0.076172	-0.708984	-0.114258	-0.206235	0.187486	-0.196861	0.703125	0.820313	0.503906	185	16_54_07_6248650
-0.087891	-0.708984	-0.105469	-0.206235	0.187486	-0.196861	0.691406	0.843750	0.503906	186	16_54_07_6409940
-0.082031	-0.697266	-0.108398	-0.206235	0.196861	-0.196861	0.679688	0.832031	0.539063	187	16_54_07_6571230
-0.099609	-0.697266	-0.111328	-0.206235	0.187486	-0.196861	0.703125	0.890625	0.515625	188	16_54_07_6732520
-0.096680	-0.703125	-0.114258	-0.206235	0.187486	-0.196861	0.691406	0.878906	0.480469	189	16_54_07_6893810
-0.096680	-0.703125	-0.108398	-0.206235	0.187486	-0.196861	0.667969	0.890625	0.503906	190	16_54_07_7055100
-0.087891	-0.688477	-0.105469	-0.206235	0.187486	-0.196861	0.679688	0.890625	0.539063	191	16_54_07_7216390
-0.093750	-0.703125	-0.102539	-0.196861	0.187486	-0.187486	0.679688	0.914063	0.527344	192	16_54_07_7377680
-0.111328	-0.697266	-0.111328	-0.196861	0.187486	-0.187486	0.691406	0.867188	0.515625	193	16_54_07_7538970
-0.093750	-0.723633	-0.111328	-0.187486	0.178112	-0.187486	0.679688	0.890625	0.492188	194	16_54_07_7700260
-0.111328	-0.703125	-0.111328	-0.196861	0.187486	-0.178112	0.679688	0.937500	0.480469	195	16_54_07_7861550
-0.096680	-0.708984	-0.114258	-0.196861	0.178112	-0.178112	0.714844	0.960938	0.480469	196	16_54_07_8022840
-0.090820	-0.720703	-0.114258	-0.187486	0.178112	-0.178112	0.703125	0.914063	0.527344	197	16_54_07_8184130
-0.087891	-0.708984	-0.111328	-0.196861	0.178112	-0.178112	0.679688	0.855469	0.550781	198	16_54_07_8345420
-0.079102	-0.708984	-0.108398	-0.196861	0.187486	-0.178112	0.691406	0.867188	0.515625	199	16_54_07_8506710
-0.087891	-0.714844	-0.117188	-0.206235	0.178112	-0.187486	0.679688	0.914063	0.492188	200	16_54_07_8668000
-0.079102	-0.723633	-0.120117	-0.206235	0.187486	-0.187486	0.679688	0.902344	0.445313	201	16_54_07_8829290
-0.073242	-0.720703	-0.111328	-0.206235	0.187486	-0.196861	0.679688	0.855469	0.433594	202	16_54_07_8990580
-0.064453	-0.711914	-0.114258	-0.206235	0.187486	-0.196861	0.703125	0.890625	0.468750	203	16_54_07_9151870
-0.070313	-0.711914	-0.117188	-0.206235	0.196861	-0.196861	0.691406	0.890625	0.492188	204	16_54_07_9313160
-0.082031	-0.703125	-0.111328	-0.206235	0.196861	-0.196861	0.691406	0.890625	0.527344	205	16_54_07_9474450
-0.073242	-0.708984	-0.114258	-0.206235	0.187486	-0.196861	0.679688	0.902344	0.550781	206	16_54_07_9635740
-0.070313	-0.714844	-0.125977	-0.206235	0.196861	-0.196861	0.691406	0.890625	0.515625	207	16_54_07_9797030
-0.079102	-0.708984	-0.117188	-0.206235	0.187486	-0.196861	0.691406	0.937500	0.492188	208	16_54_07_9958320
-0.090820	-0.708984	-0.114258	-0.206235	0.187486	-0.196861	0.832031	1.125000	0.539063	209	16_54_08_0119610
-0.084961	-0.711914	-0.123047	-0.206235	0.187486	-0.196861	0.691406	0.867188	0.527344	210	16_54_08_0280900
-0.093750	-0.708984	-0.125977	-0.206235	0.187486	-0.187486	0.703125	0.914063	0.503906	211	16_54_08_0442190
-0.087891	-0.706055	-0.125977	-0.206235	0.178112	-0.187486	0.691406	0.925781	0.515625	212	16_54_08_0603480
-0.087891	-0.711914	-0.120117	-0.206235	0.178112	-0.196861	0.679688	0.914063	0.562500	213	16_54_08_0764770
-0.082031	-0.714844	-0.111328	-0.206235	0.178112	-0.196861	0.679688	0.902344	0.527344	214	16_54_08_0926060
-0.079102	-0.703125	-0.117188	-0.206235	0.187486	-0.196861	0.691406	0.867188	0.480469	215	16_54_08_1087350
-0.067383	-0.703125	-0.111328	-0.206235	0.187486	-0.196861	0.691406	0.843750	0.503906	216	16_54_08_1248640
-0.064453	-0.708984	-0.114258	-0.206235	0.187486	-0.196861	0.703125	0.832031	0.515625	217	16_54_08_1409930
-0.087891	-0.708984	-0.114258	-0.206235	0.196861	-0.196861	0.691406	0.867188	0.503906	218	16_54_08_1571220
-0.082031	-0.720703	-0.114258	-0.206235	0.187486	-0.196861	0.703125	0.890625	0.492188	219	16_54_08_1732510
-0.076172	-0.726563	-0.117188	-0.206235	0.187486	-0.196861	0.691406	0.902344	0.503906	220	16_54_08_1893800
-0.070313	-0.708984	-0.123047	-0.206235	0.196861	-0.196861	0.667969	0.867188	0.539063	221	16_54_08_2055090
-0.087891	-0.708984	-0.114258	-0.206235	0.196861	-0.196861	0.691406	0.867188	0.550781	222	16_54_08_2216380
-0.090820	-0.708984	-0.114258	-0.206235	0.196861	-0.196861	0.679688	0.843750	0.527344	223	16_54_08_2377670
-0.082031	-0.714844	-0.114258	-0.206235	0.196861	-0.196861	0.679688	0.890625	0.515625	224	16_54_08_2538960
-0.079102	-0.708984	-0.114258	-0.206235	0.196861	-0.196861	0.679688	0.937500	0.527344	225	16_54_08_2700250
-0.096680	-0.714844	-0.114258	-0.206235	0.206235	-0.196861	0.679688	0.867188	0.503906	226	16_54_08_2861540
-0.079102	-0.708984	-0.114258	-0.215609	0.196861	-0.196861	0.679688	0.843750	0.492188	227	16_54_08_3022830
-0.082031	-0.708984	-0.108398	-0.206235	0.196861	-0.196861	0.691406	0.820313	0.515625	228	16_54_08_3184120
-0.079102	-0.714844	-0.123047	-0.215609	0.196861	-0.196861	0.656250	0.867188	0.503906	229	16_54_08_3345410
-0.082031	-0.711914	-0.111328	-0.215609	0.196861	-0.196861	0.691406	0.867188	0.539063	230	16_54_08_3506700
-0.087891	-0.717773	-0.114258	-0.206235	0.196861	-0.196861	0.667969	0.878906	0.503906	231	16_54_08_3667990
-0.079102	-0.697266	-0.120117	-0.206235	0.187486	-0.196861	0.679688	0.878906	0.515625	232	16_54_08_3829280
-0.090820	-0.703125	-0.114258	-0.206235	0.187486	-0.196861	0.679688	0.843750	0.539063	233	16_54_08_3990570
-0.082031	-0.703125	-0.123047	-0.206235	0.187486	-0.196861	0.726563	0.949219	0.527344	234	16_54_08_4151860
-0.079102	-0.700195	-0.123047	-0.206235	0.187486	-0.196861	0.679688	0.878906	0.550781	235	16_54_08_4313150
-0.082031	-0.711914	-0.120117	-0.206235	0.187486	-0.196861	0.667969	0.796875	0.550781	236	16_54_08_4474440
-0.082031	-0.708984	-0.105469	-0.206235	0.187486	-0.196861	0.691406	0.785156	0.503906	237	16_54_08_4635730
-0.079102	-0.714844	-0.111328	-0.206235	0.187486	-0.196861	0.691406	0.855469	0.503906	238	16_54_08_4797020
-0.079102	-0.711914	-0.117188	-0.206235	0.187486	-0.196861	0.691406	0.925781	0.503906	239	16_54_08_4958310
-0.087891	-0.703125	-0.114258	-0.206235	0.187486	-0.196861	0.679688	0.914063	0.503906	240	16_54_08_5119600
-0.082031	-0.703125	-0.120117	-0.206235	0.187486	-0.196861	0.691406	0.914063	0.527344	241	16_54_08_5280890
-0.076172	-0.706055	-0.111328	-0.206235	0.187486	-0.196861	0.691406	0.937500	0.503906	242	16_54_08_5442180
-0.084961	-0.708984	-0.111328	-0.206235	0.187486	-0.196861	0.679688	0.878906	0.515625	243	16_54_08_5603470
-0.076172	-0.711914	-0.111328	-0.206235	0.187486	-0.196861	0.656250	0.890625	0.515625	244	16_54_08_5764760
-0.087891	-0.706055	-0.123047	-0.206235	0.187486	-0.196861	0.691406	0.890625	0.480469	245	16_54_08_5926050
-0.079102	-0.706055	-0.123047	-0.196861	0.187486	-0.196861	0.679688	0.937500	0.527344	246	16_54_08_6087340
-0.079102	-0.714844	-0.114258	-0.206235	0.187486	-0.196861	0.691406	0.937500	0.539063	247	16_54_08_6248630
-0.073242	-0.717773	-0.105469	-0.206235	0.187486	-0.196861	0.691406	0.984375	0.480469	248	16_54_08_6409920
-0.090820	-0.711914	-0.117188	-0.206235	0.196861	-0.196861	0.703125	0.937500	0.492188	249	16_54_08_6571210
-0.082031	-0.706055	-0.120117	-0.206235	0.196861	-0.196861	0.691406	0.937500	0.527344	250	16_54_08_6732500
-0.079102	-0.703125	-0.111328	-0.206235	0.187486	-0.196861	0.691406	0.914063	0.539063	251	16_54_08_6893790
-0.076172	-0.711914	-0.105469	-0.206235	0.187486	-0.196861	0.773438	1.042969	0.515625	252	16_54_08_7055080
-0.067383	-0.703125	-0.123047	-0.206235	0.187486	-0.196861	0.667969	0.914063	0.503906	253	16_54_08_7216370
-0.070313	-0.723633	-0.114258	-0.206235	0.187486	-0.196861	0.691406	0.937500	0.527344	254	16_54_08_7377660
-0.082031	-0.706055	-0.120117	-0.206235	0.187486	-0.196861	0.703125	0.867188	0.527344	255	16_54_08_7538950
-0.076172	-0.711914	-0.117188	-0.206235	0.187486	-0.196861	0.691406	0.832031	0.503906	256	16_54_08_7700240
-0.084961	-0.706055	-0.120117	-0.206235	0.196861	-0.196861	0.691406	0.832031	0.492188	257	16_54_08_7861530
-0.087891	-0.714844	-0.123047	-0.206235	0.187486	-0.196861	0.691406	0.785156	0.480469	258	16_54_08_8022820
-0.082031	-0.706055	-0.117188	-0.215609	0.187486	-0.196861	0.691406	0.808594	0.480469	259	16_54_08_8184110
-0.079102	-0.700195	-0.114258	-0.215609	0.187486	-0.196861	0.691406	0.937500	0.468750	260	16_54_08_8345400
-0.070313	-0.697266	-0.111328	-0.206235	0.187486	-0.196861	0.691406	0.902344	0.457031	261	16_54_08_8506690
-0.079102	-0.700195	-0.128906	-0.215609	0.187486	-0.196861	0.691406	0.890625	0.492188	262	16_54_08_8667980
-0.076172	-0.706055	-0.117188	-0.206235	0.187486	-0.196861	0.679688	0.914063	0.492188	263	16_54_08_8829270
-0.079102	-0.708984	-0.120117	-0.206235	0.187486	-0.196861	0.667969	0.914063	0.492188	264	16_54_08_8990560
-0.082031	-0.708984	-0.120117	-0.206235	0.187486	-0.196861	0.691406	0.925781	0.527344	265	16_54_08_9151850
-0.084961	-0.708984	-0.114258	-0.206235	0.187486	-0.196861	0.703125	0.914063	0.503906	266	16_54_08_9313140
-0.076172	-0.708984	-0.123047	-0.206235	0.187486	-0.196861	0.667969	0.785156	0.492188	267	16_54_08_9474430
-0.067383	-0.708984	-0.108398	-0.206235	0.187486	-0.196861	0.679688	0.773438	0.503906	268	16_54_08_9635720
-0.084961	-0.708984	-0.120117	-0.206235	0.187486	-0.187486	0.679688	0.820313	0.503906	269	16_54_08_9797010
-0.087891	-0.697266	-0.108398	-0.206235	0.187486	-0.196861	0.679688	0.855469	0.527344	270	16_54_08_9958300
-0.076172	-0.708984	-0.117188	-0.206235	0.187486	-0.196861	0.703125	0.937500	0.539063	271	16_54_09_0119590
-0.079102	-0.711914	-0.114258	-0.206235	0.196861	-0.196861	0.667969	0.914063	0.562500	272	16_54_09_0280880
-0.087891	-0.714844	-0.114258	-0.206235	0.187486	-0.196861	0.679688	0.890625	0.539063	273	16_54_09_0442170
-0.082031	-0.708984	-0.120117	-0.206235	0.196861	-0.196861	0.691406	0.937500	0.539063	274	16_54_09_0603460
-0.082031	-0.700195	-0.111328	-0.206235	0.187486	-0.206235	0.632813	0.914063	0.527344	275	16_54_09_0764750
-0.076172	-0.708984	-0.111328	-0.206235	0.187486	-0.196861	0.667969	0.796875	0.515625	276	16_54_09_0926040
-0.076172	-0.708984	-0.117188	-0.215609	0.196861	-0.196861	0.667969	0.855469	0.480469	277	16_54_09_1087330
-0.084961	-0.697266	-0.125977	-0.206235	0.187486	-0.196861	0.691406	0.902344	0.480469	278	16_54_09_1248620
-0.082031	-0.706055	-0.105469	-0.206235	0.187486	-0.196861	0.691406	0.890625	0.539063	279	16_54_09_1409910
-0.087891	-0.703125	-0.125977	-0.206235	0.187486	-0.196861	0.691406	0.937500	0.527344	280	16_54_09_1571200
-0.096680	-0.714844	-0.123047	-0.206235	0.187486	-0.196861	0.621094	0.902344	0.492188	281	16_54_09_1732490
-0.079102	-0.708984	-0.114258	-0.206235	0.187486	-0.196861	0.703125	0.820313	0.527344	282	16_54_09_1893780
-0.076172	-0.711914	-0.120117	-0.206235	0.187486	-0.196861	0.667969	0.914063	0.492188	283	16_54_09_2055070
-0.076172	-0.703125	-0.120117	-0.206235	0.187486	-0.196861	0.703125	0.890625	0.445313	284	16_54_09_2216360
-0.082031	-0.708984	-0.114258	-0.206235	0.187486	-0.196861	0.691406	0.855469	0.527344	285	16_54_09_2377650
-0.084961	-0.706055	-0.125977	-0.206235	0.178112	-0.196861	0.691406	0.820313	0.562500	286	16_54_09_2538940
-0.082031	-0.697266	-0.117188	-0.206235	0.187486	-0.196861	0.703125	0.878906	0.527344	287	16_54_09_2700230
-0.079102	-0.720703	-0.117188	-0.206235	0.187486	-0.196861	0.679688	0.820313	0.503906	288	16_54_09_2861520
-0.082031	-0.708984	-0.117188	-0.206235	0.196861	-0.196861	0.667969	0.925781	0.515625	289	16_54_09_3022810
-0.087891	-0.720703	-0.117188	-0.206235	0.187486	-0.196861	0.656250	0.925781	0.503906	290	16_54_09_3184100
-0.076172	-0.703125	-0.114258	-0.206235	0.187486	-0.196861	0.691406	0.855469	0.492188	291	16_54_09_3345390
-0.082031	-0.703125	-0.111328	-0.206235	0.187486	-0.196861	0.703125	0.937500	0.539063	292	16_54_09_3506680
-0.084961	-0.714844	-0.120117	-0.206235	0.187486	-0.196861	0.691406	0.925781	0.515625	293	16_54_09_3667970
-0.076172	-0.700195	-0.120117	-0.206235	0.187486	-0.196861	0.679688	0.914063	0.480469	294	16_54_09_3829260
-0.084961	-0.708984	-0.123047	-0.206235	0.187486	-0.196861	0.644531	0.902344	0.480469	295	16_54_09_3990550
-0.082031	-0.708984	-0.114258	-0.215609	0.187486	-0.196861	0.691406	0.890625	0.515625	296	16_54_09_4151840
-0.067383	-0.708984	-0.108398	-0.206235	0.187486	-0.196861	0.667969	0.843750	0.527344	297	16_54_09_4313130
-0.079102	-0.703125	-0.114258	-0.206235	0.187486	-0.196861	0.679688	0.843750	0.515625	298	16_54_09_4474420
-0.084961	-0.720703	-0.120117	-0.206235	0.187486	-0.196861	0.667969	0.890625	0.527344	299	16_54_09_4635710
-0.076172	-0.711914	-0.123047	-0.206235	0.187486	-0.196861	0.691406	0.867188	0.503906	300	16_54_09_4797000
-0.084961	-0.703125	-0.117188	-0.206235	0.187486	-0.196861	0.679688	0.914063	0.457031	301	16_54_09_4958290
-0.079102	-0.706055	-0.114258	-0.206235	0.187486	-0.196861	0.691406	0.890625	0.457031	302	16_54_09_5119580
-0.082031	-0.708984	-0.114258	-0.206235	0.187486	-0.196861	0.679688	0.820313	0.503906	303	16_54_09_5280870
-0.084961	-0.708984	-0.105469	-0.206235	0.187486	-0.196861	0.691406	0.843750	0.527344	304	16_54_09_5442160
-0.082031	-0.703125	-0.114258	-0.206235	0.187486	-0.196861	0.761719	0.960938	0.515625	305	16_54_09_5603450
-0.073242	-0.697266	-0.114258	-0.206235	0.187486	-0.196861	0.691406	0.960938	0.457031	306	16_54_09_5764740
-0.073242	-0.714844	-0.123047	-0.206235	0.187486	-0.187486	0.667969	0.902344	0.480469	307	16_54_09_5926030
-0.079102	-0.708984	-0.117188	-0.206235	0.187486	-0.196861	0.644531	0.843750	0.527344	308	16_54_09_6087320
-0.073242	-0.714844	-0.123047	-0.206235	0.187486	-0.196861	0.667969	0.843750	0.562500	309	16_54_09_6248610
-0.087891	-0.703125	-0.114258	-0.206235	0.187486	-0.196861	0.632813	0.890625	0.515625	310	16_54_09_6409900
-0.079102	-0.711914	-0.120117	-0.206235	0.187486	-0.187486	0.667969	0.914063	0.527344	311	16_54_09_6571190
-0.076172	-0.708984	-0.120117	-0.206235	0.187486	-0.196861	0.679688	0.843750	0.539063	312	16_54_09_6732480
-0.073242	-0.714844	-0.120117	-0.206235	0.187486	-0.196861	0.667969	0.867188	0.503906	313	16_54_09_6893770
-0.082031	-0.708984	-0.120117	-0.206235	0.187486	-0.196861	0.691406	1.019531	0.480469	314	16_54_09_7055060
-0.079102	-0.700195	-0.114258	-0.206235	0.187486	-0.196861	0.667969	0.890625	0.515625	315	16_54_09_7216350
-0.079102	-0.720703	-0.123047	-0.206235	0.187486	-0.196861	0.726563	0.937500	0.539063	316	16_54_09_7377640
-0.079102	-0.700195	-0.114258	-0.206235	0.187486	-0.196861	0.667969	0.960938	0.503906	317	16_54_09_7538930
-0.084961	-0.720703	-0.120117	-0.206235	0.187486	-0.196861	0.667969	0.914063	0.503906	318	16_54_09_7700220
-0.079102	-0.711914	-0.123047	-0.206235	0.187486	-0.196861	0.679688	0.890625	0.492188	319	16_54_09_7861510
-0.087891	-0.708984	-0.111328	-0.206235	0.187486	-0.196861	0.679688	0.914063	0.480469	320	16_54_09_8022800
-0.076172	-0.708984	-0.114258	-0.206235	0.187486	-0.196861	0.691406	0.925781	0.515625	321	16_54_09_8184090
-0.073242	-0.711914	-0.111328	-0.206235	0.187486	-0.196861	0.703125	0.937500	0.503906	322	16_54_09_8345380
-0.076172	-0.711914	-0.120117	-0.206235	0.187486	-0.196861	0.667969	0.890625	0.480469	323	16_54_09_8506670
-0.070313	-0.708984	-0.120117	-0.206235	0.187486	-0.196861	0.691406	0.890625	0.492188	324	16_54_09_8667960
-0.082031	-0.703125	-0.125977	-0.206235	0.187486	-0.196861	0.714844	0.890625	0.480469	325	16_54_09_8829250
-0.073242	-0.697266	-0.120117	-0.206235	0.187486	-0.196861	0.691406	0.890625	0.503906	326	16_54_09_8990540
-0.073242	-0.703125	-0.114258	-0.206235	0.187486	-0.196861	0.703125	0.843750	0.503906	327	16_54_09_9151830
-0.067383	-0.714844	-0.123047	-0.206235	0.187486	-0.196861	0.667969	0.914063	0.503906	328	16_54_09_9313120
-0.079102	-0.708984	-0.125977	-0.206235	0.187486	-0.196861	0.667969	0.890625	0.539063	329	16_54_09_9474410
-0.076172	-0.703125	-0.117188	-0.206235	0.187486	-0.196861	0.691406	0.937500	0.550781	330	16_54_09_9635700
-0.079102	-0.706055	-0.114258	-0.206235	0.187486	-0.196861	0.644531	0.867188	0.539063	331	16_54_09_9796990
-0.076172	-0.714844	-0.111328	-0.206235	0.187486	-0.196861	0.667969	0.890625	0.527344	332	16_54_09_9958280
-0.079102	-0.706055	-0.114258	-0.206235	0.187486	-0.196861	0.667969	0.937500	0.539063	333	16_54_10_0119570
-0.079102	-0.706055	-0.114258	-0.206235	0.187486	-0.187486	0.667969	0.902344	0.539063	334	16_54_10_0280860
-0.076172	-0.714844	-0.111328	-0.206235	0.187486	-0.196861	0.691406	0.890625	0.515625	335	16_54_10_0442150
-0.079102	-0.714844	-0.111328	-0.206235	0.187486	-0.196861	0.632813	0.914063	0.480469	336	16_54_10_0603440
-0.076172	-0.703125	-0.114258	-0.206235	0.187486	-0.196861	0.667969	0.902344	0.515625	337	16_54_10_0764730
-0.084961	-0.703125	-0.111328	-0.206235	0.187486	-0.196861	0.679688	0.890625	0.503906	338	16_54_10_0926020
-0.079102	-0.708984	-0.123047	-0.206235	0.178112	-0.196861	0.691406	0.832031	0.503906	339	16_54_10_1087310
-0.079102	-0.723633	-0.105469	-0.206235	0.187486	-0.196861	0.703125	0.878906	0.550781	340	16_54_10_1248600
-0.076172	-0.711914	-0.120117	-0.206235	0.178112	-0.196861	0.644531	0.855469	0.527344	341	16_54_10_1409890
-0.073242	-0.708984	-0.120117	-0.206235	0.187486	-0.196861	0.691406	0.855469	0.492188	342	16_54_10_1571180
-0.079102	-0.700195	-0.111328	-0.206235	0.187486	-0.196861	0.691406	0.914063	0.457031	343	16_54_10_1732470
-0.070313	-0.708984	-0.117188	-0.206235	0.187486	-0.196861	0.691406	0.890625	0.515625	344	16_54_10_1893760
-0.084961	-0.714844	-0.120117	-0.206235	0.187486	-0.196861	0.726563	0.937500	0.574219	345	16_54_10_2055050
-0.082031	-0.714844	-0.120117	-0.206235	0.187486	-0.196861	0.667969	0.914063	0.550781	346	16_54_10_2216340
-0.076172	-0.706055	-0.117188	-0.206235	0.187486	-0.196861	0.679688	0.914063	0.503906	347	16_54_10_2377630
-0.082031	-0.708984	-0.114258	-0.206235	0.187486	-0.196861	0.691406	0.890625	0.468750	348	16_54_10_2538920
-0.079102	-0.706055	-0.111328	-0.206235	0.187486	-0.196861	0.679688	0.890625	0.515625	349	16_54_10_2700210
-0.073242	-0.706055	-0.114258	-0.206235	0.187486	-0.196861	0.726563	0.996094	0.515625	350	16_54_10_2861500
-0.076172	-0.711914	-0.111328	-0.206235	0.187486	-0.196861	0.691406	0.914063	0.503906	351	16_54_10_3022790
-0.082031	-0.714844	-0.125977	-0.206235	0.187486	-0.196861	0.679688	0.867188	0.515625	352	16_54_10_3184080
-0.073242	-0.708984	-0.114258	-0.206235	0.187486	-0.196861	0.679688	0.960938	0.515625	353	16_54_10_3345370
-0.084961	-0.706055	-0.117188	-0.206235	0.187486	-0.196861	0.679688	0.878906	0.515625	354	16_54_10_3506660
-0.076172	-0.714844	-0.114258	-0.206235	0.187486	-0.196861	0.703125	0.890625	0.503906	355	16_54_10_3667950
-0.079102	-0.706055	-0.114258	-0.206235	0.187486	-0.196861	0.679688	0.972656	0.492188	356	16_54_10_3829240
-0.067383	-0.717773	-0.117188	-0.206235	0.187486	-0.196861	0.679688	1.007813	0.503906	357	16_54_10_3990530
-0.070313	-0.708984	-0.120117	-0.206235	0.187486	-0.196861	0.714844	0.949219	0.527344	358	16_54_10_4151820
-0.076172	-0.706055	-0.111328	-0.206235	0.187486	-0.196861	0.667969	0.960938	0.550781	359	16_54_10_4313110
-0.087891	-0.703125	-0.114258	-0.206235	0.187486	-0.196861	0.667969	0.937500	0.562500	360	16_54_10_4474400
-0.082031	-0.697266	-0.108398	-0.206235	0.187486	-0.196861	0.679688	0.914063	0.574219	361	16_54_10_4635690
-0.076172	-0.711914	-0.120117	-0.206235	0.187486	-0.196861	0.667969	0.914063	0.527344	362	16_54_10_4796980
-0.070313	-0.708984	-0.105469	-0.206235	0.187486	-0.196861	0.667969	0.878906	0.527344	363	16_54_10_4958270
-0.076172	-0.714844	-0.111328	-0.206235	0.187486	-0.196861	0.667969	0.855469	0.539063	364	16_54_10_5119560
-0.076172	-0.706055	-0.117188	-0.206235	0.196861	-0.196861	0.679688	0.843750	0.527344	365	16_54_10_5280850
-0.073242	-0.703125	-0.114258	-0.206235	0.187486	-0.196861	0.691406	0.937500	0.515625	366	16_54_10_5442140
-0.079102	-0.703125	-0.114258	-0.206235	0.196861	-0.196861	0.691406	0.914063	0.539063	367	16_54_10_5603430
-0.070313	-0.714844	-0.108398	-0.206235	0.187486	-0.196861	0.667969	0.878906	0.527344	368	16_54_10_5764720
-0.084961	-0.697266	-0.120117	-0.206235	0.187486	-0.196861	0.691406	1.042969	0.539063	369	16_54_10_5926010
-0.084961	-0.708984	-0.120117	-0.206235	0.187486	-0.196861	0.679688	0.902344	0.539063	370	16_54_10_6087300
-0.084961	-0.723633	-0.117188	-0.206235	0.196861	-0.196861	0.679688	0.902344	0.527344	371	16_54_10_6248590
-0.090820	-0.708984	-0.117188	-0.206235	0.187486	-0.196861	0.691406	0.914063	0.503906	372	16_54_10_6409880
-0.079102	-0.717773	-0.114258	-0.206235	0.187486	-0.196861	0.691406	0.960938	0.492188	373	16_54_10_6571170
-0.079102	-0.703125	-0.117188	-0.206235	0.187486	-0.196861	0.679688	0.984375	0.515625	374	16_54_10_6732460
-0.064453	-0.706055	-0.114258	-0.206235	0.187486	-0.196861	0.679688	0.914063	0.527344	375	16_54_10_6893750
-0.076172	-0.703125	-0.117188	-0.206235	0.187486	-0.196861	0.703125	0.878906	0.550781	376	16_54_10_7055040
-0.076172	-0.711914	-0.117188	-0.206235	0.187486	-0.196861	0.691406	0.867188	0.515625	377	16_54_10_7216330
-0.064453	-0.703125	-0.114258	-0.206235	0.196861	-0.196861	0.691406	0.867188	0.515625	378	16_54_10_7377620
-0.079102	-0.711914	-0.111328	-0.206235	0.196861	-0.196861	0.714844	0.890625	0.527344	379	16_54_10_7538910
-0.084961	-0.703125	-0.117188	-0.206235	0.196861	-0.196861	0.679688	0.902344	0.503906	380	16_54_10_7700200
-0.082031	-0.708984	-0.108398	-0.206235	0.187486	-0.187486	0.667969	0.972656	0.539063	381	16_54_10_7861490
-0.076172	-0.708984	-0.114258	-0.206235	0.187486	-0.196861	0.679688	0.902344	0.550781	382	16_54_10_8022780
-0.076172	-0.708984	-0.111328	-0.206235	0.187486	-0.196861	0.691406	0.925781	0.503906	383	16_54_10_8184070
-0.076172	-0.711914	-0.105469	-0.206235	0.187486	-0.196861	0.679688	0.855469	0.480469	384	16_54_10_8345360
-0.076172	-0.708984	-0.114258	-0.206235	0.187486	-0.196861	0.667969	0.855469	0.480469	385	16_54_10_8506650
-0.079102	-0.711914	-0.114258	-0.206235	0.187486	-0.196861	0.691406	0.972656	0.468750	386	16_54_10_8667940
-0.076172	-0.711914	-0.117188	-0.206235	0.187486	-0.196861	0.691406	0.937500	0.503906	387	16_54_10_8829230
-0.076172	-0.717773	-0.117188	-0.206235	0.187486	-0.196861	0.761719	1.078125	0.562500	388	16_54_10_8990520
-0.064453	-0.708984	-0.117188	-0.206235	0.196861	-0.196861	0.714844	0.949219	0.574219	389	16_54_10_9151810
-0.082031	-0.703125	-0.125977	-0.206235	0.196861	-0.196861	0.691406	0.925781	0.527344	390	16_54_10_9313100
-0.082031	-0.720703	-0.123047	-0.206235	0.196861	-0.196861	0.667969	0.843750	0.492188	391	16_54_10_9474390
-0.076172	-0.706055	-0.114258	-0.206235	0.187486	-0.196861	0.679688	0.843750	0.457031	392	16_54_10_9635680
-0.076172	-0.708984	-0.111328	-0.206235	0.187486	-0.196861	0.691406	0.796875	0.480469	393	16_54_10_9796970
-0.067383	-0.708984	-0.120117	-0.206235	0.187486	-0.196861	0.656250	0.867188	0.515625	394	16_54_10_9958260
-0.084961	-0.711914	-0.114258	-0.206235	0.187486	-0.196861	0.679688	0.925781	0.527344	395	16_54_11_0119550
-0.076172	-0.711914	-0.117188	-0.206235	0.187486	-0.196861	0.691406	0.890625	0.527344	396	16_54_11_0280840
-0.079102	-0.714844	-0.123047	-0.206235	0.187486	-0.196861	0.679688	0.890625	0.503906	397	16_54_11_0442130
-0.076172	-0.720703	-0.114258	-0.206235	0.178112	-0.196861	0.644531	0.902344	0.480469	398	16_54_11_0603420
-0.076172	-0.714844	-0.111328	-0.206235	0.178112	-0.196861	0.738281	1.066406	0.597656	399	16_54_11_0764710
-0.079102	-0.711914	-0.114258	-0.206235	0.187486	-0.196861	0.691406	0.914063	0.527344	400	16_54_11_0926000
-0.079102	-0.706055	-0.114258	-0.206235	0.187486	-0.187486	0.667969	0.890625	0.503906	401	16_54_11_1087290
-0.073242	-0.708984	-0.123047	-0.206235	0.187486	-0.196861	0.667969	0.937500	0.515625	402	16_54_11_1248580
-0.076172	-0.706055	-0.111328	-0.206235	0.187486	-0.196861	0.667969	0.925781	0.527344	403	16_54_11_1409870
-0.076172	-0.720703	-0.111328	-0.206235	0.187486	-0.196861	0.691406	1.007813	0.515625	404	16_54_11_1571160
-0.076172	-0.711914	-0.120117	-0.206235	0.196861	-0.196861	0.761719	1.078125	0.539063	405	16_54_11_1732450
-0.076172	-0.708984	-0.120117	-0.206235	0.196861	-0.196861	0.679688	0.914063	0.527344	406	16_54_11_1893740
-0.067383	-0.711914	-0.125977	-0.206235	0.187486	-0.196861	0.667969	0.902344	0.503906	407	16_54_11_2055030
-0.090820	-0.700195	-0.123047	-0.206235	0.187486	-0.196861	0.679688	0.914063	0.527344	408	16_54_11_2216320
-0.082031	-0.711914	-0.117188	-0.206235	0.187486	-0.196861	0.667969	0.855469	0.562500	409	16_54_11_2377610
-0.082031	-0.714844	-0.111328	-0.215609	0.187486	-0.196861	0.679688	0.808594	0.550781	410	16_54_11_2538900
-0.079102	-0.703125	-0.111328	-0.206235	0.187486	-0.196861	0.667969	0.867188	0.550781	411	16_54_11_2700190
-0.079102	-0.697266	-0.123047	-0.206235	0.187486	-0.196861	0.691406	0.867188	0.550781	412	16_54_11_2861480
-0.076172	-0.714844	-0.108398	-0.206235	0.187486	-0.196861	0.691406	0.843750	0.492188	413	16_54_11_3022770
-0.084961	-0.708984	-0.123047	-0.206235	0.187486	-0.196861	0.667969	0.808594	0.468750	414	16_54_11_3184060
-0.093750	-0.714844	-0.114258	-0.206235	0.187486	-0.196861	0.691406	0.890625	0.480469	415	16_54_11_3345350
-0.070313	-0.708984	-0.117188	-0.206235	0.187486	-0.196861	0.703125	0.960938	0.492188	416	16_54_11_3506640
-0.070313	-0.700195	-0.117188	-0.206235	0.187486	-0.196861	0.890625	1.171875	0.539063	417	16_54_11_3667930
-0.079102	-0.714844	-0.111328	-0.206235	0.187486	-0.196861	0.667969	0.914063	0.527344	418	16_54_11_3829220
-0.076172	-0.708984	-0.111328	-0.206235	0.187486	-0.196861	0.679688	0.984375	0.539063	419	16_54_11_3990510
-0.079102	-0.720703	-0.114258	-0.206235	0.187486	-0.196861	0.691406	0.925781	0.539063	420	16_54_11_4151800
-0.076172	-0.714844	-0.128906	-0.215609	0.187486	-0.196861	0.691406	0.820313	0.503906	421	16_54_11_4313090
-0.073242	-0.711914	-0.120117	-0.206235	0.196861	-0.196861	0.691406	0.914063	0.480469	422	16_54_11_4474380
-0.082031	-0.706055	-0.120117	-0.206235	0.196861	-0.196861	0.714844	0.867188	0.457031	423	16_54_11_4635670
-0.070313	-0.714844	-0.117188	-0.206235	0.187486	-0.196861	0.667969	0.773438	0.457031	424	16_54_11_4796960
-0.067383	-0.714844	-0.123047	-0.206235	0.187486	-0.196861	0.679688	0.902344	0.492188	425	16_54_11_4958250
-0.079102	-0.706055	-0.120117	-0.206235	0.187486	-0.196861	0.691406	0.960938	0.527344	426	16_54_11_5119540
-0.082031	-0.711914	-0.120117	-0.206235	0.187486	-0.196861	0.691406	0.890625	0.550781	427	16_54_11_5280830
-0.087891	-0.703125	-0.123047	-0.206235	0.187486	-0.196861	0.691406	0.867188	0.550781	428	16_54_11_5442120
-0.076172	-0.708984	-0.114258	-0.206235	0.187486	-0.196861	0.667969	0.890625	0.480469	429	16_54_11_5603410
-0.073242	-0.711914	-0.108398	-0.206235	0.187486	-0.196861	0.679688	0.914063	0.492188	430	16_54_11_5764700
-0.076172	-0.706055	-0.108398	-0.206235	0.187486	-0.196861	0.691406	0.937500	0.550781	431	16_54_11_5925990
-0.067383	-0.703125	-0.111328	-0.206235	0.196861	-0.196861	0.691406	0.914063	0.527344	432	16_54_11_6087280
-0.079102	-0.717773	-0.120117	-0.206235	0.187486	-0.196861	0.679688	0.914063	0.503906	433	16_54_11_6248570
-0.084961	-0.723633	-0.117188	-0.206235	0.196861	-0.196861	0.667969	0.925781	0.515625	434	16_54_11_6409860
-0.073242	-0.714844	-0.114258	-0.206235	0.187486	-0.196861	0.691406	0.867188	0.515625	435	16_54_11_6571150
-0.084961	-0.708984	-0.125977	-0.206235	0.196861	-0.196861	0.691406	0.890625	0.515625	436	16_54_11_6732440
-0.070313	-0.708984	-0.117188	-0.206235	0.187486	-0.196861	0.691406	0.890625	0.503906	437	16_54_11_6893730
-0.079102	-0.714844	-0.120117	-0.206235	0.187486	-0.196861	0.656250	0.867188	0.503906	438	16_54_11_7055020
-0.073242	-0.708984	-0.111328	-0.206235	0.196861	-0.196861	0.679688	0.914063	0.480469	439	16_54_11_7216310
-0.076172	-0.708984	-0.117188	-0.206235	0.187486	-0.196861	0.679688	0.902344	0.492188	440	16_54_11_7377600
-0.076172	-0.708984	-0.117188	-0.206235	0.196861	-0.196861	0.703125	1.042969	0.492188	441	16_54_11_7538890
-0.076172	-0.711914	-0.117188	-0.206235	0.187486	-0.196861	0.679688	0.937500	0.457031	442	16_54_11_7700180
-0.073242	-0.706055	-0.117188	-0.206235	0.196861	-0.196861	0.667969	0.867188	0.492188	443	16_54_11_7861470
-0.076172	-0.714844	-0.125977	-0.206235	0.196861	-0.196861	0.691406	0.855469	0.527344	444	16_54_11_8022760
-0.079102	-0.703125	-0.123047	-0.206235	0.187486	-0.196861	0.703125	0.878906	0.539063	445	16_54_11_8184050
-0.079102	-0.706055	-0.117188	-0.206235	0.187486	-0.196861	0.703125	0.902344	0.550781	446	16_54_11_8345340
-0.082031	-0.700195	-0.108398	-0.206235	0.187486	-0.196861	0.703125	0.914063	0.539063	447	16_54_11_8506630
-0.073242	-0.720703	-0.114258	-0.206235	0.187486	-0.196861	0.667969	0.914063	0.527344	448	16_54_11_8667920
-0.076172	-0.706055	-0.114258	-0.206235	0.187486	-0.196861	0.667969	0.878906	0.539063	449	16_54_11_8829210
-0.076172	-0.717773	-0.111328	-0.206235	0.196861	-0.196861	0.667969	0.843750	0.515625	450	16_54_11_8990500
-0.079102	-0.711914	-0.108398	-0.206235	0.187486	-0.196861	0.703125	0.925781	0.503906	451	16_54_11_9151790
-0.070313	-0.711914	-0.111328	-0.206235	0.196861	-0.196861	0.667969	0.902344	0.539063	452	16_54_11_9313080
-0.084961	-0.703125	-0.114258	-0.206235	0.187486	-0.196861	0.679688	0.937500	0.515625	453	16_54_11_9474370
-0.076172	-0.708984	-0.123047	-0.206235	0.187486	-0.196861	0.691406	0.902344	0.515625	454	16_54_11_9635660
-0.079102	-0.711914	-0.125977	-0.206235	0.196861	-0.196861	0.667969	0.890625	0.515625	455	16_54_11_9796950
-0.073242	-0.697266	-0.114258	-0.206235	0.187486	-0.196861	0.714844	0.925781	0.503906	456	16_54_11_9958240
-0.079102	-0.703125	-0.123047	-0.206235	0.196861	-0.196861	0.667969	0.890625	0.503906	457	16_54_12_0119530
-0.076172	-0.714844	-0.117188	-0.196861	0.187486	-0.196861	0.691406	0.960938	0.503906	458	16_54_12_0280820
-0.082031	-0.708984	-0.123047	-0.206235	0.187486	-0.196861	0.667969	0.925781	0.503906	459	16_54_12_0442110
-0.093750	-0.720703	-0.120117	-0.206235	0.196861	-0.196861	0.667969	0.925781	0.503906	460	16_54_12_0603400
-0.079102	-0.700195	-0.120117	-0.206235	0.196861	-0.196861	0.691406	0.902344	0.492188	461	16_54_12_0764690
-0.070313	-0.703125	-0.114258	-0.206235	0.187486	-0.196861	0.691406	0.914063	0.480469	462	16_54_12_0925980
-0.079102	-0.700195	-0.114258	-0.206235	0.187486	-0.196861	0.691406	0.890625	0.515625	463	16_54_12_1087270
-0.079102	-0.703125	-0.117188	-0.206235	0.187486	-0.196861	0.691406	0.867188	0.527344	464	16_54_12_1248560
-0.084961	-0.717773	-0.114258	-0.206235	0.187486	-0.196861	0.691406	0.902344	0.527344	465	16_54_12_1409850
-0.076172	-0.708984	-0.120117	-0.206235	0.196861	-0.196861	0.644531	0.890625	0.539063	466	16_54_12_1571140
-0.076172	-0.708984	-0.111328	-0.206235	0.196861	-0.196861	0.703125	0.867188	0.539063	467	16_54_12_1732430
-0.082031	-0.708984	-0.111328	-0.206235	0.196861	-0.196861	0.679688	0.902344	0.550781	468	16_54_12_1893720
-0.076172	-0.714844	-0.125977	-0.206235	0.196861	-0.196861	0.691406	0.960938	0.539063	469	16_54_12_2055010
-0.084961	-0.703125	-0.114258	-0.206235	0.187486	-0.196861	0.679688	0.890625	0.550781	470	16_54_12_2216300
-0.082031	-0.703125	-0.128906	-0.206235	0.187486	-0.196861	0.667969	0.843750	0.574219	471	16_54_12_2377590
-0.084961	-0.697266	-0.114258	-0.206235	0.187486	-0.196861	0.691406	0.773438	0.527344	472	16_54_12_2538880
-0.084961	-0.708984	-0.123047	-0.206235	0.196861	-0.196861	0.691406	0.843750	0.527344	473	16_54_12_2700170
-0.090820	-0.688477	-0.108398	-0.206235	0.187486	-0.196861	0.679688	0.867188	0.527344	474	16_54_12_2861460
-0.079102	-0.711914	-0.114258	-0.206235	0.196861	-0.196861	0.679688	0.925781	0.515625	475	16_54_12_3022750
-0.087891	-0.714844	-0.120117	-0.206235	0.187486	-0.196861	0.667969	0.867188	0.515625	476	16_54_12_3184040
-0.076172	-0.703125	-0.120117	-0.206235	0.187486	-0.196861	0.691406	0.843750	0.503906	477	16_54_12_3345330
-0.082031	-0.706055	-0.120117	-0.206235	0.187486	-0.196861	0.691406	0.855469	0.492188	478	16_54_12_3506620
-0.087891	-0.700195	-0.114258	-0.206235	0.187486	-0.196861	0.691406	0.820313	0.503906	479	16_54_12_3667910
-0.082031	-0.708984	-0.123047	-0.206235	0.187486	-0.196861	0.691406	0.902344	0.515625	480	16_54_12_3829200
-0.079102	-0.711914	-0.111328	-0.206235	0.187486	-0.196861	0.691406	0.949219	0.503906	481	16_54_12_3990490
-0.082031	-0.706055	-0.117188	-0.206235	0.187486	-0.196861	0.667969	0.914063	0.539063	482	16_54_12_4151780
-0.076172	-0.706055	-0.123047	-0.206235	0.187486	-0.196861	0.703125	0.890625	0.550781	483	16_54_12_4313070
-0.082031	-0.703125	-0.125977	-0.206235	0.196861	-0.196861	0.679688	0.832031	0.527344	484	16_54_12_4474360
-0.070313	-0.697266	-0.120117	-0.206235	0.187486	-0.196861	0.703125	0.914063	0.503906	485	16_54_12_4635650
-0.087891	-0.703125	-0.128906	-0.206235	0.187486	-0.196861	0.691406	0.867188	0.480469	486	16_54_12_4796940
-0.076172	-0.708984	-0.123047	-0.206235	0.196861	-0.196861	0.679688	0.796875	0.539063	487	16_54_12_4958230
-0.076172	-0.708984	-0.111328	-0.206235	0.196861	-0.196861	0.667969	0.808594	0.550781	488	16_54_12_5119520
-0.073242	-0.714844	-0.120117	-0.206235	0.196861	-0.196861	0.691406	0.820313	0.515625	489	16_54_12_5280810
-0.076172	-0.706055	-0.117188	-0.206235	0.187486	-0.196861	0.656250	0.890625	0.492188	490	16_54_12_5442100
-0.076172	-0.708984	-0.120117	-0.206235	0.196861	-0.196861	0.691406	0.832031	0.503906	491	16_54_12_5603390
-0.073242	-0.703125	-0.123047	-0.206235	0.187486	-0.196861	0.667969	0.902344	0.515625	492	16_54_12_5764680
-0.079102	-0.703125	-0.114258	-0.206235	0.187486	-0.196861	0.679688	0.890625	0.503906	493	16_54_12_5925970
-0.067383	-0.706055	-0.117188	-0.206235	0.187486	-0.196861	0.726563	0.925781	0.515625	494	16_54_12_6087260
-0.076172	-0.711914	-0.111328	-0.206235	0.196861	-0.196861	0.656250	0.785156	0.515625	495	16_54_12_6248550
-0.084961	-0.703125	-0.123047	-0.206235	0.187486	-0.196861	0.679688	0.820313	0.515625	496	16_54_12_6409840
-0.090820	-0.711914	-0.120117	-0.206235	0.196861	-0.196861	0.667969	0.902344	0.550781	497	16_54_12_6571130
-0.079102	-0.711914	-0.125977	-0.206235	0.187486	-0.196861	0.691406	0.914063	0.550781	498	16_54_12_6732420
-0.079102	-0.714844	-0.114258	-0.206235	0.187486	-0.196861	0.656250	0.972656	0.515625	499	16_54_12_6893710
-0.082031	-0.708984	-0.125977	-0.206235	0.187486	-0.196861	0.667969	0.937500	0.515625	500	16_54_12_7055000
-0.082031	-0.720703	-0.120117	-0.206235	0.187486	-0.196861	0.679688	0.832031	0.492188	501	16_54_12_7216290
-0.079102	-0.708984	-0.123047	-0.206235	0.187486	-0.196861	0.667969	0.820313	0.480469	502	16_54_12_7377580
-0.079102	-0.711914	-0.117188	-0.206235	0.187486	-0.196861	0.691406	0.925781	0.480469	503	16_54_12_7538870
-0.067383	-0.700195	-0.120117	-0.206235	0.187486	-0.196861	0.667969	0.937500	0.457031	504	16_54_12_7700160
-0.064453	-0.708984	-0.120117	-0.206235	0.187486	-0.196861	0.679688	0.925781	0.480469	505	16_54_12_7861450
-0.076172	-0.708984	-0.111328	-0.206235	0.187486	-0.196861	0.691406	0.914063	0.515625	506	16_54_12_8022740
-0.076172	-0.711914	-0.125977	-0.206235	0.187486	-0.196861	0.691406	0.914063	0.503906	507	16_54_12_8184030
-0.070313	-0.708984	-0.108398	-0.206235	0.196861	-0.196861	0.679688	0.925781	0.503906	508	16_54_12_8345320
-0.076172	-0.714844	-0.120117	-0.206235	0.196861	-0.196861	0.667969	0.890625	0.539063	509	16_54_12_8506610
-0.073242	-0.708984	-0.120117	-0.206235	0.187486	-0.196861	0.667969	0.960938	0.550781	510	16_54_12_8667900
-0.079102	-0.697266	-0.134766	-0.206235	0.187486	-0.196861	0.703125	0.984375	0.503906	511	16_54_12_8829190
-0.079102	-0.706055	-0.120117	-0.206235	0.187486	-0.196861	0.691406	0.925781	0.492188	512	16_54_12_8990480
-0.076172	-0.708984	-0.120117	-0.206235	0.196861	-0.196861	0.703125	0.902344	0.503906	513	16_54_12_9151770
-0.076172	-0.703125	-0.120117	-0.206235	0.187486	-0.196861	0.679688	0.925781	0.503906	514	16_54_12_9313060
-0.073242	-0.717773	-0.117188	-0.206235	0.196861	-0.196861	0.679688	0.867188	0.527344	515	16_54_12_9474350
-0.079102	-0.703125	-0.128906	-0.206235	0.196861	-0.196861	0.691406	0.832031	0.550781	516	16_54_12_9635640
-0.073242	-0.703125	-0.123047	-0.206235	0.187486	-0.196861	0.667969	0.914063	0.515625	517	16_54_12_9796930
-0.084961	-0.711914	-0.123047	-0.206235	0.187486	-0.196861	0.667969	0.937500	0.515625	518	16_54_12_9958220
-0.079102	-0.714844	-0.123047	-0.206235	0.187486	-0.196861	0.679688	0.796875	0.492188	519	16_54_13_0119510
-0.079102	-0.708984	-0.111328	-0.224984	0.187486	-0.196861	0.667969	0.855469	0.527344	520	16_54_13_0280800
-0.076172	-0.703125	-0.125977	-0.206235	0.187486	-0.196861	0.691406	0.867188	0.515625	521	16_54_13_0442090
-0.070313	-0.706055	-0.128906	-0.206235	0.187486	-0.196861	0.679688	0.855469	0.492188	522	16_54_13_0603380
-0.076172	-0.720703	-0.120117	-0.206235	0.187486	-0.196861	0.667969	0.867188	0.515625	523	16_54_13_0764670
-0.067383	-0.714844	-0.125977	-0.206235	0.187486	-0.196861	0.726563	1.101563	0.550781	524	16_54_13_0925960
-0.064453	-0.720703	-0.120117	-0.206235	0.187486	-0.196861	0.691406	0.820313	0.503906	525	16_54_13_1087250
-0.073242	-0.711914	-0.123047	-0.206235	0.196861	-0.196861	0.691406	0.867188	0.515625	526	16_54_13_1248540
-0.084961	-0.708984	-0.120117	-0.206235	0.187486	-0.196861	0.679688	0.914063	0.562500	527	16_54_13_1409830
-0.082031	-0.703125	-0.120117	-0.206235	0.187486	-0.196861	0.691406	0.843750	0.515625	528	16_54_13_1571120
-0.084961	-0.708984	-0.114258	-0.206235	0.187486	-0.196861	0.667969	0.902344	0.515625	529	16_54_13_1732410
-0.082031	-0.711914	-0.114258	-0.206235	0.187486	-0.196861	0.703125	0.937500	0.539063	530	16_54_13_1893700
-0.079102	-0.703125	-0.120117	-0.206235	0.187486	-0.196861	0.667969	0.902344	0.527344	531	16_54_13_2054990
-0.073242	-0.706055	-0.120117	-0.206235	0.187486	-0.196861	0.691406	0.890625	0.527344	532	16_54_13_2216280
-0.070313	-0.706055	-0.120117	-0.196861	0.196861	-0.196861	0.667969	0.867188	0.480469	533	16_54_13_2377570
-0.087891	-0.711914	-0.123047	-0.206235	0.187486	-0.196861	0.667969	0.843750	0.468750	534	16_54_13_2538860
-0.070313	-0.714844	-0.125977	-0.206235	0.196861	-0.196861	0.644531	1.066406	0.539063	535	16_54_13_2700150
-0.079102	-0.711914	-0.117188	-0.206235	0.187486	-0.196861	0.691406	0.890625	0.503906	536	16_54_13_2861440
-0.076172	-0.708984	-0.125977	-0.215609	0.187486	-0.196861	0.679688	0.878906	0.492188	537	16_54_13_3022730
-0.073242	-0.700195	-0.128906	-0.206235	0.187486	-0.196861	0.679688	0.855469	0.480469	538	16_54_13_3184020
-0.079102	-0.711914	-0.120117	-0.206235	0.187486	-0.196861	0.691406	0.878906	0.468750	539	16_54_13_3345310
-0.064453	-0.714844	-0.120117	-0.206235	0.187486	-0.196861	0.667969	0.960938	0.492188	540	16_54_13_3506600
-0.061523	-0.711914	-0.114258	-0.206235	0.196861	-0.196861	0.691406	0.902344	0.480469	541	16_54_13_3667890
-0.064453	-0.723633	-0.125977	-0.206235	0.187486	-0.196861	0.691406	0.820313	0.515625	542	16_54_13_3829180
-0.079102	-0.711914	-0.117188	-0.206235	0.187486	-0.196861	0.679688	0.878906	0.550781	543	16_54_13_3990470
-0.073242	-0.697266	-0.120117	-0.206235	0.187486	-0.196861	0.667969	0.867188	0.527344	544	16_54_13_4151760
-0.082031	-0.708984	-0.123047	-0.206235	0.187486	-0.196861	0.644531	0.867188	0.503906	545	16_54_13_4313050
-0.076172	-0.700195	-0.128906	-0.206235	0.187486	-0.196861	0.667969	0.914063	0.503906	546	16_54_13_4474340
-0.076172	-0.711914	-0.120117	-0.206235	0.196861	-0.196861	0.679688	0.878906	0.527344	547	16_54_13_4635630
-0.076172	-0.708984	-0.128906	-0.206235	0.187486	-0.196861	0.691406	0.855469	0.539063	548	16_54_13_4796920
-0.082031	-0.717773	-0.114258	-0.206235	0.187486	-0.196861	0.667969	0.855469	0.539063	549	16_54_13_4958210
-0.070313	-0.706055	-0.123047	-0.206235	0.187486	-0.196861	0.667969	0.925781	0.550781	550	16_54_13_5119500
-0.082031	-0.703125	-0.114258	-0.206235	0.187486	-0.196861	0.656250	0.949219	0.539063	551	16_54_13_5280790
-0.070313	-0.706055	-0.125977	-0.206235	0.187486	-0.196861	0.679688	0.843750	0.539063	552	16_54_13_5442080
-0.079102	-0.714844	-0.114258	-0.206235	0.187486	-0.196861	0.667969	0.902344	0.550781	553	16_54_13_5603370
-0.079102	-0.708984	-0.123047	-0.206235	0.187486	-0.196861	0.667969	0.902344	0.539063	554	16_54_13_5764660
-0.084961	-0.708984	-0.117188	-0.206235	0.196861	-0.196861	0.691406	0.902344	0.515625	555	16_54_13_5925950
-0.073242	-0.711914	-0.123047	-0.206235	0.187486	-0.196861	0.667969	0.914063	0.539063	556	16_54_13_6087240
-0.090820	-0.694336	-0.117188	-0.206235	0.187486	-0.196861	0.644531	0.902344	0.515625	557	16_54_13_6248530
-0.067383	-0.708984	-0.117188	-0.206235	0.187486	-0.196861	0.667969	0.960938	0.480469	558	16_54_13_6409820
-0.070313	-0.714844	-0.120117	-0.206235	0.187486	-0.196861	0.667969	0.925781	0.527344	559	16_54_13_6571110
-0.076172	-0.708984	-0.123047	-0.206235	0.187486	-0.196861	0.667969	0.902344	0.562500	560	16_54_13_6732400
-0.079102	-0.714844	-0.128906	-0.206235	0.196861	-0.196861	0.691406	0.855469	0.503906	561	16_54_13_6893690
-0.082031	-0.714844	-0.117188	-0.206235	0.196861	-0.196861	0.679688	0.773438	0.480469	562	16_54_13_7054980
-0.076172	-0.697266	-0.117188	-0.206235	0.187486	-0.196861	0.667969	0.937500	0.480469	563	16_54_13_7216270
-0.070313	-0.708984	-0.117188	-0.206235	0.187486	-0.196861	0.691406	0.867188	0.503906	564	16_54_13_7377560
-0.087891	-0.706055	-0.120117	-0.206235	0.196861	-0.196861	0.691406	0.773438	0.550781	565	16_54_13_7538850
-0.076172	-0.697266	-0.120117	-0.206235	0.196861	-0.196861	0.691406	1.054688	0.585938	566	16_54_13_7700140
-0.070313	-0.703125	-0.120117	-0.206235	0.196861	-0.196861	0.691406	0.843750	0.515625	567	16_54_13_7861430
-0.076172	-0.700195	-0.117188	-0.206235	0.187486	-0.196861	0.667969	0.796875	0.515625	568	16_54_13_8022720
-0.073242	-0.714844	-0.117188	-0.206235	0.196861	-0.196861	0.667969	0.890625	0.527344	569	16_54_13_8184010
-0.082031	-0.708984	-0.117188	-0.206235	0.187486	-0.196861	0.691406	0.820313	0.527344	570	16_54_13_8345300
-0.070313	-0.697266	-0.120117	-0.206235	0.187486	-0.196861	0.667969	0.867188	0.503906	571	16_54_13_8506590
-0.073242	-0.708984	-0.114258	-0.206235	0.187486	-0.196861	0.691406	0.914063	0.480469	572	16_54_13_8667880
-0.064453	-0.700195	-0.117188	-0.206235	0.187486	-0.196861	0.679688	0.867188	0.503906	573	16_54_13_8829170
-0.064453	-0.706055	-0.120117	-0.206235	0.187486	-0.196861	0.832031	1.019531	0.539063	574	16_54_13_8990460
-0.076172	-0.706055	-0.117188	-0.206235	0.196861	-0.196861	0.667969	0.902344	0.515625	575	16_54_13_9151750
-0.076172	-0.717773	-0.120117	-0.206235	0.187486	-0.196861	0.679688	0.855469	0.539063	576	16_54_13_9313040
-0.076172	-0.708984	-0.120117	-0.206235	0.187486	-0.196861	0.703125	1.007813	0.562500	577	16_54_13_9474330
-0.082031	-0.714844	-0.125977	-0.206235	0.187486	-0.196861	0.691406	0.890625	0.503906	578	16_54_13_9635620
-0.076172	-0.700195	-0.117188	-0.206235	0.196861	-0.196861	0.679688	0.843750	0.503906	579	16_54_13_9796910
-0.084961	-0.714844	-0.117188	-0.206235	0.187486	-0.196861	0.691406	0.867188	0.527344	580	16_54_13_9958200
-0.067383	-0.694336	-0.128906	-0.206235	0.187486	-0.196861	0.679688	0.890625	0.503906	581	16_54_14_0119490
-0.082031	-0.706055	-0.131836	-0.206235	0.187486	-0.196861	0.679688	0.902344	0.468750	582	16_54_14_0280780
-0.082031	-0.706055	-0.125977	-0.206235	0.187486	-0.196861	0.691406	0.867188	0.468750	583	16_54_14_0442070
-0.073242	-0.708984	-0.123047	-0.206235	0.187486	-0.196861	0.691406	0.855469	0.503906	584	16_54_14_0603360
-0.073242	-0.708984	-0.120117	-0.206235	0.187486	-0.196861	0.667969	0.843750	0.480469	585	16_54_14_0764650
-0.076172	-0.708984	-0.120117	-0.206235	0.187486	-0.196861	0.679688	0.937500	0.468750	586	16_54_14_0925940
-0.082031	-0.717773	-0.128906	-0.206235	0.196861	-0.196861	0.679688	0.914063	0.503906	587	16_54_14_1087230
-0.076172	-0.703125	-0.123047	-0.206235	0.187486	-0.196861	0.667969	0.867188	0.515625	588	16_54_14_1248520
-0.079102	-0.714844	-0.123047	-0.215609	0.187486	-0.196861	0.656250	0.820313	0.503906	589	16_54_14_1409810
-0.082031	-0.697266	-0.120117	-0.206235	0.187486	-0.196861	0.667969	0.855469	0.492188	590	16_54_14_1571100
-0.079102	-0.703125	-0.128906	-0.206235	0.187486	-0.196861	0.679688	0.914063	0.503906	591	16_54_14_1732390
-0.079102	-0.708984	-0.114258	-0.206235	0.187486	-0.196861	0.691406	0.855469	0.468750	592	16_54_14_1893680
-0.084961	-0.711914	-0.120117	-0.206235	0.178112	-0.196861	0.644531	0.914063	0.457031	593	16_54_14_2054970
-0.076172	-0.708984	-0.120117	-0.206235	0.187486	-0.196861	0.667969	0.808594	0.492188	594	16_54_14_2216260
-0.079102	-0.703125	-0.117188	-0.206235	0.187486	-0.196861	0.667969	0.867188	0.503906	595	16_54_14_2377550
-0.082031	-0.706055	-0.120117	-0.206235	0.187486	-0.196861	0.691406	0.960938	0.492188	596	16_54_14_2538840
-0.076172	-0.708984	-0.120117	-0.206235	0.187486	-0.196861	0.667969	0.902344	0.480469	597	16_54_14_2700130
-0.079102	-0.708984	-0.117188	-0.206235	0.187486	-0.196861	0.679688	1.007813	0.503906	598	16_54_14_2861420
-0.079102	-0.717773	-0.125977	-0.206235	0.187486	-0.196861	0.632813	0.914063	0.527344	599	16_54_14_3022710
-0.087891	-0.703125	-0.117188	-0.206235	0.187486	-0.196861	0.679688	0.855469	0.480469	600	16_54_14_3184000
-0.073242	-0.714844	-0.123047	-0.206235	0.187486	-0.196861	0.667969	0.914063	0.457031	601	16_54_14_3345290
-0.070313	-0.703125	-0.120117	-0.206235	0.187486	-0.196861	0.667969	0.890625	0.527344	602	16_54_14_3506580
-0.076172	-0.706055	-0.128906	-0.206235	0.187486	-0.196861	0.691406	0.937500	0.527344	603	16_54_14_3667870
-0.076172	-0.714844	-0.120117	-0.206235	0.196861	-0.196861	0.667969	0.914063	0.515625	604	16_54_14_3829160
-0.082031	-0.711914	-0.114258	-0.206235	0.196861	-0.196861	0.691406	0.855469	0.562500	605	16_54_14_3990450
-0.076172	-0.706055	-0.108398	-0.206235	0.187486	-0.196861	0.667969	0.703125	0.550781	606	16_54_14_4151740
-0.079102	-0.703125	-0.123047	-0.215609	0.196861	-0.196861	0.691406	0.820313	0.515625	607	16_54_14_4313030
-0.076172	-0.706055	-0.125977	-0.206235	0.187486	-0.196861	0.691406	0.890625	0.515625	608	16_54_14_4474320
-0.084961	-0.697266	-0.111328	-0.206235	0.187486	-0.196861	0.679688	0.914063	0.492188	609	16_54_14_4635610
-0.073242	-0.708984	-0.125977	-0.206235	0.187486	-0.196861	0.703125	0.890625	0.492188	610	16_54_14_4796900
-0.076172	-0.703125	-0.108398	-0.206235	0.178112	-0.196861	0.667969	0.890625	0.539063	611	16_54_14_4958190
-0.084961	-0.711914	-0.120117	-0.206235	0.196861	-0.196861	0.679688	0.937500	0.527344	612	16_54_14_5119480
-0.082031	-0.708984	-0.123047	-0.206235	0.196861	-0.196861	0.679688	0.855469	0.539063	613	16_54_14_5280770
-0.079102	-0.708984	-0.123047	-0.206235	0.196861	-0.196861	0.667969	0.855469	0.539063	614	16_54_14_5442060
-0.079102	-0.708984	-0.114258	-0.206235	0.196861	-0.196861	0.667969	0.878906	0.539063	615	16_54_14_5603350
-0.082031	-0.706055	-0.117188	-0.206235	0.196861	-0.196861	0.691406	0.890625	0.527344	616	16_54_14_5764640
-0.079102	-0.706055	-0.125977	-0.215609	0.196861	-0.196861	0.644531	0.937500	0.515625	617	16_54_14_5925930
-0.076172	-0.708984	-0.114258	-0.206235	0.187486	-0.196861	0.667969	0.914063	0.527344	618	16_54_14_6087220
-0.073242	-0.708984	-0.120117	-0.206235	0.196861	-0.196861	0.691406	0.960938	0.503906	619	16_54_14_6248510
-0.079102	-0.706055	-0.120117	-0.206235	0.187486	-0.196861	0.691406	0.937500	0.503906	620	16_54_14_6409800
-0.076172	-0.711914	-0.120117	-0.206235	0.187486	-0.196861	0.667969	0.914063	0.480469	621	16_54_14_6571090
-0.076172	-0.708984	-0.117188	-0.206235	0.187486	-0.196861	0.691406	0.890625	0.503906	622	16_54_14_6732380
-0.070313	-0.714844	-0.117188	-0.206235	0.187486	-0.196861	0.703125	0.937500	0.503906	623	16_54_14_6893670
-0.079102	-0.703125	-0.114258	-0.206235	0.187486	-0.196861	0.656250	0.890625	0.527344	624	16_54_14_7054960
-0.079102	-0.711914	-0.120117	-0.206235	0.187486	-0.196861	0.703125	0.843750	0.515625	625	16_54_14_7216250
-0.084961	-0.708984	-0.120117	-0.206235	0.187486	-0.196861	0.667969	0.867188	0.492188	626	16_54_14_7377540
-0.076172	-0.708984	-0.117188	-0.206235	0.187486	-0.196861	0.703125	0.914063	0.480469	627	16_54_14_7538830
-0.070313	-0.706055	-0.114258	-0.206235	0.187486	-0.196861	0.679688	0.937500	0.503906	628	16_54_14_7700120
-0.067383	-0.711914	-0.131836	-0.206235	0.187486	-0.196861	0.691406	0.902344	0.527344	629	16_54_14_7861410
-0.067383	-0.703125	-0.120117	-0.206235	0.196861	-0.196861	0.691406	0.937500	0.503906	630	16_54_14_8022700
-0.076172	-0.708984	-0.123047	-0.206235	0.187486	-0.196861	0.691406	0.914063	0.515625	631	16_54_14_8183990
-0.073242	-0.708984	-0.111328	-0.206235	0.187486	-0.196861	0.679688	0.867188	0.539063	632	16_54_14_8345280
-0.087891	-0.711914	-0.117188	-0.206235	0.187486	-0.196861	0.679688	0.914063	0.562500	633	16_54_14_8506570
-0.076172	-0.700195	-0.120117	-0.206235	0.187486	-0.196861	0.656250	0.914063	0.515625	634	16_54_14_8667860
-0.064453	-0.708984	-0.117188	-0.206235	0.187486	-0.196861	0.679688	0.796875	0.468750	635	16_54_14_8829150
-0.067383	-0.703125	-0.120117	-0.206235	0.187486	-0.196861	0.691406	0.820313	0.503906	636	16_54_14_8990440
-0.090820	-0.703125	-0.117188	-0.206235	0.187486	-0.196861	0.691406	0.902344	0.515625	637	16_54_14_9151730
-0.079102	-0.708984	-0.125977	-0.206235	0.196861	-0.196861	0.667969	0.843750	0.527344	638	16_54_14_9313020
-0.076172	-0.708984	-0.111328	-0.206235	0.187486	-0.196861	0.691406	0.855469	0.515625	639	16_54_14_9474310
-0.070313	-0.720703	-0.120117	-0.206235	0.187486	-0.196861	0.679688	0.843750	0.503906	640	16_54_14_9635600
-0.070313	-0.720703	-0.120117	-0.206235	0.187486	-0.196861	0.691406	0.890625	0.503906	641	16_54_14_9796890
-0.082031	-0.714844	-0.117188	-0.206235	0.187486	-0.196861	0.691406	0.843750	0.527344	642	16_54_14_9958180
-0.070313	-0.708984	-0.123047	-0.206235	0.196861	-0.196861	0.667969	0.902344	0.515625	643	16_54_15_0119470
-0.082031	-0.703125	-0.105469	-0.206235	0.187486	-0.196861	0.691406	0.937500	0.527344	644	16_54_15_0280760
-0.076172	-0.708984	-0.120117	-0.206235	0.187486	-0.196861	0.667969	0.867188	0.527344	645	16_54_15_0442050
-0.076172	-0.711914	-0.117188	-0.206235	0.178112	-0.196861	0.691406	0.855469	0.492188	646	16_54_15_0603340
-0.084961	-0.703125	-0.120117	-0.206235	0.187486	-0.196861	0.691406	0.960938	0.503906	647	16_54_15_0764630
-0.061523	-0.703125	-0.114258	-0.206235	0.187486	-0.196861	0.750000	0.925781	0.539063	648	16_54_15_0925920
-0.079102	-0.708984	-0.117188	-0.206235	0.187486	-0.196861	0.667969	0.820313	0.527344	649	16_54_15_1087210
-0.073242	-0.703125	-0.114258	-0.206235	0.187486	-0.196861	0.679688	0.820313	0.527344	650	16_54_15_1248500
-0.079102	-0.708984	-0.117188	-0.215609	0.196861	-0.196861	0.691406	0.925781	0.550781	651	16_54_15_1409790
-0.076172	-0.697266	-0.120117	-0.206235	0.187486	-0.196861	0.679688	0.796875	0.562500	652	16_54_15_1571080
-0.087891	-0.708984	-0.125977	-0.206235	0.187486	-0.196861	0.679688	0.843750	0.503906	653	16_54_15_1732370
-0.076172	-0.703125	-0.117188	-0.206235	0.187486	-0.196861	0.679688	0.925781	0.492188	654	16_54_15_1893660
-0.076172	-0.703125	-0.114258	-0.206235	0.187486	-0.196861	0.632813	0.972656	0.503906	655	16_54_15_2054950
-0.079102	-0.711914	-0.120117	-0.206235	0.187486	-0.196861	0.667969	0.914063	0.480469	656	16_54_15_2216240
-0.084961	-0.703125	-0.120117	-0.206235	0.187486	-0.196861	0.691406	0.878906	0.515625	657	16_54_15_2377530
-0.073242	-0.708984	-0.114258	-0.206235	0.187486	-0.196861	0.691406	0.878906	0.503906	658	16_54_15_2538820
-0.079102	-0.703125	-0.120117	-0.206235	0.187486	-0.196861	0.667969	0.855469	0.503906	659	16_54_15_2700110
-0.070313	-0.711914	-0.114258	-0.206235	0.187486	-0.196861	0.691406	0.890625	0.527344	660	16_54_15_2861400
-0.076172	-0.711914	-0.114258	-0.206235	0.187486	-0.196861	0.691406	0.914063	0.503906	661	16_54_15_3022690
-0.082031	-0.708984	-0.117188	-0.206235	0.187486	-0.196861	0.691406	0.902344	0.515625	662	16_54_15_3183980
-0.073242	-0.714844	-0.117188	-0.206235	0.187486	-0.196861	0.632813	0.960938	0.515625	663	16_54_15_3345270
-0.082031	-0.703125	-0.114258	-0.206235	0.196861	-0.196861	0.785156	1.042969	0.515625	664	16_54_15_3506560
-0.073242	-0.708984	-0.120117	-0.206235	0.196861	-0.196861	0.679688	0.960938	0.492188	665	16_54_15_3667850
-0.064453	-0.708984	-0.123047	-0.206235	0.187486	-0.196861	0.632813	0.984375	0.503906	666	16_54_15_3829140
-0.082031	-0.706055	-0.108398	-0.206235	0.187486	-0.196861	0.667969	0.914063	0.550781	667	16_54_15_3990430
-0.070313	-0.703125	-0.114258	-0.206235	0.196861	-0.196861	0.691406	0.984375	0.527344	668	16_54_15_4151720
-0.076172	-0.697266	-0.114258	-0.206235	0.196861	-0.196861	0.703125	0.960938	0.503906	669	16_54_15_4313010
-0.087891	-0.708984	-0.117188	-0.206235	0.196861	-0.196861	0.691406	0.984375	0.515625	670	16_54_15_4474300
-0.084961	-0.706055	-0.125977	-0.206235	0.196861	-0.196861	0.679688	0.902344	0.515625	671	16_54_15_4635590
-0.076172	-0.711914	-0.120117	-0.206235	0.187486	-0.196861	0.679688	0.890625	0.527344	672	16_54_15_4796880
-0.082031	-0.706055	-0.123047	-0.206235	0.196861	-0.196861	0.738281	0.960938	0.527344	673	16_54_15_4958170
-0.067383	-0.708984	-0.120117	-0.206235	0.187486	-0.196861	0.679688	0.878906	0.503906	674	16_54_15_5119460
-0.079102	-0.706055	-0.111328	-0.206235	0.196861	-0.196861	0.691406	0.902344	0.515625	675	16_54_15_5280750
-0.076172	-0.708984	-0.123047	-0.206235	0.187486	-0.196861	0.691406	0.878906	0.480469	676	16_54_15_5442040
-0.070313	-0.711914	-0.120117	-0.206235	0.187486	-0.196861	0.667969	0.843750	0.468750	677	16_54_15_5603330
-0.076172	-0.711914	-0.114258	-0.206235	0.187486	-0.196861	0.714844	0.867188	0.515625	678	16_54_15_5764620
-0.084961	-0.714844	-0.108398	-0.206235	0.187486	-0.196861	0.691406	0.750000	0.539063	679	16_54_15_5925910
-0.079102	-0.708984	-0.108398	-0.215609	0.196861	-0.196861	0.667969	0.855469	0.539063	680	16_54_15_6087200
-0.079102	-0.708984	-0.114258	-0.206235	0.196861	-0.196861	0.656250	0.855469	0.515625	681	16_54_15_6248490
-0.082031	-0.697266	-0.111328	-0.206235	0.196861	-0.196861	0.679688	0.855469	0.562500	682	16_54_15_6409780
-0.082031	-0.720703	-0.123047	-0.206235	0.196861	-0.196861	0.667969	0.832031	0.550781	683	16_54_15_6571070
-0.073242	-0.708984	-0.114258	-0.206235	0.187486	-0.196861	0.714844	0.867188	0.503906	684	16_54_15_6732360
-0.082031	-0.708984	-0.117188	-0.206235	0.196861	-0.196861	0.691406	0.855469	0.503906	685	16_54_15_6893650
-0.079102	-0.703125	-0.114258	-0.206235	0.187486	-0.196861	0.691406	0.925781	0.480469	686	16_54_15_7054940
-0.087891	-0.694336	-0.114258	-0.206235	0.187486	-0.196861	0.667969	0.843750	0.503906	687	16_54_15_7216230
-0.079102	-0.703125	-0.117188	-0.206235	0.196861	-0.196861	0.691406	0.914063	0.527344	688	16_54_15_7377520
-0.079102	-0.708984	-0.114258	-0.206235	0.187486	-0.196861	0.691406	0.890625	0.515625	689	16_54_15_7538810
-0.082031	-0.708984	-0.114258	-0.206235	0.196861	-0.196861	0.679688	0.878906	0.503906	690	16_54_15_7700100
-0.079102	-0.708984	-0.120117	-0.206235	0.187486	-0.196861	0.679688	0.925781	0.550781	691	16_54_15_7861390
-0.073242	-0.714844	-0.111328	-0.206235	0.196861	-0.196861	0.667969	0.960938	0.539063	692	16_54_15_8022680
-0.079102	-0.703125	-0.125977	-0.206235	0.196861	-0.196861	0.738281	1.019531	0.492188	693	16_54_15_8183970
-0.082031	-0.703125	-0.123047	-0.206235	0.187486	-0.196861	0.691406	0.925781	0.515625	694	16_54_15_8345260
-0.073242	-0.703125	-0.120117	-0.206235	0.187486	-0.196861	0.679688	0.914063	0.515625	695	16_54_15_8506550
-0.079102	-0.708984	-0.117188	-0.206235	0.187486	-0.196861	0.785156	0.984375	0.527344	696	16_54_15_8667840
-0.073242	-0.714844	-0.125977	-0.206235	0.196861	-0.196861	0.691406	0.890625	0.550781	697	16_54_15_8829130
-0.073242	-0.723633	-0.114258	-0.206235	0.187486	-0.196861	0.667969	0.914063	0.550781	698	16_54_15_8990420
-0.076172	-0.708984	-0.111328	-0.206235	0.196861	-0.196861	0.714844	0.914063	0.515625	699	16_54_15_9151710
-0.090820	-0.711914	-0.117188	-0.206235	0.196861	-0.196861	0.667969	0.902344	0.503906	700	16_54_15_9313000
-0.073242	-0.714844	-0.117188	-0.206235	0.196861	-0.196861	0.667969	0.890625	0.515625	701	16_54_15_9474290
-0.076172	-0.708984	-0.111328	-0.206235	0.196861	-0.196861	0.667969	0.843750	0.527344	702	16_54_15_9635580
-0.076172	-0.700195	-0.117188	-0.206235	0.196861	-0.196861	0.667969	0.890625	0.539063	703	16_54_15_9796870
-0.076172	-0.703125	-0.117188	-0.206235	0.196861	-0.196861	0.691406	0.902344	0.527344	704	16_54_15_9958160
-0.079102	-0.706055	-0.123047	-0.206235	0.187486	-0.196861	0.691406	0.914063	0.527344	705	16_54_16_0119450
-0.073242	-0.703125	-0.114258	-0.206235	0.187486	-0.196861	0.691406	0.949219	0.503906	706	16_54_16_0280740
-0.076172	-0.708984	-0.117188	-0.206235	0.187486	-0.196861	0.667969	0.890625	0.492188	707	16_54_16_0442030
-0.079102	-0.717773	-0.123047	-0.196861	0.196861	-0.196861	0.644531	0.867188	0.515625	708	16_54_16_0603320
-0.070313	-0.714844	-0.123047	-0.206235	0.196861	-0.196861	0.691406	0.855469	0.503906	709	16_54_16_0764610
-0.084961	-0.697266	-0.123047	-0.206235	0.196861	-0.196861	0.691406	0.820313	0.492188	710	16_54_16_0925900
-0.076172	-0.708984	-0.123047	-0.206235	0.196861	-0.196861	0.667969	0.867188	0.527344	711	16_54_16_1087190
-0.087891	-0.700195	-0.120117	-0.206235	0.187486	-0.196861	0.691406	0.925781	0.503906	712	16_54_16_1248480
-0.070313	-0.708984	-0.102539	-0.206235	0.196861	-0.196861	0.667969	0.914063	0.515625	713	16_54_16_1409770
-0.079102	-0.703125	-0.120117	-0.206235	0.187486	-0.196861	0.679688	0.890625	0.527344	714	16_54_16_1571060
-0.073242	-0.706055	-0.117188	-0.206235	0.196861	-0.196861	0.679688	0.960938	0.503906	715	16_54_16_1732350
-0.079102	-0.714844	-0.120117	-0.206235	0.196861	-0.196861	0.667969	0.890625	0.503906	716	16_54_16_1893640
-0.067383	-0.703125	-0.114258	-0.206235	0.206235	-0.196861	0.691406	0.832031	0.503906	717	16_54_16_2054930
-0.084961	-0.700195	-0.117188	-0.206235	0.196861	-0.196861	0.656250	0.843750	0.539063	718	16_54_16_2216220
-0.084961	-0.708984	-0.123047	-0.206235	0.196861	-0.196861	0.679688	0.960938	0.503906	719	16_54_16_2377510
-0.082031	-0.714844	-0.120117	-0.206235	0.196861	-0.196861	0.679688	0.949219	0.492188	720	16_54_16_2538800
-0.079102	-0.703125	-0.111328	-0.206235	0.187486	-0.196861	0.761719	0.937500	0.527344	721	16_54_16_2700090
-0.076172	-0.703125	-0.123047	-0.206235	0.187486	-0.196861	0.703125	0.843750	0.515625	722	16_54_16_2861380
-0.067383	-0.708984	-0.117188	-0.206235	0.187486	-0.196861	0.691406	0.796875	0.503906	723	16_54_16_3022670
-0.070313	-0.708984	-0.123047	-0.206235	0.187486	-0.196861	0.691406	0.855469	0.503906	724	16_54_16_3183960
-0.070313	-0.714844	-0.117188	-0.206235	0.196861	-0.196861	0.691406	0.843750	0.539063	725	16_54_16_3345250
-0.079102	-0.703125	-0.111328	-0.206235	0.187486	-0.196861	0.667969	0.890625	0.539063	726	16_54_16_3506540
-0.076172	-0.711914	-0.117188	-0.206235	0.196861	-0.206235	0.679688	0.808594	0.515625	727	16_54_16_3667830
-0.079102	-0.711914	-0.120117	-0.206235	0.196861	-0.196861	0.691406	0.878906	0.480469	728	16_54_16_3829120
-0.079102	-0.706055	-0.120117	-0.206235	0.196861	-0.196861	0.691406	1.019531	0.515625	729	16_54_16_3990410
-0.067383	-0.708984	-0.123047	-0.206235	0.187486	-0.196861	0.667969	0.925781	0.503906	730	16_54_16_4151700
-0.076172	-0.703125	-0.123047	-0.206235	0.187486	-0.196861	0.679688	0.867188	0.492188	731	16_54_16_4312990
-0.076172	-0.708984	-0.123047	-0.206235	0.187486	-0.196861	0.679688	0.867188	0.503906	732	16_54_16_4474280
-0.082031	-0.706055	-0.114258	-0.206235	0.187486	-0.196861	0.679688	0.914063	0.515625	733	16_54_16_4635570
-0.082031	-0.691406	-0.123047	-0.206235	0.196861	-0.196861	0.691406	0.914063	0.515625	734	16_54_16_4796860
-0.067383	-0.697266	-0.120117	-0.206235	0.187486	-0.196861	0.691406	0.914063	0.527344	735	16_54_16_4958150
-0.067383	-0.708984	-0.120117	-0.206235	0.187486	-0.196861	0.691406	0.960938	0.515625	736	16_54_16_5119440
-0.090820	-0.711914	-0.123047	-0.206235	0.196861	-0.196861	0.644531	0.949219	0.492188	737	16_54_16_5280730
-0.076172	-0.714844	-0.123047	-0.206235	0.196861	-0.196861	0.691406	0.902344	0.515625	738	16_54_16_5442020
-0.079102	-0.708984	-0.117188	-0.206235	0.187486	-0.196861	0.691406	0.890625	0.515625	739	16_54_16_5603310
-0.082031	-0.711914	-0.114258	-0.206235	0.196861	-0.196861	0.691406	0.914063	0.550781	740	16_54_16_5764600
-0.073242	-0.703125	-0.131836	-0.206235	0.187486	-0.196861	0.703125	0.914063	0.550781	741	16_54_16_5925890
-0.079102	-0.708984	-0.123047	-0.206235	0.187486	-0.196861	0.656250	0.867188	0.503906	742	16_54_16_6087180
-0.076172	-0.703125	-0.117188	-0.206235	0.187486	-0.196861	0.656250	0.902344	0.527344	743	16_54_16_6248470
-0.073242	-0.720703	-0.131836	-0.206235	0.187486	-0.196861	0.691406	0.925781	0.550781	744	16_54_16_6409760
-0.082031	-0.708984	-0.123047	-0.206235	0.196861	-0.196861	0.691406	0.902344	0.539063	745	16_54_16_6571050
-0.076172	-0.717773	-0.114258	-0.206235	0.187486	-0.196861	0.714844	0.984375	0.515625	746	16_54_16_6732340
-0.090820	-0.703125	-0.120117	-0.206235	0.196861	-0.196861	0.667969	0.937500	0.515625	747	16_54_16_6893630
-0.079102	-0.708984	-0.120117	-0.206235	0.187486	-0.196861	0.691406	0.855469	0.515625	748	16_54_16_7054920
-0.079102	-0.706055	-0.114258	-0.206235	0.196861	-0.196861	0.679688	0.914063	0.515625	749	16_54_16_7216210
-0.070313	-0.708984	-0.108398	-0.206235	0.187486	-0.196861	0.667969	0.914063	0.492188	750	16_54_16_7377500
-0.079102	-0.708984	-0.108398	-0.206235	0.187486	-0.196861	0.667969	0.867188	0.468750	751	16_54_16_7538790
-0.082031	-0.708984	-0.114258	-0.206235	0.187486	-0.196861	0.703125	0.843750	0.515625	752	16_54_16_7700080
-0.082031	-0.703125	-0.123047	-0.206235	0.196861	-0.196861	0.679688	0.890625	0.562500	753	16_54_16_7861370
-0.070313	-0.711914	-0.114258	-0.206235	0.196861	-0.196861	0.691406	0.843750	0.515625	754	16_54_16_8022660
-0.082031	-0.711914	-0.128906	-0.206235	0.196861	-0.196861	0.691406	0.914063	0.503906	755	16_54_16_8183950
-0.079102	-0.714844	-0.117188	-0.206235	0.196861	-0.196861	0.679688	0.878906	0.539063	756	16_54_16_8345240
-0.079102	-0.708984	-0.123047	-0.206235	0.196861	-0.196861	0.667969	0.820313	0.527344	757	16_54_16_8506530
-0.082031	-0.711914	-0.114258	-0.206235	0.196861	-0.196861	0.691406	0.867188	0.515625	758	16_54_16_8667820
-0.073242	-0.708984	-0.117188	-0.206235	0.206235	-0.196861	0.691406	0.902344	0.562500	759	16_54_16_8829110
-0.073242	-0.708984	-0.120117	-0.215609	0.206235	-0.196861	0.667969	0.902344	0.574219	760	16_54_16_8990400
-0.076172	-0.711914	-0.125977	-0.215609	0.206235	-0.206235	0.644531	0.796875	0.515625	761	16_54_16_9151690
-0.079102	-0.711914	-0.117188	-0.215609	0.206235	-0.206235	0.691406	0.878906	0.515625	762	16_54_16_9312980
-0.073242	-0.708984	-0.123047	-0.215609	0.206235	-0.206235	0.679688	0.855469	0.539063	763	16_54_16_9474270
-0.067383	-0.700195	-0.123047	-0.215609	0.196861	-0.206235	0.691406	0.855469	0.539063	764	16_54_16_9635560
-0.070313	-0.711914	-0.117188	-0.206235	0.196861	-0.206235	0.691406	0.867188	0.539063	765	16_54_16_9796850
-0.070313	-0.708984	-0.117188	-0.206235	0.187486	-0.206235	0.667969	0.914063	0.515625	766	16_54_16_9958140
-0.061523	-0.717773	-0.117188	-0.206235	0.178112	-0.206235	0.691406	0.902344	0.527344	767	16_54_17_0119430
-0.061523	-0.726563	-0.108398	-0.206235	0.178112	-0.206235	0.691406	0.949219	0.515625	768	16_54_17_0280720
-0.067383	-0.711914	-0.102539	-0.196861	0.187486	-0.215609	0.667969	0.890625	0.492188	769	16_54_17_0442010
-0.084961	-0.703125	-0.105469	-0.196861	0.187486	-0.215609	0.679688	0.878906	0.527344	770	16_54_17_0603300
-0.093750	-0.711914	-0.123047	-0.196861	0.196861	-0.206235	0.855469	1.054688	0.574219	771	16_54_17_0764590
-0.102539	-0.706055	-0.134766	-0.206235	0.187486	-0.196861	0.691406	0.855469	0.503906	772	16_54_17_0925880
-0.108398	-0.708984	-0.143555	-0.206235	0.187486	-0.187486	0.691406	0.878906	0.503906	773	16_54_17_1087170
-0.114258	-0.691406	-0.128906	-0.215609	0.187486	-0.178112	0.691406	0.902344	0.597656	774	16_54_17_1248460
-0.096680	-0.694336	-0.123047	-0.215609	0.178112	-0.178112	0.691406	0.843750	0.562500	775	16_54_17_1409750
-0.105469	-0.700195	-0.120117	-0.215609	0.178112	-0.159363	0.691406	0.867188	0.539063	776	16_54_17_1571040
-0.090820	-0.694336	-0.120117	-0.215609	0.178112	-0.159363	0.667969	0.785156	0.503906	777	16_54_17_1732330
-0.093750	-0.717773	-0.123047	-0.215609	0.187486	-0.159363	0.691406	0.890625	0.480469	778	16_54_17_1893620
-0.090820	-0.708984	-0.125977	-0.215609	0.178112	-0.140615	0.667969	0.843750	0.492188	779	16_54_17_2054910
-0.082031	-0.738281	-0.128906	-0.215609	0.168738	-0.140615	0.703125	0.867188	0.515625	780	16_54_17_2216200
-0.067383	-0.744141	-0.137695	-0.224984	0.168738	-0.140615	0.703125	1.007813	0.527344	781	16_54_17_2377490
-0.058594	-0.723633	-0.108398	-0.224984	0.187486	-0.140615	0.691406	0.937500	0.515625	782	16_54_17_2538780
-0.058594	-0.691406	-0.105469	-0.215609	0.187486	-0.159363	0.667969	0.902344	0.515625	783	16_54_17_2700070
-0.076172	-0.688477	-0.090820	-0.215609	0.196861	-0.159363	0.667969	0.925781	0.539063	784	16_54_17_2861360
-0.064453	-0.670898	-0.087891	-0.215609	0.206235	-0.168738	0.679688	0.925781	0.527344	785	16_54_17_3022650
-0.064453	-0.662109	-0.090820	-0.224984	0.206235	-0.187486	0.679688	0.843750	0.527344	786	16_54_17_3183940
-0.067383	-0.679688	-0.096680	-0.234358	0.215609	-0.196861	0.714844	0.937500	0.574219	787	16_54_17_3345230
-0.067383	-0.676758	-0.096680	-0.234358	0.215609	-0.196861	0.632813	0.890625	0.527344	788	16_54_17_3506520
-0.064453	-0.694336	-0.099609	-0.224984	0.206235	-0.196861	0.679688	0.867188	0.515625	789	16_54_17_3667810
-0.064453	-0.729492	-0.105469	-0.215609	0.206235	-0.196861	0.667969	0.902344	0.539063	790	16_54_17_3829100
-0.064453	-0.738281	-0.108398	-0.215609	0.196861	-0.196861	0.656250	0.878906	0.515625	791	16_54_17_3990390
-0.052734	-0.744141	-0.125977	-0.206235	0.187486	-0.196861	0.667969	0.867188	0.515625	792	16_54_17_4151680
-0.046875	-0.729492	-0.120117	-0.206235	0.187486	-0.206235	0.679688	0.925781	0.503906	793	16_54_17_4312970
-0.049805	-0.714844	-0.108398	-0.196861	0.187486	-0.215609	0.679688	1.042969	0.492188	794	16_54_17_4474260
-0.058594	-0.697266	-0.105469	-0.206235	0.187486	-0.206235	0.679688	0.972656	0.515625	795	16_54_17_4635550
-0.052734	-0.688477	-0.096680	-0.206235	0.187486	-0.206235	0.679688	0.878906	0.539063	796	16_54_17_4796840
-0.052734	-0.685547	-0.096680	-0.206235	0.187486	-0.206235	0.667969	0.867188	0.527344	797	16_54_17_4958130
-0.064453	-0.691406	-0.084961	-0.196861	0.187486	-0.206235	0.703125	0.855469	0.492188	798	16_54_17_5119420
-0.049805	-0.706055	-0.093750	-0.196861	0.196861	-0.206235	0.667969	0.902344	0.468750	799	16_54_17_5280710
-0.067383	-0.697266	-0.099609	-0.196861	0.196861	-0.215609	0.679688	0.937500	0.468750	800	16_54_17_5442000
-0.082031	-0.697266	-0.114258	-0.196861	0.206235	-0.215609	0.667969	0.890625	0.503906	801	16_54_17_5603290
-0.102539	-0.706055	-0.111328	-0.206235	0.206235	-0.215609	0.691406	0.902344	0.503906	802	16_54_17_5764580
-0.102539	-0.723633	-0.125977	-0.206235	0.196861	-0.215609	0.679688	0.855469	0.503906	803	16_54_17_5925870
-0.099609	-0.755859	-0.137695	-0.215609	0.187486	-0.206235	0.667969	0.914063	0.527344	804	16_54_17_6087160
-0.093750	-0.741211	-0.143555	-0.224984	0.187486	-0.196861	0.679688	0.890625	0.527344	805	16_54_17_6248450
-0.090820	-0.738281	-0.123047	-0.215609	0.168738	-0.196861	0.632813	0.843750	0.539063	806	16_54_17_6409740
-0.070313	-0.720703	-0.114258	-0.215609	0.178112	-0.196861	0.679688	0.867188	0.550781	807	16_54_17_6571030
-0.067383	-0.720703	-0.096680	-0.206235	0.178112	-0.196861	0.667969	0.855469	0.492188	808	16_54_17_6732320
-0.067383	-0.703125	-0.084961	-0.206235	0.178112	-0.215609	0.667969	0.878906	0.468750	809	16_54_17_6893610
-0.064453	-0.708984	-0.090820	-0.196861	0.187486	-0.215609	0.679688	0.972656	0.468750	810	16_54_17_7054900
-0.055664	-0.708984	-0.090820	-0.206235	0.187486	-0.215609	0.761719	0.984375	0.492188	811	16_54_17_7216190
-0.058594	-0.708984	-0.099609	-0.206235	0.187486	-0.215609	0.667969	0.843750	0.492188	812	16_54_17_7377480
-0.070313	-0.714844	-0.108398	-0.206235	0.206235	-0.215609	0.703125	0.820313	0.503906	813	16_54_17_7538770
-0.076172	-0.732422	-0.105469	-0.215609	0.206235	-0.206235	0.691406	0.867188	0.503906	814	16_54_17_7700060
-0.067383	-0.714844	-0.108398	-0.224984	0.215609	-0.196861	0.679688	0.796875	0.515625	815	16_54_17_7861350
-0.070313	-0.711914	-0.102539	-0.215609	0.224984	-0.196861	0.679688	0.808594	0.492188	816	16_54_17_8022640
-0.090820	-0.711914	-0.102539	-0.215609	0.224984	-0.215609	0.691406	0.902344	0.515625	817	16_54_17_8183930
-0.093750	-0.703125	-0.111328	-0.215609	0.215609	-0.215609	0.667969	0.937500	0.527344	818	16_54_17_8345220
-0.087891	-0.714844	-0.114258	-0.215609	0.206235	-0.206235	0.667969	0.832031	0.503906	819	16_54_17_8506510
-0.058594	-0.691406	-0.111328	-0.224984	0.187486	-0.196861	0.691406	0.890625	0.492188	820	16_54_17_8667800
-0.064453	-0.688477	-0.108398	-0.206235	0.187486	-0.187486	0.679688	0.843750	0.527344	821	16_54_17_8829090
-0.041016	-0.685547	-0.111328	-0.206235	0.196861	-0.187486	0.691406	0.890625	0.550781	822	16_54_17_8990380
-0.055664	-0.691406	-0.099609	-0.206235	0.206235	-0.187486	0.667969	0.843750	0.480469	823	16_54_17_9151670
-0.067383	-0.706055	-0.105469	-0.196861	0.206235	-0.187486	0.691406	0.843750	0.457031	824	16_54_17_9312960
-0.082031	-0.700195	-0.120117	-0.196861	0.215609	-0.187486	0.691406	0.820313	0.515625	825	16_54_17_9474250
-0.093750	-0.703125	-0.111328	-0.196861	0.206235	-0.178112	0.667969	0.914063	0.539063	826	16_54_17_9635540
-0.087891	-0.711914	-0.123047	-0.206235	0.196861	-0.187486	0.644531	0.902344	0.539063	827	16_54_17_9796830
-0.093750	-0.711914	-0.120117	-0.206235	0.196861	-0.187486	0.679688	0.855469	0.503906	828	16_54_17_9958120
-0.087891	-0.738281	-0.123047	-0.206235	0.187486	-0.187486	0.667969	0.937500	0.503906	829	16_54_18_0119410
-0.079102	-0.729492	-0.102539	-0.206235	0.187486	-0.187486	0.667969	0.878906	0.527344	830	16_54_18_0280700
-0.082031	-0.717773	-0.099609	-0.215609	0.187486	-0.196861	0.679688	0.867188	0.503906	831	16_54_18_0441990
-0.079102	-0.720703	-0.102539	-0.215609	0.196861	-0.196861	0.667969	0.890625	0.492188	832	16_54_18_0603280
-0.076172	-0.708984	-0.108398	-0.215609	0.187486	-0.196861	0.667969	0.867188	0.480469	833	16_54_18_0764570
-0.079102	-0.703125	-0.090820	-0.206235	0.196861	-0.206235	0.679688	0.925781	0.468750	834	16_54_18_0925860
-0.064453	-0.708984	-0.102539	-0.215609	0.196861	-0.196861	0.667969	0.914063	0.468750	835	16_54_18_1087150
-0.076172	-0.708984	-0.099609	-0.206235	0.196861	-0.196861	0.667969	0.890625	0.468750	836	16_54_18_1248440
-0.087891	-0.703125	-0.102539	-0.206235	0.187486	-0.196861	0.691406	0.773438	0.492188	837	16_54_18_1409730
-0.082031	-0.708984	-0.102539	-0.206235	0.178112	-0.196861	0.667969	0.867188	0.480469	838	16_54_18_1571020
-0.082031	-0.714844	-0.096680	-0.206235	0.178112	-0.196861	0.644531	0.890625	0.503906	839	16_54_18_1732310
-0.070313	-0.717773	-0.102539	-0.206235	0.187486	-0.196861	0.656250	0.867188	0.527344	840	16_54_18_1893600
-0.084961	-0.714844	-0.093750	-0.206235	0.187486	-0.196861	0.691406	0.914063	0.503906	841	16_54_18_2054890
-0.090820	-0.708984	-0.108398	-0.206235	0.187486	-0.196861	0.679688	0.878906	0.503906	842	16_54_18_2216180
-0.082031	-0.706055	-0.099609	-0.206235	0.187486	-0.196861	0.656250	0.925781	0.527344	843	16_54_18_2377470
-0.084961	-0.700195	-0.111328	-0.206235	0.178112	-0.196861	0.679688	0.902344	0.515625	844	16_54_18_2538760
-0.061523	-0.708984	-0.105469	-0.206235	0.187486	-0.196861	0.691406	0.960938	0.515625	845	16_54_18_2700050
-0.064453	-0.708984	-0.108398	-0.206235	0.187486	-0.196861	0.691406	0.878906	0.492188	846	16_54_18_2861340
-0.079102	-0.714844	-0.105469	-0.206235	0.187486	-0.196861	0.679688	1.042969	0.515625	847	16_54_18_3022630
-0.064453	-0.708984	-0.114258	-0.206235	0.196861	-0.196861	0.691406	0.890625	0.527344	848	16_54_18_3183920
-0.079102	-0.708984	-0.102539	-0.196861	0.187486	-0.196861	0.667969	0.925781	0.503906	849	16_54_18_3345210
-0.087891	-0.720703	-0.108398	-0.206235	0.187486	-0.187486	0.667969	0.902344	0.480469	850	16_54_18_3506500
-0.082031	-0.711914	-0.111328	-0.206235	0.187486	-0.178112	0.714844	0.820313	0.503906	851	16_54_18_3667790
-0.076172	-0.708984	-0.096680	-0.206235	0.187486	-0.187486	0.703125	0.843750	0.515625	852	16_54_18_3829080
-0.082031	-0.708984	-0.102539	-0.206235	0.187486	-0.187486	0.667969	0.867188	0.527344	853	16_54_18_3990370
-0.082031	-0.703125	-0.111328	-0.206235	0.187486	-0.187486	0.691406	0.878906	0.539063	854	16_54_18_4151660
-0.073242	-0.717773	-0.108398	-0.206235	0.187486	-0.187486	0.703125	0.867188	0.539063	855	16_54_18_4312950
-0.070313	-0.708984	-0.099609	-0.206235	0.187486	-0.196861	0.679688	0.855469	0.503906	856	16_54_18_4474240
-0.076172	-0.714844	-0.102539	-0.206235	0.196861	-0.196861	0.667969	0.773438	0.503906	857	16_54_18_4635530
-0.082031	-0.708984	-0.096680	-0.206235	0.196861	-0.196861	0.691406	0.820313	0.503906	858	16_54_18_4796820
-0.082031	-0.708984	-0.105469	-0.206235	0.196861	-0.196861	0.667969	0.878906	0.527344	859	16_54_18_4958110
-0.079102	-0.706055	-0.111328	-0.206235	0.196861	-0.196861	0.691406	0.890625	0.539063	860	16_54_18_5119400
-0.073242	-0.708984	-0.105469	-0.206235	0.196861	-0.196861	0.679688	0.890625	0.527344	861	16_54_18_5280690
-0.067383	-0.717773	-0.114258	-0.206235	0.196861	-0.196861	0.667969	0.796875	0.539063	862	16_54_18_5441980
-0.070313	-0.714844	-0.105469	-0.206235	0.187486	-0.196861	0.667969	0.902344	0.515625	863	16_54_18_5603270
-0.079102	-0.706055	-0.105469	-0.206235	0.196861	-0.196861	0.667969	0.890625	0.503906	864	16_54_18_5764560
-0.082031	-0.703125	-0.108398	-0.206235	0.187486	-0.196861	0.703125	0.820313	0.503906	865	16_54_18_5925850
-0.067383	-0.717773	-0.102539	-0.206235	0.187486	-0.196861	0.703125	0.890625	0.515625	866	16_54_18_6087140
-0.070313	-0.708984	-0.114258	-0.206235	0.187486	-0.196861	0.679688	0.820313	0.539063	867	16_54_18_6248430
-0.079102	-0.703125	-0.105469	-0.206235	0.196861	-0.196861	0.667969	0.820313	0.550781	868	16_54_18_6409720
-0.064453	-0.711914	-0.105469	-0.206235	0.196861	-0.196861	0.691406	0.867188	0.515625	869	16_54_18_6571010
-0.076172	-0.708984	-0.105469	-0.206235	0.196861	-0.196861	0.679688	0.867188	0.492188	870	16_54_18_6732300
-0.067383	-0.708984	-0.105469	-0.206235	0.196861	-0.196861	0.691406	0.890625	0.503906	871	16_54_18_6893590
-0.076172	-0.714844	-0.114258	-0.206235	0.196861	-0.196861	0.691406	0.890625	0.527344	872	16_54_18_7054880
-0.070313	-0.711914	-0.111328	-0.206235	0.196861	-0.196861	0.691406	0.855469	0.550781	873	16_54_18_7216170
-0.076172	-0.711914	-0.108398	-0.206235	0.196861	-0.196861	0.667969	0.890625	0.515625	874	16_54_18_7377460
-0.076172	-0.700195	-0.114258	-0.206235	0.196861	-0.196861	0.843750	1.078125	0.515625	875	16_54_18_7538750
-0.076172	-0.708984	-0.114258	-0.206235	0.196861	-0.196861	0.703125	0.937500	0.503906	876	16_54_18_7700040
-0.076172	-0.708984	-0.099609	-0.206235	0.196861	-0.196861	0.691406	0.937500	0.503906	877	16_54_18_7861330
-0.076172	-0.706055	-0.108398	-0.206235	0.196861	-0.196861	0.679688	0.890625	0.515625	878	16_54_18_8022620
-0.076172	-0.714844	-0.099609	-0.206235	0.196861	-0.196861	0.679688	0.925781	0.515625	879	16_54_18_8183910
-0.073242	-0.711914	-0.108398	-0.206235	0.196861	-0.196861	0.667969	0.914063	0.503906	880	16_54_18_8345200
-0.076172	-0.720703	-0.117188	-0.206235	0.196861	-0.196861	0.691406	0.937500	0.503906	881	16_54_18_8506490
-0.073242	-0.708984	-0.111328	-0.206235	0.196861	-0.206235	0.679688	0.855469	0.515625	882	16_54_18_8667780
-0.082031	-0.714844	-0.111328	-0.206235	0.196861	-0.206235	0.679688	0.890625	0.527344	883	16_54_18_8829070
-0.090820	-0.720703	-0.114258	-0.206235	0.196861	-0.196861	0.691406	0.855469	0.527344	884	16_54_18_8990360
-0.082031	-0.700195	-0.111328	-0.206235	0.196861	-0.196861	0.691406	0.785156	0.503906	885	16_54_18_9151650
-0.067383	-0.714844	-0.102539	-0.206235	0.196861	-0.196861	0.679688	0.785156	0.480469	886	16_54_18_9312940
-0.079102	-0.720703	-0.105469	-0.206235	0.196861	-0.196861	0.808594	1.335938	0.527344	887	16_54_18_9474230
-0.079102	-0.708984	-0.111328	-0.206235	0.196861	-0.196861	0.691406	0.902344	0.468750	888	16_54_18_9635520
-0.076172	-0.703125	-0.108398	-0.206235	0.196861	-0.196861	0.714844	0.914063	0.503906	889	16_54_18_9796810
-0.067383	-0.714844	-0.105469	-0.206235	0.187486	-0.196861	0.667969	0.914063	0.503906	890	16_54_18_9958100
-0.073242	-0.708984	-0.111328	-0.206235	0.196861	-0.196861	0.667969	0.855469	0.492188	891	16_54_19_0119390
-0.070313	-0.714844	-0.105469	-0.206235	0.196861	-0.196861	0.703125	0.867188	0.515625	892	16_54_19_0280680
-0.067383	-0.714844	-0.108398	-0.206235	0.187486	-0.196861	0.679688	0.890625	0.503906	893	16_54_19_0441970
-0.079102	-0.711914	-0.108398	-0.206235	0.196861	-0.196861	0.667969	0.890625	0.503906	894	16_54_19_0603260
-0.070313	-0.717773	-0.102539	-0.206235	0.187486	-0.196861	0.679688	0.867188	0.503906	895	16_54_19_0764550
-0.076172	-0.706055	-0.108398	-0.206235	0.196861	-0.196861	0.667969	0.878906	0.503906	896	16_54_19_0925840
-0.082031	-0.711914	-0.114258	-0.206235	0.196861	-0.196861	0.691406	0.902344	0.515625	897	16_54_19_1087130
-0.084961	-0.720703	-0.108398	-0.206235	0.196861	-0.196861	0.691406	0.867188	0.539063	898	16_54_19_1248420
-0.070313	-0.711914	-0.108398	-0.206235	0.196861	-0.196861	0.667969	0.867188	0.550781	899	16_54_19_1409710
-0.070313	-0.717773	-0.108398	-0.206235	0.196861	-0.196861	0.679688	0.890625	0.515625	900	16_54_19_1571000
-0.067383	-0.711914	-0.108398	-0.206235	0.196861	-0.196861	0.644531	0.949219	0.527344	901	16_54_19_1732290
-0.084961	-0.708984	-0.102539	-0.206235	0.206235	-0.196861	0.691406	0.820313	0.515625	902	16_54_19_1893580
-0.079102	-0.717773	-0.114258	-0.206235	0.206235	-0.196861	0.679688	0.867188	0.480469	903	16_54_19_2054870
-0.076172	-0.714844	-0.108398	-0.206235	0.196861	-0.196861	0.691406	1.007813	0.492188	904	16_54_19_2216160
-0.084961	-0.711914	-0.108398	-0.206235	0.196861	-0.196861	0.667969	0.914063	0.492188	905	16_54_19_2377450
-0.076172	-0.708984	-0.108398	-0.206235	0.196861	-0.196861	0.703125	0.855469	0.457031	906	16_54_19_2538740
-0.084961	-0.703125	-0.105469	-0.206235	0.196861	-0.196861	0.644531	0.855469	0.492188	907	16_54_19_2700030
-0.070313	-0.703125	-0.114258	-0.206235	0.187486	-0.196861	0.691406	0.878906	0.503906	908	16_54_19_2861320
-0.082031	-0.711914	-0.105469	-0.206235	0.187486	-0.196861	0.691406	0.914063	0.503906	909	16_54_19_3022610
-0.079102	-0.714844	-0.105469	-0.206235	0.196861	-0.196861	0.679688	0.984375	0.550781	910	16_54_19_3183900
-0.076172	-0.708984	-0.111328	-0.206235	0.196861	-0.196861	0.691406	0.867188	0.503906	911	16_54_19_3345190
-0.084961	-0.714844	-0.114258	-0.206235	0.196861	-0.196861	0.667969	0.855469	0.503906	912	16_54_19_3506480
-0.067383	-0.717773	-0.114258	-0.206235	0.196861	-0.196861	0.691406	0.867188	0.480469	913	16_54_19_3667770
-0.073242	-0.714844	-0.105469	-0.206235	0.196861	-0.196861	0.679688	0.832031	0.480469	914	16_54_19_3829060
-0.079102	-0.711914	-0.108398	-0.206235	0.187486	-0.196861	0.691406	0.867188	0.480469	915	16_54_19_3990350
-0.082031	-0.723633	-0.123047	-0.206235	0.196861	-0.196861	0.691406	0.843750	0.515625	916	16_54_19_4151640
-0.082031	-0.703125	-0.111328	-0.206235	0.196861	-0.196861	0.750000	0.972656	0.550781	917	16_54_19_4312930
-0.073242	-0.711914	-0.099609	-0.206235	0.196861	-0.196861	0.679688	0.867188	0.503906	918	16_54_19_4474220
-0.076172	-0.714844	-0.108398	-0.206235	0.196861	-0.196861	0.691406	0.796875	0.492188	919	16_54_19_4635510
-0.076172	-0.703125	-0.114258	-0.206235	0.196861	-0.196861	0.691406	0.867188	0.527344	920	16_54_19_4796800
-0.076172	-0.720703	-0.117188	-0.206235	0.196861	-0.196861	0.691406	0.867188	0.527344	921	16_54_19_4958090
-0.082031	-0.714844	-0.111328	-0.206235	0.187486	-0.196861	0.679688	0.855469	0.527344	922	16_54_19_5119380
-0.079102	-0.708984	-0.111328	-0.206235	0.196861	-0.196861	0.691406	0.843750	0.527344	923	16_54_19_5280670
-0.079102	-0.717773	-0.105469	-0.206235	0.196861	-0.196861	0.703125	0.820313	0.515625	924	16_54_19_5441960
-0.070313	-0.711914	-0.099609	-0.206235	0.196861	-0.196861	0.644531	0.878906	0.492188	925	16_54_19_5603250
-0.076172	-0.706055	-0.108398	-0.206235	0.196861	-0.196861	0.679688	0.878906	0.527344	926	16_54_19_5764540
-0.076172	-0.697266	-0.108398	-0.206235	0.196861	-0.187486	0.691406	0.902344	0.550781	927	16_54_19_5925830
-0.076172	-0.708984	-0.102539	-0.206235	0.196861	-0.196861	0.667969	0.902344	0.515625	928	16_54_19_6087120
-0.076172	-0.703125	-0.114258	-0.206235	0.196861	-0.196861	0.667969	0.820313	0.503906	929	16_54_19_6248410
-0.084961	-0.703125	-0.114258	-0.196861	0.196861	-0.196861	0.691406	0.949219	0.503906	930	16_54_19_6409700
-0.084961	-0.711914	-0.117188	-0.206235	0.196861	-0.196861	0.679688	0.890625	0.527344	931	16_54_19_6570990
-0.079102	-0.723633	-0.114258	-0.206235	0.196861	-0.196861	0.703125	0.890625	0.539063	932	16_54_19_6732280
-0.076172	-0.708984	-0.111328	-0.206235	0.196861	-0.196861	0.691406	0.902344	0.515625	933	16_54_19_6893570
-0.076172	-0.708984	-0.108398	-0.206235	0.196861	-0.196861	0.691406	0.796875	0.503906	934	16_54_19_7054860
-0.082031	-0.708984	-0.114258	-0.206235	0.196861	-0.196861	0.667969	0.679688	0.503906	935	16_54_19_7216150
-0.082031	-0.703125	-0.111328	-0.206235	0.196861	-0.196861	0.644531	0.785156	0.515625	936	16_54_19_7377440
-0.070313	-0.706055	-0.102539	-0.206235	0.196861	-0.187486	0.691406	0.820313	0.550781	937	16_54_19_7538730
-0.067383	-0.708984	-0.105469	-0.206235	0.196861	-0.196861	0.667969	0.867188	0.503906	938	16_54_19_7700020
-0.076172	-0.708984	-0.102539	-0.206235	0.187486	-0.196861	0.691406	0.867188	0.468750	939	16_54_19_7861310
-0.082031	-0.708984	-0.120117	-0.206235	0.187486	-0.196861	0.667969	0.855469	0.480469	940	16_54_19_8022600
-0.076172	-0.726563	-0.108398	-0.206235	0.187486	-0.196861	0.667969	0.984375	0.539063	941	16_54_19_8183890
-0.076172	-0.708984	-0.108398	-0.206235	0.187486	-0.196861	0.691406	0.937500	0.515625	942	16_54_19_8345180
-0.079102	-0.714844	-0.102539	-0.206235	0.187486	-0.196861	0.667969	0.855469	0.503906	943	16_54_19_8506470
-0.076172	-0.706055	-0.111328	-0.206235	0.196861	-0.196861	0.691406	0.902344	0.492188	944	16_54_19_8667760
-0.064453	-0.711914	-0.117188	-0.206235	0.196861	-0.196861	0.667969	0.820313	0.468750	945	16_54_19_8829050
-0.073242	-0.708984	-0.114258	-0.206235	0.196861	-0.196861	0.691406	0.832031	0.503906	946	16_54_19_8990340
-0.079102	-0.703125	-0.105469	-0.206235	0.196861	-0.196861	0.691406	0.867188	0.503906	947	16_54_19_9151630
-0.079102	-0.703125	-0.102539	-0.206235	0.196861	-0.196861	0.820313	1.031250	0.550781	948	16_54_19_9312920
-0.082031	-0.697266	-0.120117	-0.206235	0.196861	-0.196861	0.667969	0.867188	0.515625	949	16_54_19_9474210
-0.076172	-0.703125	-0.114258	-0.206235	0.196861	-0.196861	0.667969	0.855469	0.468750	950	16_54_19_9635500
-0.076172	-0.708984	-0.102539	-0.206235	0.196861	-0.196861	0.691406	0.843750	0.480469	951	16_54_19_9796790
-0.076172	-0.706055	-0.105469	-0.206235	0.187486	-0.196861	0.691406	0.820313	0.503906	952	16_54_19_9958080
-0.070313	-0.714844	-0.102539	-0.206235	0.187486	-0.196861	0.679688	0.820313	0.527344	953	16_54_20_0119370
-0.076172	-0.717773	-0.102539	-0.206235	0.196861	-0.196861	0.691406	0.855469	0.515625	954	16_54_20_0280660
-0.076172	-0.711914	-0.111328	-0.206235	0.196861	-0.196861	0.667969	0.820313	0.527344	955	16_54_20_0441950
-0.067383	-0.711914	-0.108398	-0.206235	0.196861	-0.196861	0.691406	0.878906	0.539063	956	16_54_20_0603240
-0.076172	-0.706055	-0.108398	-0.206235	0.187486	-0.196861	0.667969	0.867188	0.503906	957	16_54_20_0764530
-0.073242	-0.711914	-0.117188	-0.206235	0.196861	-0.196861	0.691406	0.855469	0.480469	958	16_54_20_0925820
-0.067383	-0.703125	-0.111328	-0.206235	0.187486	-0.196861	0.691406	0.855469	0.492188	959	16_54_20_1087110
-0.082031	-0.708984	-0.111328	-0.206235	0.196861	-0.196861	0.679688	0.937500	0.492188	960	16_54_20_1248400
-0.076172	-0.720703	-0.123047	-0.206235	0.196861	-0.196861	0.679688	0.890625	0.503906	961	16_54_20_1409690
-0.082031	-0.708984	-0.102539	-0.206235	0.196861	-0.196861	0.691406	0.832031	0.515625	962	16_54_20_1570980
-0.082031	-0.703125	-0.114258	-0.206235	0.187486	-0.196861	0.679688	0.902344	0.527344	963	16_54_20_1732270
-0.070313	-0.708984	-0.117188	-0.206235	0.196861	-0.196861	0.667969	0.925781	0.527344	964	16_54_20_1893560
-0.067383	-0.706055	-0.102539	-0.206235	0.196861	-0.196861	0.691406	0.878906	0.503906	965	16_54_20_2054850
-0.079102	-0.703125	-0.105469	-0.206235	0.196861	-0.196861	0.691406	0.867188	0.492188	966	16_54_20_2216140
-0.079102	-0.714844	-0.111328	-0.206235	0.196861	-0.196861	0.691406	0.925781	0.468750	967	16_54_20_2377430
-0.079102	-0.703125	-0.117188	-0.206235	0.187486	-0.196861	0.667969	0.949219	0.480469	968	16_54_20_2538720
-0.070313	-0.703125	-0.117188	-0.206235	0.196861	-0.196861	0.679688	0.914063	0.480469	969	16_54_20_2700010
-0.076172	-0.703125	-0.117188	-0.206235	0.196861	-0.196861	0.691406	0.878906	0.480469	970	16_54_20_2861300
-0.070313	-0.703125	-0.105469	-0.206235	0.187486	-0.196861	0.679688	0.914063	0.480469	971	16_54_20_3022590
-0.070313	-0.708984	-0.108398	-0.196861	0.187486	-0.196861	0.667969	0.914063	0.503906	972	16_54_20_3183880
-0.079102	-0.714844	-0.105469	-0.206235	0.187486	-0.196861	0.679688	0.914063	0.527344	973	16_54_20_3345170
-0.076172	-0.703125	-0.108398	-0.206235	0.187486	-0.196861	0.691406	0.925781	0.515625	974	16_54_20_3506460
-0.076172	-0.708984	-0.114258	-0.206235	0.187486	-0.196861	0.644531	0.867188	0.515625	975	16_54_20_3667750
-0.076172	-0.714844	-0.120117	-0.206235	0.187486	-0.196861	0.773438	0.949219	0.527344	976	16_54_20_3829040
-0.079102	-0.717773	-0.108398	-0.206235	0.196861	-0.196861	0.667969	0.984375	0.503906	977	16_54_20_3990330
-0.070313	-0.714844	-0.108398	-0.206235	0.196861	-0.196861	0.679688	0.949219	0.527344	978	16_54_20_4151620
-0.076172	-0.714844	-0.114258	-0.206235	0.196861	-0.196861	0.691406	0.972656	0.503906	979	16_54_20_4312910
-0.076172	-0.706055	-0.105469	-0.206235	0.196861	-0.196861	0.667969	0.855469	0.492188	980	16_54_20_4474200
-0.070313	-0.706055	-0.117188	-0.206235	0.187486	-0.196861	0.691406	0.867188	0.503906	981	16_54_20_4635490
-0.076172	-0.711914	-0.111328	-0.206235	0.196861	-0.196861	0.691406	0.867188	0.515625	982	16_54_20_4796780
-0.070313	-0.691406	-0.108398	-0.206235	0.196861	-0.196861	0.679688	0.914063	0.503906	983	16_54_20_4958070
-0.076172	-0.708984	-0.108398	-0.206235	0.196861	-0.196861	0.738281	0.972656	0.480469	984	16_54_20_5119360
-0.064453	-0.703125	-0.114258	-0.206235	0.196861	-0.196861	0.691406	0.820313	0.515625	985	16_54_20_5280650
-0.076172	-0.711914	-0.120117	-0.206235	0.196861	-0.196861	0.667969	0.820313	0.527344	986	16_54_20_5441940
-0.070313	-0.708984	-0.108398	-0.206235	0.196861	-0.196861	0.667969	0.867188	0.515625	987	16_54_20_5603230
-0.067383	-0.711914	-0.102539	-0.206235	0.196861	-0.196861	0.738281	0.984375	0.503906	988	16_54_20_5764520
-0.070313	-0.703125	-0.102539	-0.206235	0.187486	-0.187486	0.667969	0.925781	0.503906	989	16_54_20_5925810
-0.070313	-0.706055	-0.105469	-0.206235	0.187486	-0.196861	0.667969	0.914063	0.503906	990	16_54_20_6087100
-0.070313	-0.711914	-0.099609	-0.206235	0.187486	-0.196861	0.691406	0.902344	0.480469	991	16_54_20_6248390
-0.070313	-0.717773	-0.102539	-0.206235	0.187486	-0.196861	0.644531	0.937500	0.492188	992	16_54_20_6409680
-0.073242	-0.714844	-0.105469	-0.206235	0.187486	-0.196861	0.691406	0.984375	0.480469	993	16_54_20_6570970
-0.079102	-0.703125	-0.111328	-0.206235	0.196861	-0.196861	0.667969	0.843750	0.492188	994	16_54_20_6732260
-0.082031	-0.714844	-0.108398	-0.206235	0.187486	-0.196861	0.667969	0.890625	0.503906	995	16_54_20_6893550
-0.076172	-0.703125	-0.117188	-0.206235	0.196861	-0.196861	0.691406	0.914063	0.503906	996	16_54_20_7054840
-0.067383	-0.720703	-0.114258	-0.206235	0.196861	-0.196861	0.703125	0.949219	0.503906	997	16_54_20_7216130
-0.070313	-0.708984	-0.108398	-0.206235	0.196861	-0.196861	0.679688	0.960938	0.503906	998	16_54_20_7377420
-0.070313	-0.697266	-0.105469	-0.206235	0.196861	-0.196861	0.667969	0.902344	0.539063	999	16_54_20_7538710
-0.076172	-0.714844	-0.102539	-0.206235	0.187486	-0.196861	0.691406	0.867188	0.562500	1000	16_54_20_7700000
-0.076172	-0.706055	-0.105469	-0.206235	0.187486	-0.196861	0.679688	0.890625	0.515625	1001	16_54_20_7861290
-0.073242	-0.708984	-0.111328	-0.206235	0.187486	-0.196861	0.691406	0.820313	0.515625	1002	16_54_20_8022580
-0.079102	-0.703125	-0.099609	-0.206235	0.187486	-0.196861	0.667969	0.902344	0.492188	1003	16_54_20_8183870
-0.076172	-0.708984	-0.105469	-0.206235	0.187486	-0.196861	0.667969	0.890625	0.480469	1004	16_54_20_8345160
-0.073242	-0.706055	-0.108398	-0.206235	0.196861	-0.196861	0.679688	0.937500	0.503906	1005	16_54_20_8506450
-0.079102	-0.706055	-0.108398	-0.206235	0.187486	-0.196861	0.691406	0.867188	0.550781	1006	16_54_20_8667740
-0.079102	-0.714844	-0.096680	-0.206235	0.187486	-0.196861	0.667969	0.890625	0.539063	1007	16_54_20_8829030
-0.076172	-0.720703	-0.114258	-0.215609	0.187486	-0.196861	0.691406	0.914063	0.515625	1008	16_54_20_8990320
-0.079102	-0.703125	-0.108398	-0.206235	0.187486	-0.196861	0.691406	0.867188	0.503906	1009	16_54_20_9151610
-0.067383	-0.711914	-0.105469	-0.206235	0.196861	-0.196861	0.703125	0.832031	0.480469	1010	16_54_20_9312900
-0.076172	-0.711914	-0.111328	-0.206235	0.187486	-0.196861	0.691406	0.867188	0.480469	1011	16_54_20_9474190
-0.076172	-0.717773	-0.108398	-0.206235	0.187486	-0.196861	0.691406	0.890625	0.492188	1012	16_54_20_9635480
-0.079102	-0.708984	-0.114258	-0.206235	0.187486	-0.196861	0.679688	0.808594	0.480469	1013	16_54_20_9796770
-0.070313	-0.711914	-0.111328	-0.206235	0.187486	-0.196861	0.679688	0.832031	0.503906	1014	16_54_20_9958060
-0.079102	-0.708984	-0.108398	-0.196861	0.196861	-0.196861	0.667969	0.843750	0.503906	1015	16_54_21_0119350
-0.079102	-0.706055	-0.111328	-0.206235	0.187486	-0.187486	0.703125	0.843750	0.515625	1016	16_54_21_0280640
-0.084961	-0.717773	-0.108398	-0.206235	0.196861	-0.196861	0.703125	0.878906	0.492188	1017	16_54_21_0441930
-0.076172	-0.711914	-0.099609	-0.206235	0.196861	-0.196861	0.679688	0.878906	0.503906	1018	16_54_21_0603220
-0.076172	-0.706055	-0.108398	-0.206235	0.187486	-0.196861	0.679688	0.914063	0.480469	1019	16_54_21_0764510
-0.079102	-0.720703	-0.114258	-0.206235	0.196861	-0.196861	0.667969	0.832031	0.457031	1020	16_54_21_0925800
-0.076172	-0.720703	-0.108398	-0.206235	0.196861	-0.196861	0.667969	0.820313	0.492188	1021	16_54_21_1087090
-0.087891	-0.720703	-0.105469	-0.206235	0.187486	-0.196861	0.750000	1.089844	0.562500	1022	16_54_21_1248380
-0.064453	-0.711914	-0.114258	-0.206235	0.187486	-0.196861	0.714844	1.089844	0.527344	1023	16_54_21_1409670
-0.076172	-0.714844	-0.114258	-0.206235	0.196861	-0.196861	0.679688	0.820313	0.503906	1024	16_54_21_1570960
-0.073242	-0.708984	-0.105469	-0.206235	0.196861	-0.196861	0.667969	0.890625	0.492188	1025	16_54_21_1732250
-0.073242	-0.708984	-0.102539	-0.206235	0.187486	-0.196861	0.679688	0.867188	0.480469	1026	16_54_21_1893540
-0.079102	-0.700195	-0.108398	-0.206235	0.187486	-0.196861	0.691406	0.843750	0.480469	1027	16_54_21_2054830
-0.076172	-0.714844	-0.105469	-0.206235	0.196861	-0.196861	0.667969	0.890625	0.457031	1028	16_54_21_2216120
-0.076172	-0.711914	-0.114258	-0.206235	0.187486	-0.196861	0.691406	0.890625	0.457031	1029	16_54_21_2377410
-0.067383	-0.717773	-0.105469	-0.206235	0.187486	-0.196861	0.691406	0.925781	0.492188	1030	16_54_21_2538700
-0.070313	-0.714844	-0.105469	-0.206235	0.196861	-0.196861	0.691406	0.984375	0.515625	1031	16_54_21_2699990
-0.082031	-0.720703	-0.105469	-0.206235	0.187486	-0.196861	0.667969	0.914063	0.503906	1032	16_54_21_2861280
-0.067383	-0.706055	-0.102539	-0.206235	0.187486	-0.196861	0.667969	0.960938	0.492188	1033	16_54_21_3022570
-0.067383	-0.717773	-0.108398	-0.206235	0.187486	-0.187486	0.691406	0.914063	0.503906	1034	16_54_21_3183860
-0.079102	-0.703125	-0.105469	-0.206235	0.196861	-0.196861	0.667969	0.855469	0.527344	1035	16_54_21_3345150
-0.084961	-0.706055	-0.114258	-0.206235	0.196861	-0.196861	0.679688	0.855469	0.527344	1036	16_54_21_3506440
-0.070313	-0.708984	-0.105469	-0.206235	0.196861	-0.196861	0.691406	0.960938	0.492188	1037	16_54_21_3667730
-0.082031	-0.720703	-0.108398	-0.206235	0.196861	-0.196861	0.667969	0.937500	0.503906	1038	16_54_21_3829020
-0.076172	-0.708984	-0.108398	-0.206235	0.196861	-0.196861	0.691406	0.808594	0.515625	1039	16_54_21_3990310
-0.067383	-0.711914	-0.111328	-0.206235	0.196861	-0.196861	0.691406	0.914063	0.503906	1040	16_54_21_4151600
-0.076172	-0.703125	-0.102539	-0.206235	0.187486	-0.196861	0.679688	0.914063	0.503906	1041	16_54_21_4312890
-0.082031	-0.717773	-0.105469	-0.206235	0.187486	-0.196861	0.691406	0.878906	0.515625	1042	16_54_21_4474180
-0.067383	-0.706055	-0.105469	-0.206235	0.196861	-0.196861	0.796875	1.054688	0.527344	1043	16_54_21_4635470
-0.073242	-0.708984	-0.111328	-0.206235	0.196861	-0.196861	0.691406	0.996094	0.503906	1044	16_54_21_4796760
-0.070313	-0.708984	-0.114258	-0.206235	0.196861	-0.196861	0.691406	0.960938	0.492188	1045	16_54_21_4958050
-0.070313	-0.708984	-0.105469	-0.206235	0.196861	-0.196861	0.691406	0.914063	0.492188	1046	16_54_21_5119340
-0.061523	-0.717773	-0.105469	-0.206235	0.206235	-0.196861	0.632813	0.925781	0.492188	1047	16_54_21_5280630
-0.079102	-0.717773	-0.108398	-0.206235	0.206235	-0.196861	0.679688	0.902344	0.468750	1048	16_54_21_5441920
-0.082031	-0.708984	-0.108398	-0.206235	0.196861	-0.196861	0.691406	0.878906	0.480469	1049	16_54_21_5603210
-0.067383	-0.708984	-0.111328	-0.206235	0.196861	-0.196861	0.667969	0.902344	0.503906	1050	16_54_21_5764500
-0.082031	-0.697266	-0.117188	-0.206235	0.196861	-0.187486	0.667969	0.937500	0.503906	1051	16_54_21_5925790
-0.073242	-0.711914	-0.108398	-0.206235	0.187486	-0.196861	0.691406	0.855469	0.503906	1052	16_54_21_6087080
-0.067383	-0.700195	-0.105469	-0.206235	0.187486	-0.196861	0.667969	0.867188	0.515625	1053	16_54_21_6248370
-0.076172	-0.711914	-0.105469	-0.206235	0.196861	-0.196861	0.644531	0.914063	0.503906	1054	16_54_21_6409660
-0.076172	-0.711914	-0.111328	-0.206235	0.196861	-0.196861	0.691406	0.867188	0.503906	1055	16_54_21_6570950
-0.084961	-0.708984	-0.108398	-0.206235	0.196861	-0.196861	0.679688	0.855469	0.492188	1056	16_54_21_6732240
-0.067383	-0.708984	-0.117188	-0.206235	0.187486	-0.196861	0.656250	0.796875	0.480469	1057	16_54_21_6893530
-0.076172	-0.700195	-0.108398	-0.206235	0.196861	-0.196861	0.691406	0.843750	0.503906	1058	16_54_21_7054820
-0.076172	-0.720703	-0.111328	-0.206235	0.196861	-0.196861	0.667969	0.843750	0.527344	1059	16_54_21_7216110
-0.067383	-0.708984	-0.111328	-0.206235	0.196861	-0.196861	0.679688	0.902344	0.515625	1060	16_54_21_7377400
-0.079102	-0.706055	-0.108398	-0.206235	0.196861	-0.196861	0.785156	1.078125	0.492188	1061	16_54_21_7538690
-0.073242	-0.703125	-0.111328	-0.206235	0.196861	-0.196861	0.679688	0.902344	0.468750	1062	16_54_21_7699980
-0.079102	-0.706055	-0.108398	-0.206235	0.196861	-0.196861	0.667969	0.867188	0.503906	1063	16_54_21_7861270
-0.076172	-0.708984	-0.111328	-0.206235	0.196861	-0.196861	0.667969	0.878906	0.527344	1064	16_54_21_8022560
-0.082031	-0.708984	-0.108398	-0.206235	0.196861	-0.196861	0.691406	0.867188	0.515625	1065	16_54_21_8183850
-0.076172	-0.720703	-0.108398	-0.206235	0.196861	-0.196861	0.679688	0.820313	0.492188	1066	16_54_21_8345140
-0.079102	-0.706055	-0.108398	-0.206235	0.206235	-0.196861	0.632813	0.867188	0.492188	1067	16_54_21_8506430
-0.082031	-0.714844	-0.102539	-0.206235	0.206235	-0.196861	0.667969	0.867188	0.492188	1068	16_54_21_8667720
-0.076172	-0.708984	-0.105469	-0.206235	0.196861	-0.196861	0.679688	0.890625	0.503906	1069	16_54_21_8829010
-0.084961	-0.714844	-0.108398	-0.206235	0.196861	-0.196861	0.714844	0.914063	0.503906	1070	16_54_21_8990300
-0.073242	-0.711914	-0.102539	-0.206235	0.187486	-0.196861	0.691406	0.960938	0.527344	1071	16_54_21_9151590
-0.067383	-0.708984	-0.114258	-0.206235	0.196861	-0.196861	0.667969	0.984375	0.503906	1072	16_54_21_9312880
-0.076172	-0.708984	-0.114258	-0.206235	0.196861	-0.196861	0.691406	0.878906	0.480469	1073	16_54_21_9474170
-0.082031	-0.708984	-0.114258	-0.206235	0.187486	-0.196861	0.632813	0.867188	0.539063	1074	16_54_21_9635460
-0.076172	-0.706055	-0.108398	-0.206235	0.196861	-0.196861	0.667969	0.914063	0.539063	1075	16_54_21_9796750
-0.087891	-0.706055	-0.111328	-0.215609	0.206235	-0.187486	0.667969	0.878906	0.515625	1076	16_54_21_9958040
-0.087891	-0.708984	-0.114258	-0.206235	0.196861	-0.196861	0.691406	0.832031	0.539063	1077	16_54_22_0119330
-0.076172	-0.708984	-0.111328	-0.206235	0.187486	-0.196861	0.691406	0.855469	0.515625	1078	16_54_22_0280620
-0.076172	-0.708984	-0.108398	-0.206235	0.196861	-0.196861	0.679688	0.867188	0.515625	1079	16_54_22_0441910
-0.084961	-0.711914	-0.114258	-0.196861	0.196861	-0.196861	0.667969	0.890625	0.503906	1080	16_54_22_0603200
-0.076172	-0.714844	-0.114258	-0.206235	0.196861	-0.196861	0.667969	0.902344	0.515625	1081	16_54_22_0764490
-0.079102	-0.711914	-0.108398	-0.206235	0.206235	-0.196861	0.667969	0.832031	0.503906	1082	16_54_22_0925780
-0.064453	-0.714844	-0.102539	-0.215609	0.196861	-0.187486	0.679688	0.855469	0.503906	1083	16_54_22_1087070
-0.070313	-0.697266	-0.105469	-0.206235	0.187486	-0.187486	0.691406	0.855469	0.503906	1084	16_54_22_1248360
-0.076172	-0.703125	-0.108398	-0.206235	0.196861	-0.187486	0.703125	0.914063	0.480469	1085	16_54_22_1409650
-0.073242	-0.708984	-0.108398	-0.206235	0.196861	-0.187486	0.667969	0.855469	0.492188	1086	16_54_22_1570940
-0.076172	-0.706055	-0.114258	-0.206235	0.196861	-0.187486	0.691406	0.902344	0.503906	1087	16_54_22_1732230
-0.073242	-0.711914	-0.108398	-0.206235	0.196861	-0.187486	0.691406	0.914063	0.480469	1088	16_54_22_1893520
-0.076172	-0.717773	-0.111328	-0.206235	0.196861	-0.187486	0.691406	0.878906	0.480469	1089	16_54_22_2054810
-0.079102	-0.711914	-0.111328	-0.206235	0.196861	-0.196861	0.644531	0.855469	0.480469	1090	16_54_22_2216100
-0.067383	-0.711914	-0.099609	-0.206235	0.196861	-0.196861	0.667969	0.878906	0.515625	1091	16_54_22_2377390
-0.064453	-0.708984	-0.087891	-0.206235	0.187486	-0.196861	0.667969	0.914063	0.550781	1092	16_54_22_2538680
-0.058594	-0.700195	-0.099609	-0.196861	0.187486	-0.196861	0.667969	0.820313	0.503906	1093	16_54_22_2699970
-0.064453	-0.703125	-0.087891	-0.187486	0.187486	-0.206235	0.738281	0.996094	0.468750	1094	16_54_22_2861260
-0.067383	-0.714844	-0.102539	-0.196861	0.196861	-0.196861	0.691406	0.914063	0.492188	1095	16_54_22_3022550
-0.067383	-0.708984	-0.117188	-0.196861	0.206235	-0.196861	0.679688	0.808594	0.515625	1096	16_54_22_3183840
-0.079102	-0.708984	-0.123047	-0.206235	0.206235	-0.196861	0.667969	0.855469	0.492188	1097	16_54_22_3345130
-0.087891	-0.711914	-0.128906	-0.206235	0.215609	-0.187486	0.656250	0.914063	0.468750	1098	16_54_22_3506420
-0.087891	-0.706055	-0.111328	-0.206235	0.215609	-0.187486	0.679688	0.867188	0.503906	1099	16_54_22_3667710
-0.099609	-0.694336	-0.114258	-0.206235	0.206235	-0.178112	0.667969	0.867188	0.492188	1100	16_54_22_3829000
-0.096680	-0.706055	-0.117188	-0.206235	0.196861	-0.178112	0.667969	0.808594	0.468750	1101	16_54_22_3990290
-0.076172	-0.703125	-0.117188	-0.196861	0.187486	-0.178112	0.667969	0.867188	0.468750	1102	16_54_22_4151580
-0.082031	-0.711914	-0.114258	-0.196861	0.178112	-0.178112	0.667969	0.914063	0.515625	1103	16_54_22_4312870
-0.079102	-0.711914	-0.117188	-0.196861	0.168738	-0.178112	0.679688	0.878906	0.539063	1104	16_54_22_4474160
-0.067383	-0.717773	-0.108398	-0.196861	0.178112	-0.178112	0.667969	0.820313	0.527344	1105	16_54_22_4635450
-0.055664	-0.723633	-0.123047	-0.187486	0.178112	-0.178112	0.656250	0.925781	0.550781	1106	16_54_22_4796740
-0.049805	-0.732422	-0.125977	-0.196861	0.178112	-0.178112	0.679688	0.902344	0.539063	1107	16_54_22_4958030
-0.049805	-0.726563	-0.114258	-0.206235	0.187486	-0.178112	0.679688	0.855469	0.503906	1108	16_54_22_5119320
-0.058594	-0.717773	-0.125977	-0.206235	0.196861	-0.187486	0.667969	0.902344	0.503906	1109	16_54_22_5280610
-0.067383	-0.720703	-0.114258	-0.215609	0.206235	-0.187486	0.679688	0.878906	0.503906	1110	16_54_22_5441900
-0.052734	-0.717773	-0.102539	-0.206235	0.206235	-0.196861	0.679688	0.867188	0.503906	1111	16_54_22_5603190
-0.052734	-0.714844	-0.108398	-0.215609	0.206235	-0.196861	0.679688	0.820313	0.527344	1112	16_54_22_5764480
-0.058594	-0.720703	-0.105469	-0.206235	0.206235	-0.206235	0.667969	0.890625	0.515625	1113	16_54_22_5925770
-0.061523	-0.711914	-0.111328	-0.215609	0.206235	-0.206235	0.679688	0.925781	0.492188	1114	16_54_22_6087060
-0.058594	-0.708984	-0.120117	-0.215609	0.206235	-0.206235	0.667969	0.914063	0.492188	1115	16_54_22_6248350
-0.061523	-0.703125	-0.111328	-0.215609	0.206235	-0.206235	0.691406	0.972656	0.527344	1116	16_54_22_6409640
-0.067383	-0.700195	-0.108398	-0.206235	0.206235	-0.206235	0.691406	0.820313	0.503906	1117	16_54_22_6570930
-0.067383	-0.708984	-0.114258	-0.206235	0.196861	-0.206235	0.667969	0.820313	0.492188	1118	16_54_22_6732220
-0.067383	-0.714844	-0.114258	-0.196861	0.206235	-0.206235	0.667969	0.890625	0.503906	1119	16_54_22_6893510
