sensor_ID	000666015711
Accel_X	Accel_Y	Accel_Z	Roll	Pitch	Yaw	Mag_X	Mag_Y	Mag_Z	Count	SysTime
0.038086	-0.196289	0.688477	-0.759320	-0.318727	-0.506213	-0.316406	-0.070313	-0.175781	0	16_54_04_6410000
0.041016	-0.199219	0.688477	-0.759320	-0.318727	-0.496839	-0.328125	-0.093750	-0.140625	1	16_54_04_6571290
0.026367	-0.190430	0.682617	-0.759320	-0.318727	-0.496839	-0.304688	-0.105469	-0.117188	2	16_54_04_6732580
0.026367	-0.193359	0.688477	-0.759320	-0.318727	-0.496839	-0.316406	-0.093750	-0.058594	3	16_54_04_6893870
0.017578	-0.196289	0.691406	-0.768694	-0.318727	-0.496839	-0.316406	-0.105469	-0.082031	4	16_54_04_7055160
0.029297	-0.199219	0.697266	-0.759320	-0.318727	-0.496839	-0.316406	-0.070313	-0.058594	5	16_54_04_7216450
0.017578	-0.205078	0.691406	-0.759320	-0.318727	-0.496839	-0.316406	-0.070313	-0.070313	6	16_54_04_7377740
0.020508	-0.199219	0.685547	-0.759320	-0.318727	-0.496839	-0.339844	-0.082031	-0.152344	7	16_54_04_7539030
0.020508	-0.202148	0.685547	-0.740571	-0.318727	-0.496839	-0.328125	-0.082031	-0.152344	8	16_54_04_7700320
0.017578	-0.196289	0.688477	-0.768694	-0.318727	-0.506213	-0.304688	-0.082031	-0.164063	9	16_54_04_7861610
0.011719	-0.208008	0.679688	-0.759320	-0.318727	-0.496839	-0.316406	-0.105469	-0.175781	10	16_54_04_8022900
0.020508	-0.193359	0.688477	-0.759320	-0.318727	-0.496839	-0.316406	-0.105469	-0.164063	11	16_54_04_8184190
0.029297	-0.199219	0.688477	-0.759320	-0.318727	-0.496839	-0.304688	-0.082031	-0.105469	12	16_54_04_8345480
0.020508	-0.196289	0.688477	-0.759320	-0.328101	-0.506213	-0.152344	-0.070313	-0.023438	13	16_54_04_8506770
0.023438	-0.190430	0.688477	-0.759320	-0.337475	-0.506213	-0.304688	-0.117188	-0.152344	14	16_54_04_8668060
0.035156	-0.193359	0.700195	-0.768694	-0.328101	-0.506213	-0.070313	0.000000	0.000000	15	16_54_04_8829350
0.029297	-0.196289	0.685547	-0.759320	-0.337475	-0.506213	-0.316406	-0.082031	-0.152344	16	16_54_04_8990640
0.029297	-0.190430	0.688477	-0.759320	-0.337475	-0.506213	-0.304688	-0.093750	-0.140625	17	16_54_04_9151930
0.041016	-0.181641	0.691406	-0.759320	-0.337475	-0.506213	-0.316406	-0.070313	-0.164063	18	16_54_04_9313220
0.029297	-0.190430	0.688477	-0.749946	-0.318727	-0.496839	-0.316406	-0.070313	-0.140625	19	16_54_04_9474510
0.043945	-0.184570	0.694336	-0.759320	-0.318727	-0.506213	-0.281250	-0.070313	-0.058594	20	16_54_04_9635800
0.035156	-0.187500	0.688477	-0.759320	-0.318727	-0.506213	-0.339844	-0.070313	-0.070313	21	16_54_04_9797090
0.032227	-0.187500	0.694336	-0.768694	-0.318727	-0.496839	-0.304688	-0.093750	-0.128906	22	16_54_04_9958380
0.032227	-0.190430	0.700195	-0.759320	-0.328101	-0.496839	-0.316406	-0.140625	-0.105469	23	16_54_05_0119670
0.035156	-0.187500	0.688477	-0.759320	-0.328101	-0.506213	-0.316406	-0.105469	-0.082031	24	16_54_05_0280960
0.035156	-0.190430	0.682617	-0.759320	-0.318727	-0.496839	-0.316406	-0.093750	-0.093750	25	16_54_05_0442250
0.041016	-0.175781	0.688477	-0.759320	-0.318727	-0.496839	-0.304688	-0.070313	-0.093750	26	16_54_05_0603540
0.035156	-0.190430	0.688477	-0.749946	-0.318727	-0.496839	-0.316406	-0.093750	-0.117188	27	16_54_05_0764830
0.032227	-0.190430	0.682617	-0.759320	-0.309353	-0.496839	-0.292969	-0.128906	-0.105469	28	16_54_05_0926120
0.017578	-0.184570	0.694336	-0.768694	-0.318727	-0.496839	-0.257813	-0.058594	-0.093750	29	16_54_05_1087410
0.017578	-0.202148	0.688477	-0.759320	-0.318727	-0.496839	-0.339844	-0.070313	-0.152344	30	16_54_05_1248700
0.017578	-0.193359	0.691406	-0.759320	-0.318727	-0.496839	-0.316406	-0.117188	-0.117188	31	16_54_05_1409990
0.032227	-0.190430	0.688477	-0.759320	-0.318727	-0.496839	-0.316406	-0.105469	-0.105469	32	16_54_05_1571280
0.026367	-0.196289	0.688477	-0.759320	-0.318727	-0.496839	-0.351563	-0.070313	-0.082031	33	16_54_05_1732570
0.029297	-0.181641	0.691406	-0.759320	-0.318727	-0.496839	-0.316406	-0.070313	-0.128906	34	16_54_05_1893860
0.026367	-0.196289	0.685547	-0.759320	-0.318727	-0.496839	-0.093750	0.023438	-0.070313	35	16_54_05_2055150
0.017578	-0.199219	0.688477	-0.759320	-0.318727	-0.506213	-0.316406	-0.070313	-0.093750	36	16_54_05_2216440
0.020508	-0.184570	0.691406	-0.759320	-0.318727	-0.496839	-0.316406	-0.082031	-0.093750	37	16_54_05_2377730
0.017578	-0.187500	0.685547	-0.749946	-0.318727	-0.496839	-0.316406	-0.117188	-0.105469	38	16_54_05_2539020
0.041016	-0.184570	0.688477	-0.759320	-0.318727	-0.496839	-0.316406	-0.105469	-0.105469	39	16_54_05_2700310
0.038086	-0.187500	0.697266	-0.768694	-0.328101	-0.496839	-0.269531	-0.046875	0.046875	40	16_54_05_2861600
0.029297	-0.193359	0.688477	-0.759320	-0.318727	-0.506213	-0.304688	-0.093750	-0.082031	41	16_54_05_3022890
0.035156	-0.193359	0.691406	-0.759320	-0.318727	-0.506213	-0.316406	-0.117188	-0.117188	42	16_54_05_3184180
0.029297	-0.187500	0.688477	-0.759320	-0.318727	-0.496839	-0.316406	-0.128906	-0.140625	43	16_54_05_3345470
0.041016	-0.196289	0.691406	-0.759320	-0.328101	-0.506213	-0.187500	-0.046875	-0.105469	44	16_54_05_3506760
0.038086	-0.196289	0.691406	-0.759320	-0.318727	-0.496839	-0.316406	-0.082031	-0.152344	45	16_54_05_3668050
0.029297	-0.187500	0.694336	-0.759320	-0.318727	-0.506213	-0.316406	-0.117188	-0.140625	46	16_54_05_3829340
0.035156	-0.199219	0.691406	-0.759320	-0.318727	-0.496839	-0.304688	-0.117188	-0.105469	47	16_54_05_3990630
0.026367	-0.184570	0.691406	-0.759320	-0.318727	-0.506213	-0.316406	-0.128906	-0.082031	48	16_54_05_4151920
0.026367	-0.196289	0.691406	-0.759320	-0.318727	-0.496839	-0.316406	-0.082031	-0.105469	49	16_54_05_4313210
0.029297	-0.196289	0.688477	-0.768694	-0.318727	-0.496839	-0.304688	-0.105469	-0.070313	50	16_54_05_4474500
0.023438	-0.196289	0.694336	-0.768694	-0.328101	-0.506213	-0.257813	-0.082031	-0.011719	51	16_54_05_4635790
0.026367	-0.199219	0.691406	-0.759320	-0.318727	-0.496839	-0.304688	-0.093750	-0.082031	52	16_54_05_4797080
0.041016	-0.181641	0.688477	-0.768694	-0.318727	-0.506213	-0.292969	-0.117188	-0.152344	53	16_54_05_4958370
0.026367	-0.184570	0.691406	-0.759320	-0.318727	-0.496839	-0.339844	-0.117188	-0.152344	54	16_54_05_5119660
0.032227	-0.205078	0.682617	-0.759320	-0.318727	-0.506213	-0.328125	-0.105469	-0.070313	55	16_54_05_5280950
0.029297	-0.196289	0.688477	-0.759320	-0.318727	-0.506213	-0.304688	-0.070313	-0.070313	56	16_54_05_5442240
0.026367	-0.190430	0.691406	-0.759320	-0.318727	-0.496839	-0.339844	-0.082031	-0.082031	57	16_54_05_5603530
0.032227	-0.190430	0.682617	-0.759320	-0.318727	-0.496839	-0.316406	-0.082031	-0.105469	58	16_54_05_5764820
0.032227	-0.187500	0.688477	-0.768694	-0.318727	-0.496839	-0.304688	-0.035156	-0.011719	59	16_54_05_5926110
0.032227	-0.193359	0.688477	-0.759320	-0.318727	-0.496839	-0.316406	-0.128906	-0.117188	60	16_54_05_6087400
0.038086	-0.193359	0.694336	-0.759320	-0.318727	-0.496839	-0.316406	-0.070313	-0.093750	61	16_54_05_6248690
0.023438	-0.181641	0.688477	-0.759320	-0.318727	-0.506213	-0.304688	-0.070313	-0.070313	62	16_54_05_6409980
0.029297	-0.193359	0.685547	-0.759320	-0.318727	-0.496839	-0.304688	-0.070313	-0.093750	63	16_54_05_6571270
0.032227	-0.193359	0.694336	-0.759320	-0.328101	-0.506213	-0.316406	-0.082031	-0.128906	64	16_54_05_6732560
0.041016	-0.193359	0.688477	-0.768694	-0.318727	-0.496839	-0.304688	-0.117188	-0.058594	65	16_54_05_6893850
0.032227	-0.193359	0.688477	-0.759320	-0.318727	-0.496839	-0.316406	-0.128906	-0.058594	66	16_54_05_7055140
0.032227	-0.208008	0.694336	-0.759320	-0.318727	-0.506213	-0.199219	-0.082031	-0.023438	67	16_54_05_7216430
0.032227	-0.202148	0.691406	-0.759320	-0.318727	-0.496839	-0.316406	-0.070313	-0.035156	68	16_54_05_7377720
0.032227	-0.199219	0.688477	-0.759320	-0.318727	-0.496839	-0.316406	-0.070313	-0.105469	69	16_54_05_7539010
0.032227	-0.187500	0.691406	-0.759320	-0.318727	-0.496839	-0.316406	-0.070313	-0.128906	70	16_54_05_7700300
0.014648	-0.184570	0.694336	-0.768694	-0.318727	-0.496839	-0.316406	-0.070313	-0.035156	71	16_54_05_7861590
0.029297	-0.187500	0.688477	-0.759320	-0.318727	-0.496839	-0.316406	-0.082031	-0.152344	72	16_54_05_8022880
0.026367	-0.193359	0.688477	-0.759320	-0.328101	-0.496839	-0.339844	-0.117188	-0.175781	73	16_54_05_8184170
0.035156	-0.199219	0.691406	-0.759320	-0.328101	-0.496839	-0.316406	-0.140625	-0.140625	74	16_54_05_8345460
0.032227	-0.196289	0.688477	-0.768694	-0.337475	-0.496839	-0.140625	-0.128906	-0.023438	75	16_54_05_8506750
0.038086	-0.190430	0.685547	-0.759320	-0.328101	-0.496839	-0.316406	-0.082031	-0.117188	76	16_54_05_8668040
0.038086	-0.193359	0.688477	-0.759320	-0.328101	-0.506213	-0.316406	-0.082031	-0.140625	77	16_54_05_8829330
0.035156	-0.184570	0.688477	-0.759320	-0.318727	-0.496839	-0.316406	-0.117188	-0.175781	78	16_54_05_8990620
0.049805	-0.187500	0.691406	-0.759320	-0.318727	-0.506213	-0.316406	-0.128906	-0.093750	79	16_54_05_9151910
0.035156	-0.193359	0.691406	-0.759320	-0.318727	-0.506213	-0.316406	-0.105469	-0.046875	80	16_54_05_9313200
0.038086	-0.184570	0.688477	-0.768694	-0.318727	-0.496839	-0.316406	-0.082031	-0.082031	81	16_54_05_9474490
0.026367	-0.187500	0.688477	-0.759320	-0.318727	-0.506213	-0.316406	-0.105469	-0.128906	82	16_54_05_9635780
0.038086	-0.190430	0.700195	-0.759320	-0.318727	-0.506213	-0.316406	-0.117188	-0.152344	83	16_54_05_9797070
0.026367	-0.187500	0.682617	-0.759320	-0.318727	-0.496839	-0.304688	-0.105469	-0.152344	84	16_54_05_9958360
0.032227	-0.190430	0.691406	-0.759320	-0.318727	-0.496839	-0.351563	-0.117188	-0.093750	85	16_54_06_0119650
0.035156	-0.193359	0.700195	-0.759320	-0.318727	-0.496839	-0.164063	-0.105469	0.011719	86	16_54_06_0280940
0.032227	-0.187500	0.694336	-0.759320	-0.318727	-0.496839	-0.316406	-0.093750	-0.164063	87	16_54_06_0442230
0.023438	-0.193359	0.694336	-0.759320	-0.318727	-0.496839	-0.316406	-0.117188	-0.140625	88	16_54_06_0603520
0.026367	-0.193359	0.688477	-0.749946	-0.318727	-0.496839	-0.316406	-0.105469	-0.105469	89	16_54_06_0764810
0.032227	-0.181641	0.685547	-0.759320	-0.318727	-0.496839	-0.316406	-0.117188	-0.093750	90	16_54_06_0926100
0.026367	-0.190430	0.691406	-0.749946	-0.309353	-0.496839	-0.316406	-0.117188	-0.152344	91	16_54_06_1087390
0.029297	-0.193359	0.688477	-0.749946	-0.318727	-0.496839	-0.316406	-0.082031	-0.140625	92	16_54_06_1248680
0.029297	-0.193359	0.694336	-0.759320	-0.318727	-0.506213	-0.316406	-0.093750	-0.128906	93	16_54_06_1409970
0.026367	-0.196289	0.688477	-0.759320	-0.318727	-0.496839	-0.316406	-0.070313	-0.093750	94	16_54_06_1571260
0.026367	-0.193359	0.679688	-0.749946	-0.318727	-0.496839	-0.316406	-0.082031	-0.082031	95	16_54_06_1732550
0.023438	-0.187500	0.700195	-0.768694	-0.318727	-0.496839	-0.304688	-0.093750	-0.082031	96	16_54_06_1893840
0.026367	-0.199219	0.682617	-0.759320	-0.318727	-0.496839	-0.304688	-0.082031	-0.082031	97	16_54_06_2055130
0.026367	-0.190430	0.679688	-0.759320	-0.318727	-0.496839	-0.105469	0.011719	0.070313	98	16_54_06_2216420
0.029297	-0.187500	0.682617	-0.759320	-0.318727	-0.496839	-0.304688	-0.070313	-0.093750	99	16_54_06_2377710
0.020508	-0.187500	0.688477	-0.759320	-0.318727	-0.496839	-0.304688	-0.082031	-0.117188	100	16_54_06_2539000
0.023438	-0.199219	0.691406	-0.749946	-0.318727	-0.496839	-0.304688	-0.093750	-0.093750	101	16_54_06_2700290
0.035156	-0.208008	0.691406	-0.759320	-0.318727	-0.496839	-0.316406	-0.082031	-0.093750	102	16_54_06_2861580
0.017578	-0.193359	0.691406	-0.759320	-0.318727	-0.506213	-0.316406	-0.105469	-0.070313	103	16_54_06_3022870
0.023438	-0.187500	0.688477	-0.749946	-0.318727	-0.506213	-0.269531	-0.093750	-0.058594	104	16_54_06_3184160
0.029297	-0.187500	0.688477	-0.759320	-0.318727	-0.506213	-0.316406	-0.093750	-0.105469	105	16_54_06_3345450
0.026367	-0.190430	0.691406	-0.768694	-0.328101	-0.496839	-0.304688	-0.070313	-0.117188	106	16_54_06_3506740
0.023438	-0.196289	0.694336	-0.768694	-0.318727	-0.496839	-0.117188	-0.035156	-0.011719	107	16_54_06_3668030
0.017578	-0.196289	0.691406	-0.768694	-0.328101	-0.496839	-0.117188	0.011719	-0.035156	108	16_54_06_3829320
0.017578	-0.202148	0.688477	-0.768694	-0.318727	-0.496839	-0.316406	-0.082031	-0.140625	109	16_54_06_3990610
0.020508	-0.184570	0.688477	-0.759320	-0.328101	-0.496839	-0.316406	-0.128906	-0.082031	110	16_54_06_4151900
0.020508	-0.181641	0.688477	-0.759320	-0.328101	-0.506213	-0.316406	-0.128906	-0.082031	111	16_54_06_4313190
0.029297	-0.193359	0.685547	-0.759320	-0.328101	-0.506213	-0.316406	-0.070313	0.058594	112	16_54_06_4474480
0.026367	-0.184570	0.688477	-0.759320	-0.328101	-0.496839	-0.316406	-0.082031	-0.128906	113	16_54_06_4635770
0.032227	-0.181641	0.697266	-0.759320	-0.328101	-0.506213	-0.316406	-0.105469	-0.117188	114	16_54_06_4797060
0.023438	-0.190430	0.688477	-0.768694	-0.318727	-0.506213	-0.316406	-0.140625	-0.117188	115	16_54_06_4958350
0.032227	-0.187500	0.691406	-0.759320	-0.328101	-0.496839	-0.316406	-0.105469	-0.093750	116	16_54_06_5119640
0.026367	-0.199219	0.694336	-0.759320	-0.328101	-0.496839	-0.316406	-0.082031	-0.105469	117	16_54_06_5280930
0.043945	-0.196289	0.691406	-0.759320	-0.328101	-0.496839	-0.316406	-0.105469	-0.164063	118	16_54_06_5442220
0.041016	-0.187500	0.685547	-0.749946	-0.318727	-0.496839	-0.316406	-0.070313	-0.187500	119	16_54_06_5603510
0.038086	-0.187500	0.685547	-0.759320	-0.318727	-0.496839	-0.316406	-0.082031	-0.175781	120	16_54_06_5764800
0.029297	-0.187500	0.688477	-0.759320	-0.318727	-0.496839	-0.316406	-0.117188	-0.117188	121	16_54_06_5926090
0.029297	-0.193359	0.691406	-0.759320	-0.318727	-0.496839	-0.316406	-0.140625	-0.093750	122	16_54_06_6087380
0.029297	-0.199219	0.694336	-0.768694	-0.318727	-0.496839	-0.304688	-0.117188	-0.093750	123	16_54_06_6248670
0.029297	-0.184570	0.688477	-0.759320	-0.318727	-0.506213	-0.316406	-0.093750	-0.093750	124	16_54_06_6409960
0.029297	-0.181641	0.691406	-0.759320	-0.318727	-0.506213	-0.316406	-0.093750	-0.117188	125	16_54_06_6571250
0.029297	-0.187500	0.691406	-0.759320	-0.318727	-0.496839	-0.210938	-0.117188	-0.070313	126	16_54_06_6732540
0.020508	-0.196289	0.688477	-0.759320	-0.318727	-0.496839	-0.316406	-0.105469	-0.152344	127	16_54_06_6893830
0.038086	-0.193359	0.688477	-0.759320	-0.318727	-0.496839	-0.351563	-0.093750	-0.152344	128	16_54_06_7055120
0.029297	-0.190430	0.685547	-0.759320	-0.318727	-0.496839	-0.316406	-0.117188	-0.117188	129	16_54_06_7216410
0.023438	-0.181641	0.697266	-0.759320	-0.328101	-0.496839	-0.316406	-0.105469	-0.128906	130	16_54_06_7377700
0.020508	-0.181641	0.682617	-0.759320	-0.318727	-0.496839	-0.304688	-0.082031	-0.105469	131	16_54_06_7538990
0.026367	-0.187500	0.694336	-0.759320	-0.318727	-0.496839	-0.351563	-0.093750	-0.152344	132	16_54_06_7700280
0.035156	-0.184570	0.691406	-0.749946	-0.318727	-0.496839	-0.304688	-0.070313	-0.152344	133	16_54_06_7861570
0.020508	-0.196289	0.688477	-0.759320	-0.318727	-0.496839	-0.316406	-0.093750	-0.117188	134	16_54_06_8022860
0.029297	-0.199219	0.688477	-0.759320	-0.318727	-0.496839	-0.316406	-0.117188	-0.140625	135	16_54_06_8184150
0.032227	-0.193359	0.688477	-0.759320	-0.318727	-0.496839	-0.304688	-0.093750	-0.128906	136	16_54_06_8345440
0.020508	-0.187500	0.688477	-0.749946	-0.318727	-0.496839	-0.257813	-0.046875	-0.070313	137	16_54_06_8506730
0.020508	-0.196289	0.694336	-0.759320	-0.318727	-0.496839	-0.152344	-0.011719	0.011719	138	16_54_06_8668020
0.029297	-0.193359	0.688477	-0.759320	-0.318727	-0.496839	-0.316406	-0.070313	-0.117188	139	16_54_06_8829310
0.029297	-0.193359	0.688477	-0.759320	-0.318727	-0.496839	-0.316406	-0.082031	-0.093750	140	16_54_06_8990600
0.032227	-0.190430	0.682617	-0.759320	-0.318727	-0.506213	-0.304688	-0.105469	-0.082031	141	16_54_06_9151890
0.032227	-0.193359	0.694336	-0.759320	-0.318727	-0.506213	-0.316406	-0.070313	-0.058594	142	16_54_06_9313180
0.026367	-0.193359	0.688477	-0.759320	-0.318727	-0.506213	-0.339844	-0.070313	-0.058594	143	16_54_06_9474470
0.035156	-0.193359	0.697266	-0.759320	-0.318727	-0.506213	-0.316406	-0.093750	-0.105469	144	16_54_06_9635760
0.029297	-0.196289	0.694336	-0.759320	-0.318727	-0.496839	-0.316406	-0.105469	-0.140625	145	16_54_06_9797050
0.041016	-0.187500	0.691406	-0.759320	-0.318727	-0.506213	-0.316406	-0.117188	-0.140625	146	16_54_06_9958340
0.029297	-0.193359	0.691406	-0.759320	-0.318727	-0.506213	-0.316406	-0.128906	-0.117188	147	16_54_07_0119630
0.035156	-0.193359	0.682617	-0.759320	-0.318727	-0.496839	-0.316406	-0.093750	-0.128906	148	16_54_07_0280920
0.035156	-0.184570	0.694336	-0.759320	-0.318727	-0.496839	-0.339844	-0.117188	-0.105469	149	16_54_07_0442210
0.026367	-0.187500	0.682617	-0.759320	-0.318727	-0.496839	-0.316406	-0.070313	-0.128906	150	16_54_07_0603500
0.043945	-0.193359	0.688477	-0.759320	-0.318727	-0.496839	-0.316406	-0.082031	-0.187500	151	16_54_07_0764790
0.046875	-0.190430	0.685547	-0.768694	-0.318727	-0.506213	-0.304688	-0.105469	-0.117188	152	16_54_07_0926080
0.032227	-0.184570	0.688477	-0.759320	-0.328101	-0.496839	-0.328125	-0.082031	0.117188	153	16_54_07_1087370
0.023438	-0.193359	0.694336	-0.759320	-0.318727	-0.496839	-0.304688	-0.105469	-0.082031	154	16_54_07_1248660
0.020508	-0.187500	0.691406	-0.759320	-0.318727	-0.496839	-0.316406	-0.082031	-0.128906	155	16_54_07_1409950
0.026367	-0.181641	0.694336	-0.759320	-0.318727	-0.496839	-0.316406	-0.093750	-0.175781	156	16_54_07_1571240
0.023438	-0.190430	0.688477	-0.759320	-0.318727	-0.506213	-0.316406	-0.105469	-0.128906	157	16_54_07_1732530
0.035156	-0.199219	0.691406	-0.759320	-0.318727	-0.496839	-0.316406	-0.164063	-0.093750	158	16_54_07_1893820
0.026367	-0.193359	0.691406	-0.759320	-0.318727	-0.496839	-0.316406	-0.105469	-0.070313	159	16_54_07_2055110
0.035156	-0.184570	0.682617	-0.759320	-0.318727	-0.496839	-0.339844	-0.070313	-0.093750	160	16_54_07_2216400
0.035156	-0.193359	0.682617	-0.759320	-0.318727	-0.496839	-0.152344	0.011719	0.046875	161	16_54_07_2377690
0.029297	-0.190430	0.691406	-0.768694	-0.318727	-0.496839	-0.281250	-0.093750	-0.082031	162	16_54_07_2538980
0.023438	-0.187500	0.694336	-0.759320	-0.318727	-0.496839	-0.316406	-0.128906	-0.105469	163	16_54_07_2700270
0.017578	-0.193359	0.697266	-0.759320	-0.318727	-0.496839	-0.316406	-0.070313	-0.152344	164	16_54_07_2861560
0.023438	-0.193359	0.688477	-0.749946	-0.318727	-0.496839	-0.316406	-0.082031	-0.128906	165	16_54_07_3022850
0.029297	-0.187500	0.691406	-0.759320	-0.318727	-0.506213	-0.246094	-0.070313	-0.070313	166	16_54_07_3184140
0.026367	-0.193359	0.694336	-0.759320	-0.318727	-0.496839	-0.316406	-0.117188	-0.105469	167	16_54_07_3345430
0.017578	-0.187500	0.688477	-0.759320	-0.318727	-0.496839	-0.316406	-0.128906	-0.093750	168	16_54_07_3506720
0.017578	-0.190430	0.682617	-0.759320	-0.318727	-0.496839	-0.316406	-0.082031	-0.105469	169	16_54_07_3668010
0.026367	-0.178711	0.688477	-0.759320	-0.318727	-0.496839	-0.316406	-0.070313	-0.105469	170	16_54_07_3829300
0.035156	-0.181641	0.682617	-0.759320	-0.318727	-0.496839	-0.316406	-0.082031	-0.105469	171	16_54_07_3990590
0.032227	-0.193359	0.697266	-0.749946	-0.318727	-0.496839	-0.316406	-0.070313	-0.105469	172	16_54_07_4151880
0.026367	-0.187500	0.688477	-0.759320	-0.318727	-0.496839	-0.316406	-0.105469	-0.117188	173	16_54_07_4313170
0.029297	-0.193359	0.691406	-0.759320	-0.318727	-0.496839	-0.304688	-0.140625	-0.117188	174	16_54_07_4474460
0.032227	-0.187500	0.691406	-0.759320	-0.318727	-0.506213	-0.234375	-0.093750	-0.105469	175	16_54_07_4635750
0.026367	-0.193359	0.682617	-0.759320	-0.318727	-0.506213	-0.316406	-0.128906	-0.152344	176	16_54_07_4797040
0.014648	-0.199219	0.685547	-0.759320	-0.318727	-0.496839	-0.316406	-0.082031	-0.128906	177	16_54_07_4958330
0.029297	-0.193359	0.682617	-0.768694	-0.328101	-0.496839	-0.281250	-0.105469	-0.082031	178	16_54_07_5119620
0.017578	-0.193359	0.688477	-0.759320	-0.318727	-0.496839	-0.316406	-0.093750	-0.140625	179	16_54_07_5280910
0.032227	-0.190430	0.688477	-0.759320	-0.328101	-0.496839	-0.316406	-0.070313	-0.105469	180	16_54_07_5442200
0.026367	-0.181641	0.691406	-0.759320	-0.318727	-0.496839	-0.316406	-0.093750	-0.117188	181	16_54_07_5603490
0.029297	-0.193359	0.691406	-0.768694	-0.318727	-0.506213	-0.292969	-0.105469	-0.140625	182	16_54_07_5764780
0.020508	-0.193359	0.688477	-0.768694	-0.318727	-0.496839	-0.246094	-0.058594	0.339844	183	16_54_07_5926070
0.026367	-0.193359	0.688477	-0.759320	-0.318727	-0.506213	-0.316406	-0.105469	0.140625	184	16_54_07_6087360
0.038086	-0.190430	0.691406	-0.768694	-0.318727	-0.506213	-0.246094	-0.105469	-0.011719	185	16_54_07_6248650
0.035156	-0.187500	0.688477	-0.759320	-0.318727	-0.506213	-0.351563	-0.093750	-0.105469	186	16_54_07_6409940
0.035156	-0.193359	0.688477	-0.759320	-0.318727	-0.506213	-0.304688	-0.082031	-0.093750	187	16_54_07_6571230
0.020508	-0.190430	0.688477	-0.759320	-0.318727	-0.506213	-0.316406	-0.117188	-0.128906	188	16_54_07_6732520
0.026367	-0.193359	0.682617	-0.759320	-0.318727	-0.506213	-0.316406	-0.117188	-0.152344	189	16_54_07_6893810
0.029297	-0.193359	0.694336	-0.759320	-0.318727	-0.506213	-0.316406	-0.082031	-0.117188	190	16_54_07_7055100
0.026367	-0.196289	0.691406	-0.768694	-0.318727	-0.506213	-0.304688	-0.070313	-0.105469	191	16_54_07_7216390
0.029297	-0.187500	0.691406	-0.759320	-0.318727	-0.506213	-0.304688	-0.093750	-0.105469	192	16_54_07_7377680
0.035156	-0.187500	0.694336	-0.759320	-0.328101	-0.506213	-0.316406	-0.093750	-0.082031	193	16_54_07_7538970
0.041016	-0.199219	0.694336	-0.759320	-0.318727	-0.496839	-0.339844	-0.117188	-0.128906	194	16_54_07_7700260
0.038086	-0.193359	0.682617	-0.759320	-0.328101	-0.496839	-0.304688	-0.070313	-0.140625	195	16_54_07_7861550
0.023438	-0.184570	0.688477	-0.759320	-0.318727	-0.506213	-0.316406	-0.082031	-0.164063	196	16_54_07_8022840
0.020508	-0.187500	0.685547	-0.759320	-0.318727	-0.496839	-0.316406	-0.082031	-0.187500	197	16_54_07_8184130
0.023438	-0.190430	0.688477	-0.759320	-0.318727	-0.496839	-0.316406	-0.105469	-0.152344	198	16_54_07_8345420
0.020508	-0.190430	0.694336	-0.759320	-0.328101	-0.496839	-0.316406	-0.070313	-0.105469	199	16_54_07_8506710
0.020508	-0.199219	0.688477	-0.759320	-0.318727	-0.496839	-0.316406	-0.082031	-0.140625	200	16_54_07_8668000
0.023438	-0.190430	0.682617	-0.759320	-0.328101	-0.496839	-0.304688	-0.117188	-0.152344	201	16_54_07_8829290
0.026367	-0.190430	0.688477	-0.749946	-0.318727	-0.496839	-0.316406	-0.093750	-0.140625	202	16_54_07_8990580
0.035156	-0.193359	0.685547	-0.759320	-0.318727	-0.496839	-0.316406	-0.082031	-0.128906	203	16_54_07_9151870
0.020508	-0.193359	0.682617	-0.768694	-0.318727	-0.496839	-0.316406	-0.093750	-0.105469	204	16_54_07_9313160
0.026367	-0.196289	0.682617	-0.749946	-0.318727	-0.506213	-0.316406	-0.082031	-0.117188	205	16_54_07_9474450
0.020508	-0.190430	0.688477	-0.759320	-0.328101	-0.496839	-0.316406	-0.070313	-0.128906	206	16_54_07_9635740
0.029297	-0.196289	0.697266	-0.759320	-0.328101	-0.506213	-0.316406	-0.093750	-0.140625	207	16_54_07_9797030
0.026367	-0.202148	0.691406	-0.759320	-0.328101	-0.506213	-0.316406	-0.093750	-0.164063	208	16_54_07_9958320
0.029297	-0.187500	0.703125	-0.759320	-0.328101	-0.506213	-0.316406	-0.093750	-0.105469	209	16_54_08_0119610
0.035156	-0.202148	0.688477	-0.759320	-0.328101	-0.506213	-0.316406	-0.117188	-0.082031	210	16_54_08_0280900
0.035156	-0.202148	0.685547	-0.759320	-0.328101	-0.496839	-0.316406	-0.093750	-0.082031	211	16_54_08_0442190
0.026367	-0.193359	0.691406	-0.759320	-0.318727	-0.506213	-0.316406	-0.093750	-0.117188	212	16_54_08_0603480
0.032227	-0.193359	0.688477	-0.759320	-0.318727	-0.506213	-0.316406	-0.093750	-0.117188	213	16_54_08_0764770
0.035156	-0.193359	0.703125	-0.759320	-0.328101	-0.496839	-0.316406	-0.117188	-0.082031	214	16_54_08_0926060
0.041016	-0.193359	0.697266	-0.759320	-0.318727	-0.496839	-0.316406	-0.070313	0.070313	215	16_54_08_1087350
0.038086	-0.181641	0.688477	-0.749946	-0.318727	-0.496839	-0.316406	-0.117188	-0.082031	216	16_54_08_1248640
0.023438	-0.181641	0.688477	-0.749946	-0.318727	-0.496839	-0.304688	-0.105469	-0.093750	217	16_54_08_1409930
0.026367	-0.169922	0.694336	-0.759320	-0.328101	-0.496839	-0.316406	-0.082031	-0.128906	218	16_54_08_1571220
0.038086	-0.196289	0.691406	-0.768694	-0.318727	-0.496839	-0.316406	-0.070313	-0.140625	219	16_54_08_1732510
0.026367	-0.190430	0.694336	-0.759320	-0.318727	-0.496839	-0.316406	-0.082031	-0.117188	220	16_54_08_1893800
0.035156	-0.199219	0.688477	-0.759320	-0.318727	-0.496839	-0.316406	-0.093750	-0.082031	221	16_54_08_2055090
0.038086	-0.202148	0.694336	-0.759320	-0.318727	-0.496839	-0.316406	-0.082031	-0.058594	222	16_54_08_2216380
0.035156	-0.187500	0.694336	-0.759320	-0.318727	-0.496839	-0.140625	-0.011719	0.035156	223	16_54_08_2377670
0.029297	-0.184570	0.691406	-0.759320	-0.318727	-0.496839	-0.316406	-0.093750	-0.152344	224	16_54_08_2538960
0.026367	-0.187500	0.691406	-0.749946	-0.318727	-0.496839	-0.316406	-0.105469	-0.105469	225	16_54_08_2700250
0.026367	-0.193359	0.691406	-0.759320	-0.318727	-0.496839	-0.316406	-0.070313	-0.117188	226	16_54_08_2861540
0.035156	-0.193359	0.688477	-0.759320	-0.318727	-0.496839	-0.316406	-0.070313	-0.105469	227	16_54_08_3022830
0.029297	-0.205078	0.697266	-0.759320	-0.318727	-0.496839	-0.316406	-0.082031	-0.117188	228	16_54_08_3184120
0.029297	-0.199219	0.685547	-0.759320	-0.318727	-0.496839	-0.316406	-0.105469	-0.152344	229	16_54_08_3345410
0.026367	-0.196289	0.688477	-0.759320	-0.318727	-0.496839	-0.304688	-0.070313	-0.164063	230	16_54_08_3506700
0.029297	-0.193359	0.694336	-0.759320	-0.318727	-0.496839	-0.316406	-0.093750	-0.140625	231	16_54_08_3667990
0.032227	-0.199219	0.691406	-0.759320	-0.318727	-0.496839	-0.316406	-0.117188	-0.117188	232	16_54_08_3829280
0.026367	-0.208008	0.691406	-0.759320	-0.318727	-0.496839	-0.316406	-0.082031	-0.140625	233	16_54_08_3990570
0.029297	-0.184570	0.685547	-0.759320	-0.318727	-0.496839	-0.316406	-0.070313	-0.117188	234	16_54_08_4151860
0.020508	-0.196289	0.688477	-0.759320	-0.318727	-0.506213	-0.316406	-0.082031	-0.117188	235	16_54_08_4313150
0.023438	-0.184570	0.688477	-0.759320	-0.328101	-0.496839	-0.304688	-0.093750	0.140625	236	16_54_08_4474440
0.032227	-0.187500	0.691406	-0.749946	-0.328101	-0.506213	-0.316406	-0.175781	-0.093750	237	16_54_08_4635730
0.029297	-0.184570	0.685547	-0.768694	-0.328101	-0.506213	-0.246094	-0.140625	-0.070313	238	16_54_08_4797020
0.029297	-0.193359	0.688477	-0.759320	-0.318727	-0.506213	-0.328125	-0.070313	-0.105469	239	16_54_08_4958310
0.029297	-0.184570	0.682617	-0.768694	-0.328101	-0.506213	-0.187500	-0.058594	0.011719	240	16_54_08_5119600
0.032227	-0.190430	0.688477	-0.759320	-0.328101	-0.496839	-0.316406	-0.070313	-0.140625	241	16_54_08_5280890
0.029297	-0.193359	0.700195	-0.759320	-0.318727	-0.506213	-0.316406	-0.082031	-0.117188	242	16_54_08_5442180
0.043945	-0.184570	0.691406	-0.759320	-0.318727	-0.506213	-0.316406	-0.117188	-0.058594	243	16_54_08_5603470
0.029297	-0.196289	0.691406	-0.759320	-0.318727	-0.496839	-0.292969	-0.117188	-0.082031	244	16_54_08_5764760
0.017578	-0.181641	0.691406	-0.768694	-0.318727	-0.496839	-0.199219	-0.082031	0.164063	245	16_54_08_5926050
0.029297	-0.190430	0.685547	-0.768694	-0.318727	-0.496839	-0.269531	-0.070313	-0.082031	246	16_54_08_6087340
0.029297	-0.193359	0.682617	-0.768694	-0.318727	-0.496839	-0.292969	-0.070313	-0.082031	247	16_54_08_6248630
0.026367	-0.187500	0.691406	-0.759320	-0.318727	-0.496839	-0.316406	-0.070313	-0.093750	248	16_54_08_6409920
0.032227	-0.202148	0.694336	-0.759320	-0.328101	-0.496839	-0.281250	-0.058594	-0.070313	249	16_54_08_6571210
0.029297	-0.196289	0.694336	-0.759320	-0.318727	-0.506213	-0.316406	-0.093750	-0.164063	250	16_54_08_6732500
0.029297	-0.190430	0.688477	-0.759320	-0.318727	-0.496839	-0.316406	-0.140625	-0.164063	251	16_54_08_6893790
0.035156	-0.190430	0.682617	-0.759320	-0.318727	-0.496839	-0.316406	-0.140625	-0.140625	252	16_54_08_7055080
0.035156	-0.193359	0.682617	-0.768694	-0.328101	-0.496839	-0.316406	-0.117188	-0.117188	253	16_54_08_7216370
0.014648	-0.184570	0.688477	-0.759320	-0.318727	-0.496839	-0.363281	-0.093750	-0.128906	254	16_54_08_7377660
0.026367	-0.196289	0.691406	-0.759320	-0.328101	-0.506213	-0.304688	-0.152344	-0.128906	255	16_54_08_7538950
0.020508	-0.193359	0.694336	-0.768694	-0.318727	-0.496839	-0.281250	-0.117188	-0.070313	256	16_54_08_7700240
0.026367	-0.181641	0.697266	-0.768694	-0.318727	-0.496839	-0.269531	-0.093750	0.152344	257	16_54_08_7861530
0.029297	-0.193359	0.691406	-0.759320	-0.318727	-0.506213	-0.339844	-0.093750	-0.128906	258	16_54_08_8022820
0.035156	-0.193359	0.691406	-0.759320	-0.318727	-0.506213	-0.304688	-0.082031	-0.140625	259	16_54_08_8184110
0.026367	-0.184570	0.694336	-0.768694	-0.318727	-0.496839	-0.222656	-0.070313	-0.093750	260	16_54_08_8345400
0.032227	-0.190430	0.685547	-0.759320	-0.318727	-0.506213	-0.316406	-0.082031	-0.117188	261	16_54_08_8506690
0.038086	-0.199219	0.688477	-0.749946	-0.318727	-0.506213	-0.339844	-0.093750	-0.164063	262	16_54_08_8667980
0.029297	-0.190430	0.691406	-0.759320	-0.318727	-0.496839	-0.316406	-0.070313	-0.152344	263	16_54_08_8829270
0.026367	-0.199219	0.691406	-0.759320	-0.318727	-0.496839	-0.316406	-0.070313	-0.117188	264	16_54_08_8990560
0.026367	-0.196289	0.688477	-0.759320	-0.328101	-0.496839	-0.316406	-0.093750	-0.128906	265	16_54_08_9151850
0.035156	-0.190430	0.691406	-0.768694	-0.318727	-0.496839	-0.222656	-0.105469	0.210938	266	16_54_08_9313140
0.020508	-0.184570	0.697266	-0.768694	-0.328101	-0.506213	-0.269531	-0.093750	-0.082031	267	16_54_08_9474430
0.023438	-0.193359	0.697266	-0.759320	-0.318727	-0.496839	-0.316406	-0.082031	-0.082031	268	16_54_08_9635720
0.029297	-0.187500	0.688477	-0.759320	-0.318727	-0.496839	-0.316406	-0.093750	-0.093750	269	16_54_08_9797010
0.029297	-0.178711	0.688477	-0.759320	-0.318727	-0.506213	-0.316406	-0.105469	-0.093750	270	16_54_08_9958300
0.032227	-0.193359	0.682617	-0.759320	-0.318727	-0.496839	-0.316406	-0.082031	-0.117188	271	16_54_09_0119590
0.023438	-0.196289	0.688477	-0.759320	-0.318727	-0.496839	-0.304688	-0.082031	-0.128906	272	16_54_09_0280880
0.020508	-0.175781	0.694336	-0.768694	-0.318727	-0.506213	-0.304688	-0.082031	-0.140625	273	16_54_09_0442170
0.035156	-0.193359	0.685547	-0.759320	-0.318727	-0.496839	-0.199219	-0.070313	-0.046875	274	16_54_09_0603460
0.023438	-0.187500	0.688477	-0.759320	-0.318727	-0.506213	-0.316406	-0.082031	-0.175781	275	16_54_09_0764750
0.035156	-0.199219	0.682617	-0.759320	-0.318727	-0.496839	-0.316406	-0.105469	-0.140625	276	16_54_09_0926040
0.014648	-0.187500	0.694336	-0.749946	-0.318727	-0.496839	-0.316406	-0.117188	-0.105469	277	16_54_09_1087330
0.032227	-0.187500	0.694336	-0.759320	-0.318727	-0.506213	-0.316406	-0.117188	-0.140625	278	16_54_09_1248620
0.029297	-0.208008	0.679688	-0.759320	-0.318727	-0.496839	-0.316406	-0.070313	-0.175781	279	16_54_09_1409910
0.020508	-0.190430	0.691406	-0.759320	-0.318727	-0.496839	-0.339844	-0.093750	-0.187500	280	16_54_09_1571200
0.020508	-0.202148	0.688477	-0.759320	-0.318727	-0.496839	-0.316406	-0.093750	-0.128906	281	16_54_09_1732490
0.035156	-0.199219	0.688477	-0.759320	-0.318727	-0.496839	-0.316406	-0.082031	-0.117188	282	16_54_09_1893780
0.026367	-0.187500	0.694336	-0.759320	-0.318727	-0.496839	-0.328125	-0.105469	-0.082031	283	16_54_09_2055070
0.023438	-0.187500	0.682617	-0.768694	-0.328101	-0.506213	-0.316406	-0.070313	-0.058594	284	16_54_09_2216360
0.032227	-0.199219	0.691406	-0.759320	-0.318727	-0.506213	-0.316406	-0.093750	-0.105469	285	16_54_09_2377650
0.035156	-0.187500	0.691406	-0.759320	-0.318727	-0.506213	-0.316406	-0.105469	-0.128906	286	16_54_09_2538940
0.020508	-0.193359	0.688477	-0.759320	-0.328101	-0.496839	-0.328125	-0.082031	-0.117188	287	16_54_09_2700230
0.026367	-0.193359	0.688477	-0.759320	-0.328101	-0.506213	-0.304688	-0.082031	-0.105469	288	16_54_09_2861520
0.020508	-0.187500	0.697266	-0.759320	-0.328101	-0.496839	-0.304688	-0.117188	-0.128906	289	16_54_09_3022810
0.032227	-0.184570	0.688477	-0.768694	-0.328101	-0.496839	-0.246094	-0.117188	-0.093750	290	16_54_09_3184100
0.026367	-0.193359	0.688477	-0.759320	-0.328101	-0.506213	-0.316406	-0.117188	-0.128906	291	16_54_09_3345390
0.032227	-0.181641	0.694336	-0.759320	-0.318727	-0.506213	-0.304688	-0.070313	-0.117188	292	16_54_09_3506680
0.026367	-0.178711	0.694336	-0.768694	-0.328101	-0.496839	-0.316406	-0.070313	-0.070313	293	16_54_09_3667970
0.029297	-0.184570	0.688477	-0.768694	-0.318727	-0.496839	-0.339844	-0.070313	-0.082031	294	16_54_09_3829260
0.026367	-0.193359	0.688477	-0.759320	-0.318727	-0.506213	-0.316406	-0.093750	-0.164063	295	16_54_09_3990550
0.029297	-0.193359	0.691406	-0.768694	-0.318727	-0.506213	-0.304688	-0.117188	-0.164063	296	16_54_09_4151840
0.026367	-0.205078	0.691406	-0.759320	-0.318727	-0.496839	-0.292969	-0.093750	-0.128906	297	16_54_09_4313130
0.029297	-0.199219	0.688477	-0.759320	-0.318727	-0.496839	-0.316406	-0.070313	-0.140625	298	16_54_09_4474420
0.029297	-0.181641	0.688477	-0.759320	-0.318727	-0.496839	-0.316406	-0.070313	-0.152344	299	16_54_09_4635710
0.032227	-0.193359	0.682617	-0.759320	-0.328101	-0.506213	-0.304688	-0.105469	-0.128906	300	16_54_09_4797000
0.026367	-0.193359	0.688477	-0.768694	-0.328101	-0.496839	-0.222656	-0.117188	-0.035156	301	16_54_09_4958290
0.026367	-0.199219	0.691406	-0.768694	-0.328101	-0.496839	-0.316406	-0.082031	-0.105469	302	16_54_09_5119580
0.023438	-0.184570	0.691406	-0.759320	-0.318727	-0.496839	-0.316406	-0.082031	-0.128906	303	16_54_09_5280870
0.026367	-0.193359	0.688477	-0.759320	-0.328101	-0.506213	-0.304688	-0.070313	-0.117188	304	16_54_09_5442160
0.041016	-0.190430	0.694336	-0.759320	-0.328101	-0.496839	-0.316406	-0.093750	-0.105469	305	16_54_09_5603450
0.032227	-0.181641	0.691406	-0.768694	-0.318727	-0.506213	-0.093750	-0.093750	0.105469	306	16_54_09_5764740
0.029297	-0.196289	0.700195	-0.731197	-0.318727	-0.496839	-0.316406	-0.128906	-0.152344	307	16_54_09_5926030
0.038086	-0.187500	0.688477	-0.759320	-0.328101	-0.506213	-0.316406	-0.082031	-0.105469	308	16_54_09_6087320
0.032227	-0.187500	0.688477	-0.759320	-0.318727	-0.506213	-0.316406	-0.070313	-0.082031	309	16_54_09_6248610
0.029297	-0.193359	0.688477	-0.759320	-0.318727	-0.506213	-0.316406	-0.093750	-0.082031	310	16_54_09_6409900
0.035156	-0.187500	0.697266	-0.759320	-0.318727	-0.496839	-0.316406	-0.117188	-0.082031	311	16_54_09_6571190
0.026367	-0.196289	0.691406	-0.759320	-0.318727	-0.496839	-0.304688	-0.117188	-0.070313	312	16_54_09_6732480
0.026367	-0.205078	0.688477	-0.768694	-0.318727	-0.496839	-0.304688	-0.070313	-0.105469	313	16_54_09_6893770
0.026367	-0.184570	0.691406	-0.759320	-0.318727	-0.496839	-0.316406	-0.070313	-0.164063	314	16_54_09_7055060
0.017578	-0.184570	0.697266	-0.759320	-0.318727	-0.496839	-0.316406	-0.070313	-0.128906	315	16_54_09_7216350
0.032227	-0.184570	0.700195	-0.768694	-0.318727	-0.496839	-0.105469	-0.046875	0.082031	316	16_54_09_7377640
0.029297	-0.187500	0.694336	-0.759320	-0.328101	-0.506213	-0.316406	-0.117188	-0.128906	317	16_54_09_7538930
0.023438	-0.190430	0.700195	-0.768694	-0.328101	-0.496839	-0.316406	-0.128906	-0.164063	318	16_54_09_7700220
0.017578	-0.196289	0.682617	-0.759320	-0.318727	-0.496839	-0.316406	-0.140625	-0.105469	319	16_54_09_7861510
0.026367	-0.190430	0.682617	-0.759320	-0.318727	-0.496839	-0.316406	-0.093750	-0.128906	320	16_54_09_8022800
0.023438	-0.193359	0.694336	-0.759320	-0.318727	-0.496839	-0.316406	-0.070313	-0.093750	321	16_54_09_8184090
0.023438	-0.181641	0.694336	-0.759320	-0.318727	-0.496839	-0.304688	-0.105469	-0.023438	322	16_54_09_8345380
0.023438	-0.181641	0.691406	-0.759320	-0.318727	-0.496839	-0.304688	-0.140625	-0.082031	323	16_54_09_8506670
0.038086	-0.199219	0.691406	-0.759320	-0.328101	-0.496839	-0.316406	-0.093750	-0.187500	324	16_54_09_8667960
0.029297	-0.196289	0.679688	-0.759320	-0.318727	-0.496839	-0.316406	-0.070313	-0.152344	325	16_54_09_8829250
0.029297	-0.193359	0.688477	-0.759320	-0.318727	-0.496839	-0.316406	-0.070313	-0.152344	326	16_54_09_8990540
0.026367	-0.196289	0.694336	-0.759320	-0.318727	-0.496839	-0.316406	-0.105469	-0.164063	327	16_54_09_9151830
0.035156	-0.187500	0.682617	-0.768694	-0.318727	-0.496839	-0.199219	-0.082031	0.292969	328	16_54_09_9313120
0.029297	-0.193359	0.700195	-0.749946	-0.328101	-0.506213	-0.304688	-0.070313	-0.128906	329	16_54_09_9474410
0.029297	-0.187500	0.688477	-0.768694	-0.328101	-0.496839	-0.257813	-0.070313	0.070313	330	16_54_09_9635700
0.035156	-0.187500	0.694336	-0.759320	-0.318727	-0.496839	-0.316406	-0.117188	-0.093750	331	16_54_09_9796990
0.032227	-0.187500	0.685547	-0.759320	-0.328101	-0.496839	-0.304688	-0.105469	-0.152344	332	16_54_09_9958280
0.020508	-0.190430	0.688477	-0.749946	-0.328101	-0.496839	-0.363281	-0.070313	-0.152344	333	16_54_10_0119570
0.029297	-0.184570	0.688477	-0.759320	-0.328101	-0.496839	-0.316406	-0.093750	-0.082031	334	16_54_10_0280860
0.023438	-0.199219	0.694336	-0.768694	-0.328101	-0.496839	-0.304688	-0.117188	-0.058594	335	16_54_10_0442150
0.029297	-0.196289	0.685547	-0.759320	-0.328101	-0.496839	-0.316406	-0.105469	-0.105469	336	16_54_10_0603440
0.035156	-0.199219	0.688477	-0.759320	-0.318727	-0.496839	-0.316406	-0.070313	-0.093750	337	16_54_10_0764730
0.038086	-0.199219	0.691406	-0.759320	-0.328101	-0.496839	-0.304688	-0.070313	-0.058594	338	16_54_10_0926020
0.035156	-0.181641	0.694336	-0.759320	-0.318727	-0.496839	-0.316406	-0.070313	-0.117188	339	16_54_10_1087310
0.032227	-0.187500	0.691406	-0.759320	-0.318727	-0.506213	-0.316406	-0.070313	0.000000	340	16_54_10_1248600
0.026367	-0.184570	0.688477	-0.759320	-0.318727	-0.496839	-0.316406	-0.082031	-0.058594	341	16_54_10_1409890
0.035156	-0.184570	0.691406	-0.759320	-0.318727	-0.496839	-0.316406	-0.070313	-0.140625	342	16_54_10_1571180
0.023438	-0.193359	0.688477	-0.759320	-0.318727	-0.496839	-0.316406	-0.070313	-0.152344	343	16_54_10_1732470
0.038086	-0.181641	0.694336	-0.759320	-0.318727	-0.496839	-0.339844	-0.070313	-0.117188	344	16_54_10_1893760
0.026367	-0.196289	0.688477	-0.759320	-0.318727	-0.496839	-0.316406	-0.058594	-0.152344	345	16_54_10_2055050
0.035156	-0.202148	0.691406	-0.759320	-0.318727	-0.496839	-0.316406	-0.070313	-0.140625	346	16_54_10_2216340
0.017578	-0.199219	0.688477	-0.759320	-0.318727	-0.496839	-0.304688	-0.082031	-0.117188	347	16_54_10_2377630
0.026367	-0.199219	0.691406	-0.759320	-0.318727	-0.496839	-0.316406	-0.093750	-0.140625	348	16_54_10_2538920
0.029297	-0.193359	0.688477	-0.759320	-0.318727	-0.496839	-0.292969	-0.093750	-0.128906	349	16_54_10_2700210
0.026367	-0.187500	0.688477	-0.759320	-0.318727	-0.496839	-0.328125	-0.152344	-0.140625	350	16_54_10_2861500
0.032227	-0.187500	0.685547	-0.759320	-0.318727	-0.496839	-0.304688	-0.117188	-0.140625	351	16_54_10_3022790
0.029297	-0.196289	0.691406	-0.759320	-0.318727	-0.496839	-0.316406	-0.093750	-0.128906	352	16_54_10_3184080
0.029297	-0.199219	0.691406	-0.759320	-0.318727	-0.496839	-0.316406	-0.140625	-0.140625	353	16_54_10_3345370
0.038086	-0.190430	0.691406	-0.759320	-0.328101	-0.506213	-0.304688	-0.093750	-0.164063	354	16_54_10_3506660
0.029297	-0.199219	0.679688	-0.759320	-0.318727	-0.496839	-0.316406	-0.082031	-0.140625	355	16_54_10_3667950
0.029297	-0.199219	0.688477	-0.759320	-0.318727	-0.506213	-0.316406	-0.117188	-0.117188	356	16_54_10_3829240
0.035156	-0.202148	0.700195	-0.768694	-0.318727	-0.496839	-0.105469	-0.046875	-0.035156	357	16_54_10_3990530
0.035156	-0.187500	0.691406	-0.759320	-0.318727	-0.506213	-0.316406	-0.117188	-0.152344	358	16_54_10_4151820
0.029297	-0.205078	0.688477	-0.759320	-0.318727	-0.496839	-0.316406	-0.117188	-0.152344	359	16_54_10_4313110
0.020508	-0.184570	0.688477	-0.759320	-0.318727	-0.496839	-0.304688	-0.117188	-0.082031	360	16_54_10_4474400
0.038086	-0.184570	0.691406	-0.768694	-0.318727	-0.496839	-0.269531	-0.117188	-0.058594	361	16_54_10_4635690
0.026367	-0.199219	0.694336	-0.759320	-0.318727	-0.496839	-0.316406	-0.117188	-0.082031	362	16_54_10_4796980
0.026367	-0.190430	0.697266	-0.768694	-0.318727	-0.506213	-0.351563	-0.070313	-0.058594	363	16_54_10_4958270
0.038086	-0.193359	0.688477	-0.749946	-0.328101	-0.506213	-0.316406	-0.070313	-0.117188	364	16_54_10_5119560
0.029297	-0.190430	0.688477	-0.759320	-0.318727	-0.496839	-0.351563	-0.082031	-0.140625	365	16_54_10_5280850
0.029297	-0.190430	0.688477	-0.759320	-0.318727	-0.496839	-0.316406	-0.105469	-0.140625	366	16_54_10_5442140
0.026367	-0.196289	0.685547	-0.768694	-0.328101	-0.506213	-0.292969	-0.117188	-0.105469	367	16_54_10_5603430
0.035156	-0.193359	0.688477	-0.749946	-0.318727	-0.496839	-0.316406	-0.082031	-0.117188	368	16_54_10_5764720
0.023438	-0.184570	0.688477	-0.759320	-0.318727	-0.496839	-0.316406	-0.117188	-0.128906	369	16_54_10_5926010
0.029297	-0.190430	0.691406	-0.759320	-0.318727	-0.496839	-0.316406	-0.117188	-0.140625	370	16_54_10_6087300
0.029297	-0.199219	0.682617	-0.759320	-0.318727	-0.496839	-0.316406	-0.093750	-0.152344	371	16_54_10_6248590
0.020508	-0.190430	0.688477	-0.759320	-0.328101	-0.496839	-0.304688	-0.140625	-0.117188	372	16_54_10_6409880
0.029297	-0.187500	0.688477	-0.768694	-0.328101	-0.506213	-0.199219	-0.082031	-0.011719	373	16_54_10_6571170
0.029297	-0.196289	0.691406	-0.768694	-0.318727	-0.506213	-0.234375	-0.058594	0.000000	374	16_54_10_6732460
0.029297	-0.193359	0.694336	-0.759320	-0.328101	-0.506213	-0.316406	-0.070313	-0.070313	375	16_54_10_6893750
0.035156	-0.190430	0.685547	-0.759320	-0.328101	-0.506213	-0.316406	-0.093750	-0.105469	376	16_54_10_7055040
0.035156	-0.193359	0.682617	-0.759320	-0.328101	-0.506213	-0.339844	-0.105469	-0.070313	377	16_54_10_7216330
0.026367	-0.193359	0.691406	-0.759320	-0.328101	-0.496839	-0.316406	-0.117188	-0.070313	378	16_54_10_7377620
0.026367	-0.199219	0.694336	-0.759320	-0.318727	-0.506213	-0.339844	-0.105469	-0.140625	379	16_54_10_7538910
0.032227	-0.190430	0.691406	-0.759320	-0.318727	-0.506213	-0.328125	-0.128906	-0.128906	380	16_54_10_7700200
0.041016	-0.193359	0.682617	-0.768694	-0.328101	-0.496839	-0.257813	-0.105469	-0.070313	381	16_54_10_7861490
0.029297	-0.196289	0.679688	-0.768694	-0.328101	-0.496839	-0.269531	-0.105469	0.140625	382	16_54_10_8022780
0.038086	-0.196289	0.688477	-0.759320	-0.328101	-0.496839	-0.316406	-0.117188	-0.152344	383	16_54_10_8184070
0.029297	-0.181641	0.688477	-0.759320	-0.318727	-0.496839	-0.316406	-0.117188	-0.152344	384	16_54_10_8345360
0.038086	-0.196289	0.691406	-0.768694	-0.328101	-0.496839	-0.316406	-0.117188	-0.152344	385	16_54_10_8506650
0.029297	-0.193359	0.688477	-0.759320	-0.318727	-0.496839	-0.316406	-0.105469	-0.140625	386	16_54_10_8667940
0.026367	-0.193359	0.694336	-0.759320	-0.328101	-0.496839	-0.304688	-0.093750	-0.128906	387	16_54_10_8829230
0.032227	-0.184570	0.685547	-0.759320	-0.318727	-0.496839	-0.304688	-0.117188	-0.152344	388	16_54_10_8990520
0.032227	-0.193359	0.691406	-0.768694	-0.318727	-0.496839	-0.117188	-0.046875	0.035156	389	16_54_10_9151810
0.032227	-0.187500	0.691406	-0.759320	-0.318727	-0.496839	-0.316406	-0.082031	-0.035156	390	16_54_10_9313100
0.023438	-0.196289	0.688477	-0.759320	-0.318727	-0.496839	-0.316406	-0.105469	-0.070313	391	16_54_10_9474390
0.023438	-0.190430	0.694336	-0.759320	-0.318727	-0.496839	-0.316406	-0.082031	-0.105469	392	16_54_10_9635680
0.035156	-0.190430	0.688477	-0.768694	-0.328101	-0.496839	-0.304688	-0.082031	-0.093750	393	16_54_10_9796970
0.032227	-0.193359	0.688477	-0.749946	-0.328101	-0.496839	-0.316406	-0.093750	-0.058594	394	16_54_10_9958260
0.026367	-0.193359	0.688477	-0.768694	-0.318727	-0.496839	-0.246094	-0.070313	-0.093750	395	16_54_11_0119550
0.038086	-0.184570	0.691406	-0.768694	-0.318727	-0.496839	-0.328125	-0.117188	-0.152344	396	16_54_11_0280840
0.026367	-0.187500	0.694336	-0.759320	-0.318727	-0.496839	-0.210938	-0.082031	-0.070313	397	16_54_11_0442130
0.029297	-0.178711	0.700195	-0.759320	-0.318727	-0.496839	-0.046875	-0.035156	0.011719	398	16_54_11_0603420
0.023438	-0.199219	0.694336	-0.768694	-0.318727	-0.496839	-0.316406	-0.082031	-0.140625	399	16_54_11_0764710
0.020508	-0.190430	0.691406	-0.759320	-0.318727	-0.496839	-0.316406	-0.082031	-0.175781	400	16_54_11_0926000
0.032227	-0.181641	0.682617	-0.759320	-0.318727	-0.506213	-0.316406	-0.105469	-0.152344	401	16_54_11_1087290
0.032227	-0.184570	0.691406	-0.759320	-0.328101	-0.496839	-0.316406	-0.070313	-0.152344	402	16_54_11_1248580
0.032227	-0.190430	0.679688	-0.759320	-0.328101	-0.496839	-0.304688	-0.082031	-0.152344	403	16_54_11_1409870
0.026367	-0.196289	0.691406	-0.759320	-0.328101	-0.496839	-0.304688	-0.093750	-0.105469	404	16_54_11_1571160
0.026367	-0.199219	0.682617	-0.759320	-0.318727	-0.506213	-0.304688	-0.070313	-0.082031	405	16_54_11_1732450
0.038086	-0.196289	0.688477	-0.759320	-0.318727	-0.496839	-0.316406	-0.082031	-0.105469	406	16_54_11_1893740
0.026367	-0.196289	0.688477	-0.759320	-0.318727	-0.496839	-0.316406	-0.117188	-0.128906	407	16_54_11_2055030
0.032227	-0.193359	0.691406	-0.768694	-0.318727	-0.496839	-0.187500	-0.035156	-0.058594	408	16_54_11_2216320
0.026367	-0.187500	0.688477	-0.759320	-0.318727	-0.496839	-0.292969	-0.070313	-0.070313	409	16_54_11_2377610
0.017578	-0.187500	0.694336	-0.759320	-0.318727	-0.506213	-0.316406	-0.082031	-0.070313	410	16_54_11_2538900
0.029297	-0.190430	0.697266	-0.759320	-0.318727	-0.496839	-0.316406	-0.093750	-0.105469	411	16_54_11_2700190
0.017578	-0.187500	0.691406	-0.768694	-0.328101	-0.496839	-0.281250	-0.082031	-0.082031	412	16_54_11_2861480
0.023438	-0.190430	0.688477	-0.768694	-0.318727	-0.496839	-0.269531	-0.105469	-0.070313	413	16_54_11_3022770
0.023438	-0.187500	0.685547	-0.759320	-0.318727	-0.496839	-0.304688	-0.093750	-0.128906	414	16_54_11_3184060
0.029297	-0.196289	0.694336	-0.759320	-0.337475	-0.506213	-0.316406	-0.117188	-0.140625	415	16_54_11_3345350
0.038086	-0.187500	0.688477	-0.759320	-0.328101	-0.496839	-0.316406	-0.070313	-0.152344	416	16_54_11_3506640
0.029297	-0.196289	0.697266	-0.759320	-0.328101	-0.496839	-0.316406	-0.082031	-0.117188	417	16_54_11_3667930
0.026367	-0.184570	0.676758	-0.759320	-0.318727	-0.496839	-0.316406	-0.105469	-0.117188	418	16_54_11_3829220
0.026367	-0.199219	0.688477	-0.749946	-0.318727	-0.496839	-0.316406	-0.093750	-0.105469	419	16_54_11_3990510
0.029297	-0.193359	0.694336	-0.759320	-0.318727	-0.506213	-0.316406	-0.140625	-0.128906	420	16_54_11_4151800
0.026367	-0.187500	0.691406	-0.759320	-0.318727	-0.496839	-0.316406	-0.117188	-0.164063	421	16_54_11_4313090
0.029297	-0.193359	0.688477	-0.759320	-0.318727	-0.496839	-0.316406	-0.117188	-0.128906	422	16_54_11_4474380
0.014648	-0.178711	0.691406	-0.768694	-0.328101	-0.496839	-0.269531	-0.070313	0.140625	423	16_54_11_4635670
0.029297	-0.196289	0.688477	-0.759320	-0.328101	-0.506213	-0.316406	-0.117188	-0.175781	424	16_54_11_4796960
0.029297	-0.193359	0.688477	-0.759320	-0.328101	-0.496839	-0.316406	-0.105469	-0.164063	425	16_54_11_4958250
0.026367	-0.181641	0.682617	-0.759320	-0.318727	-0.506213	-0.316406	-0.070313	-0.128906	426	16_54_11_5119540
0.020508	-0.193359	0.688477	-0.759320	-0.318727	-0.496839	-0.316406	-0.082031	-0.070313	427	16_54_11_5280830
0.032227	-0.199219	0.691406	-0.759320	-0.318727	-0.506213	-0.316406	-0.082031	-0.070313	428	16_54_11_5442120
0.035156	-0.187500	0.688477	-0.768694	-0.328101	-0.496839	-0.292969	-0.082031	-0.128906	429	16_54_11_5603410
0.023438	-0.187500	0.688477	-0.759320	-0.328101	-0.506213	-0.316406	-0.117188	-0.117188	430	16_54_11_5764700
0.026367	-0.190430	0.691406	-0.759320	-0.328101	-0.506213	-0.210938	-0.082031	-0.035156	431	16_54_11_5925990
0.032227	-0.190430	0.694336	-0.759320	-0.328101	-0.496839	-0.257813	-0.035156	0.011719	432	16_54_11_6087280
0.035156	-0.196289	0.688477	-0.759320	-0.328101	-0.496839	-0.316406	-0.082031	-0.105469	433	16_54_11_6248570
0.032227	-0.190430	0.682617	-0.759320	-0.328101	-0.496839	-0.316406	-0.117188	-0.152344	434	16_54_11_6409860
0.029297	-0.187500	0.697266	-0.759320	-0.318727	-0.506213	-0.304688	-0.117188	-0.187500	435	16_54_11_6571150
0.038086	-0.184570	0.685547	-0.759320	-0.318727	-0.496839	-0.316406	-0.105469	-0.128906	436	16_54_11_6732440
0.023438	-0.187500	0.682617	-0.768694	-0.318727	-0.496839	-0.351563	-0.105469	-0.128906	437	16_54_11_6893730
0.035156	-0.196289	0.682617	-0.759320	-0.318727	-0.496839	-0.328125	-0.117188	-0.140625	438	16_54_11_7055020
0.029297	-0.187500	0.697266	-0.759320	-0.318727	-0.496839	-0.316406	-0.070313	-0.140625	439	16_54_11_7216310
0.023438	-0.193359	0.682617	-0.759320	-0.328101	-0.496839	-0.316406	-0.082031	-0.140625	440	16_54_11_7377600
0.020508	-0.193359	0.688477	-0.759320	-0.318727	-0.506213	-0.316406	-0.117188	-0.140625	441	16_54_11_7538890
0.020508	-0.193359	0.691406	-0.759320	-0.328101	-0.496839	-0.316406	-0.082031	-0.128906	442	16_54_11_7700180
0.026367	-0.184570	0.694336	-0.749946	-0.318727	-0.506213	-0.316406	-0.117188	-0.117188	443	16_54_11_7861470
0.029297	-0.193359	0.694336	-0.759320	-0.318727	-0.506213	-0.316406	-0.082031	-0.140625	444	16_54_11_8022760
0.023438	-0.190430	0.688477	-0.759320	-0.328101	-0.496839	-0.304688	-0.117188	-0.152344	445	16_54_11_8184050
0.032227	-0.184570	0.694336	-0.759320	-0.328101	-0.496839	-0.316406	-0.093750	-0.140625	446	16_54_11_8345340
0.029297	-0.187500	0.700195	-0.759320	-0.318727	-0.496839	-0.316406	-0.070313	-0.128906	447	16_54_11_8506630
0.029297	-0.193359	0.691406	-0.759320	-0.318727	-0.496839	-0.316406	-0.082031	-0.152344	448	16_54_11_8667920
0.026367	-0.178711	0.685547	-0.749946	-0.318727	-0.496839	-0.339844	-0.093750	-0.175781	449	16_54_11_8829210
0.029297	-0.193359	0.688477	-0.759320	-0.318727	-0.506213	-0.316406	-0.117188	-0.140625	450	16_54_11_8990500
0.029297	-0.193359	0.688477	-0.759320	-0.328101	-0.506213	-0.292969	-0.070313	-0.128906	451	16_54_11_9151790
0.029297	-0.193359	0.688477	-0.759320	-0.328101	-0.506213	-0.316406	-0.093750	-0.140625	452	16_54_11_9313080
0.035156	-0.190430	0.691406	-0.759320	-0.318727	-0.506213	-0.316406	-0.140625	-0.152344	453	16_54_11_9474370
0.029297	-0.193359	0.694336	-0.759320	-0.328101	-0.496839	-0.281250	-0.093750	-0.128906	454	16_54_11_9635660
0.029297	-0.193359	0.688477	-0.768694	-0.318727	-0.496839	-0.339844	-0.117188	-0.093750	455	16_54_11_9796950
0.023438	-0.193359	0.691406	-0.759320	-0.328101	-0.496839	-0.316406	-0.117188	-0.105469	456	16_54_11_9958240
0.029297	-0.196289	0.691406	-0.759320	-0.328101	-0.506213	-0.316406	-0.082031	-0.128906	457	16_54_12_0119530
0.035156	-0.205078	0.682617	-0.759320	-0.328101	-0.506213	-0.304688	-0.093750	-0.117188	458	16_54_12_0280820
0.026367	-0.190430	0.703125	-0.768694	-0.328101	-0.496839	-0.316406	-0.128906	-0.117188	459	16_54_12_0442110
0.026367	-0.193359	0.700195	-0.768694	-0.318727	-0.506213	-0.164063	-0.058594	-0.011719	460	16_54_12_0603400
0.026367	-0.193359	0.688477	-0.768694	-0.328101	-0.496839	-0.292969	-0.070313	-0.117188	461	16_54_12_0764690
0.026367	-0.184570	0.688477	-0.759320	-0.318727	-0.506213	-0.316406	-0.093750	-0.128906	462	16_54_12_0925980
0.029297	-0.187500	0.691406	-0.759320	-0.318727	-0.506213	-0.316406	-0.093750	-0.011719	463	16_54_12_1087270
0.029297	-0.184570	0.682617	-0.749946	-0.328101	-0.506213	-0.316406	-0.058594	-0.046875	464	16_54_12_1248560
0.032227	-0.187500	0.688477	-0.768694	-0.318727	-0.506213	-0.316406	-0.093750	-0.093750	465	16_54_12_1409850
0.032227	-0.202148	0.682617	-0.768694	-0.328101	-0.496839	-0.257813	-0.117188	0.058594	466	16_54_12_1571140
0.038086	-0.187500	0.688477	-0.759320	-0.328101	-0.496839	-0.316406	-0.128906	-0.105469	467	16_54_12_1732430
0.041016	-0.199219	0.676758	-0.759320	-0.328101	-0.496839	-0.316406	-0.105469	-0.105469	468	16_54_12_1893720
0.023438	-0.184570	0.682617	-0.768694	-0.328101	-0.496839	-0.222656	-0.070313	-0.070313	469	16_54_12_2055010
0.032227	-0.184570	0.688477	-0.759320	-0.328101	-0.496839	-0.316406	-0.117188	-0.140625	470	16_54_12_2216300
0.026367	-0.184570	0.688477	-0.768694	-0.328101	-0.496839	-0.304688	-0.117188	-0.117188	471	16_54_12_2377590
0.026367	-0.175781	0.679688	-0.749946	-0.318727	-0.496839	-0.304688	-0.164063	-0.105469	472	16_54_12_2538880
0.026367	-0.202148	0.694336	-0.768694	-0.328101	-0.496839	-0.316406	-0.117188	-0.070313	473	16_54_12_2700170
0.032227	-0.193359	0.691406	-0.759320	-0.318727	-0.506213	-0.316406	-0.082031	-0.058594	474	16_54_12_2861460
0.023438	-0.193359	0.694336	-0.759320	-0.318727	-0.506213	-0.316406	-0.082031	-0.105469	475	16_54_12_3022750
0.017578	-0.187500	0.694336	-0.768694	-0.328101	-0.506213	-0.316406	-0.128906	0.011719	476	16_54_12_3184040
0.029297	-0.193359	0.688477	-0.759320	-0.328101	-0.496839	-0.316406	-0.164063	-0.140625	477	16_54_12_3345330
0.020508	-0.184570	0.688477	-0.768694	-0.318727	-0.506213	-0.316406	-0.117188	-0.093750	478	16_54_12_3506620
0.029297	-0.193359	0.688477	-0.759320	-0.318727	-0.506213	-0.328125	-0.093750	-0.117188	479	16_54_12_3667910
0.032227	-0.181641	0.691406	-0.759320	-0.318727	-0.506213	-0.339844	-0.093750	-0.128906	480	16_54_12_3829200
0.023438	-0.187500	0.685547	-0.768694	-0.318727	-0.496839	-0.316406	-0.117188	-0.117188	481	16_54_12_3990490
0.035156	-0.193359	0.682617	-0.768694	-0.328101	-0.506213	-0.304688	-0.082031	-0.128906	482	16_54_12_4151780
0.029297	-0.184570	0.691406	-0.759320	-0.318727	-0.506213	-0.316406	-0.093750	-0.117188	483	16_54_12_4313070
0.026367	-0.181641	0.685547	-0.759320	-0.328101	-0.496839	-0.316406	-0.117188	-0.082031	484	16_54_12_4474360
0.020508	-0.184570	0.691406	-0.759320	-0.318727	-0.506213	-0.316406	-0.105469	-0.082031	485	16_54_12_4635650
0.023438	-0.187500	0.691406	-0.768694	-0.328101	-0.506213	-0.316406	-0.093750	-0.117188	486	16_54_12_4796940
0.026367	-0.190430	0.688477	-0.759320	-0.328101	-0.496839	-0.316406	-0.117188	-0.140625	487	16_54_12_4958230
0.026367	-0.199219	0.682617	-0.759320	-0.328101	-0.496839	-0.316406	-0.093750	-0.058594	488	16_54_12_5119520
0.032227	-0.196289	0.688477	-0.759320	-0.328101	-0.506213	-0.316406	-0.105469	-0.058594	489	16_54_12_5280810
0.020508	-0.193359	0.694336	-0.759320	-0.328101	-0.496839	-0.316406	-0.082031	-0.140625	490	16_54_12_5442100
0.020508	-0.193359	0.688477	-0.759320	-0.318727	-0.506213	-0.316406	-0.082031	-0.175781	491	16_54_12_5603390
0.029297	-0.193359	0.682617	-0.768694	-0.328101	-0.496839	-0.292969	-0.117188	-0.175781	492	16_54_12_5764680
0.032227	-0.196289	0.697266	-0.759320	-0.328101	-0.506213	-0.316406	-0.105469	-0.128906	493	16_54_12_5925970
0.032227	-0.181641	0.691406	-0.759320	-0.328101	-0.496839	-0.316406	-0.070313	-0.082031	494	16_54_12_6087260
0.041016	-0.187500	0.682617	-0.759320	-0.318727	-0.506213	-0.316406	-0.093750	-0.117188	495	16_54_12_6248550
0.032227	-0.199219	0.691406	-0.759320	-0.318727	-0.496839	-0.304688	-0.117188	-0.152344	496	16_54_12_6409840
0.029297	-0.193359	0.679688	-0.768694	-0.328101	-0.496839	-0.257813	-0.117188	-0.105469	497	16_54_12_6571130
0.041016	-0.184570	0.691406	-0.759320	-0.328101	-0.506213	-0.316406	-0.117188	-0.140625	498	16_54_12_6732420
0.026367	-0.190430	0.682617	-0.759320	-0.328101	-0.506213	-0.316406	-0.117188	-0.140625	499	16_54_12_6893710
0.023438	-0.193359	0.694336	-0.759320	-0.328101	-0.496839	-0.316406	-0.070313	-0.128906	500	16_54_12_7055000
0.029297	-0.187500	0.688477	-0.759320	-0.328101	-0.506213	-0.316406	-0.093750	-0.105469	501	16_54_12_7216290
0.017578	-0.190430	0.691406	-0.759320	-0.328101	-0.496839	-0.304688	-0.140625	-0.117188	502	16_54_12_7377580
0.029297	-0.193359	0.688477	-0.768694	-0.318727	-0.496839	-0.304688	-0.140625	-0.140625	503	16_54_12_7538870
0.035156	-0.193359	0.688477	-0.768694	-0.318727	-0.496839	-0.316406	-0.082031	-0.152344	504	16_54_12_7700160
0.035156	-0.184570	0.697266	-0.759320	-0.328101	-0.506213	-0.316406	-0.093750	-0.152344	505	16_54_12_7861450
0.029297	-0.190430	0.688477	-0.759320	-0.318727	-0.496839	-0.316406	-0.128906	-0.164063	506	16_54_12_8022740
0.035156	-0.202148	0.688477	-0.768694	-0.318727	-0.506213	-0.316406	-0.128906	0.023438	507	16_54_12_8184030
0.038086	-0.190430	0.685547	-0.759320	-0.328101	-0.506213	-0.316406	-0.117188	-0.175781	508	16_54_12_8345320
0.038086	-0.196289	0.688477	-0.759320	-0.328101	-0.496839	-0.328125	-0.140625	-0.105469	509	16_54_12_8506610
0.017578	-0.190430	0.688477	-0.768694	-0.318727	-0.496839	-0.140625	-0.093750	0.035156	510	16_54_12_8667900
0.014648	-0.193359	0.694336	-0.768694	-0.318727	-0.496839	-0.164063	-0.070313	-0.023438	511	16_54_12_8829190
0.020508	-0.193359	0.694336	-0.759320	-0.318727	-0.496839	-0.316406	-0.093750	-0.128906	512	16_54_12_8990480
0.035156	-0.205078	0.685547	-0.759320	-0.318727	-0.496839	-0.316406	-0.082031	-0.152344	513	16_54_12_9151770
0.029297	-0.199219	0.688477	-0.759320	-0.328101	-0.506213	-0.304688	-0.093750	-0.117188	514	16_54_12_9313060
0.026367	-0.199219	0.700195	-0.759320	-0.328101	-0.496839	-0.316406	-0.093750	-0.093750	515	16_54_12_9474350
0.017578	-0.193359	0.691406	-0.759320	-0.318727	-0.496839	-0.281250	-0.140625	-0.105469	516	16_54_12_9635640
0.038086	-0.193359	0.688477	-0.759320	-0.318727	-0.496839	-0.304688	-0.128906	-0.117188	517	16_54_12_9796930
0.032227	-0.190430	0.694336	-0.749946	-0.328101	-0.506213	-0.316406	-0.105469	-0.117188	518	16_54_12_9958220
0.029297	-0.193359	0.691406	-0.759320	-0.328101	-0.506213	-0.316406	-0.117188	-0.140625	519	16_54_13_0119510
0.032227	-0.205078	0.688477	-0.759320	-0.318727	-0.506213	-0.316406	-0.117188	-0.128906	520	16_54_13_0280800
0.023438	-0.187500	0.688477	-0.759320	-0.318727	-0.496839	-0.316406	-0.105469	-0.093750	521	16_54_13_0442090
0.020508	-0.193359	0.682617	-0.759320	-0.328101	-0.496839	-0.316406	-0.082031	-0.117188	522	16_54_13_0603380
0.029297	-0.181641	0.688477	-0.768694	-0.328101	-0.506213	-0.316406	-0.082031	-0.105469	523	16_54_13_0764670
0.029297	-0.193359	0.688477	-0.759320	-0.328101	-0.496839	-0.316406	-0.105469	-0.105469	524	16_54_13_0925960
0.029297	-0.187500	0.682617	-0.759320	-0.318727	-0.506213	-0.316406	-0.093750	-0.105469	525	16_54_13_1087250
0.032227	-0.184570	0.688477	-0.759320	-0.328101	-0.506213	-0.316406	-0.070313	-0.105469	526	16_54_13_1248540
0.038086	-0.190430	0.691406	-0.768694	-0.328101	-0.496839	-0.257813	-0.070313	0.210938	527	16_54_13_1409830
0.035156	-0.184570	0.691406	-0.749946	-0.318727	-0.506213	-0.316406	-0.128906	-0.082031	528	16_54_13_1571120
0.029297	-0.184570	0.694336	-0.768694	-0.318727	-0.496839	-0.257813	-0.093750	-0.093750	529	16_54_13_1732410
0.035156	-0.181641	0.688477	-0.759320	-0.318727	-0.506213	-0.316406	-0.128906	-0.140625	530	16_54_13_1893700
0.026367	-0.190430	0.691406	-0.759320	-0.328101	-0.496839	-0.328125	-0.082031	-0.117188	531	16_54_13_2054990
0.029297	-0.193359	0.688477	-0.759320	-0.318727	-0.496839	-0.316406	-0.070313	-0.093750	532	16_54_13_2216280
0.029297	-0.178711	0.691406	-0.768694	-0.328101	-0.496839	-0.316406	-0.070313	-0.082031	533	16_54_13_2377570
0.029297	-0.190430	0.679688	-0.759320	-0.328101	-0.506213	-0.316406	-0.070313	-0.082031	534	16_54_13_2538860
0.029297	-0.184570	0.679688	-0.759320	-0.318727	-0.496839	-0.316406	-0.082031	-0.093750	535	16_54_13_2700150
0.029297	-0.196289	0.694336	-0.759320	-0.318727	-0.496839	-0.316406	-0.082031	-0.128906	536	16_54_13_2861440
0.026367	-0.181641	0.691406	-0.768694	-0.328101	-0.506213	-0.269531	-0.093750	-0.140625	537	16_54_13_3022730
0.035156	-0.199219	0.694336	-0.759320	-0.328101	-0.496839	-0.316406	-0.093750	-0.105469	538	16_54_13_3184020
0.035156	-0.190430	0.694336	-0.759320	-0.318727	-0.506213	-0.316406	-0.128906	-0.035156	539	16_54_13_3345310
0.029297	-0.184570	0.682617	-0.768694	-0.328101	-0.496839	-0.234375	-0.070313	-0.023438	540	16_54_13_3506600
0.032227	-0.196289	0.691406	-0.759320	-0.328101	-0.496839	-0.339844	-0.105469	-0.070313	541	16_54_13_3667890
0.029297	-0.196289	0.694336	-0.759320	-0.328101	-0.496839	-0.316406	-0.070313	-0.070313	542	16_54_13_3829180
0.035156	-0.193359	0.685547	-0.768694	-0.328101	-0.496839	-0.316406	-0.082031	-0.117188	543	16_54_13_3990470
0.029297	-0.184570	0.688477	-0.768694	-0.328101	-0.496839	-0.292969	-0.093750	-0.140625	544	16_54_13_4151760
0.029297	-0.184570	0.694336	-0.759320	-0.318727	-0.496839	-0.316406	-0.082031	-0.140625	545	16_54_13_4313050
0.035156	-0.193359	0.688477	-0.768694	-0.318727	-0.496839	-0.199219	-0.011719	0.105469	546	16_54_13_4474340
0.029297	-0.181641	0.694336	-0.759320	-0.318727	-0.496839	-0.316406	-0.082031	-0.117188	547	16_54_13_4635630
0.026367	-0.175781	0.688477	-0.768694	-0.328101	-0.496839	-0.316406	-0.140625	-0.140625	548	16_54_13_4796920
0.029297	-0.190430	0.685547	-0.768694	-0.318727	-0.496839	-0.269531	-0.152344	-0.117188	549	16_54_13_4958210
0.026367	-0.190430	0.688477	-0.768694	-0.318727	-0.496839	-0.316406	-0.117188	-0.117188	550	16_54_13_5119500
0.029297	-0.187500	0.688477	-0.759320	-0.318727	-0.496839	-0.304688	-0.070313	-0.093750	551	16_54_13_5280790
0.026367	-0.196289	0.691406	-0.768694	-0.328101	-0.496839	-0.304688	-0.093750	-0.093750	552	16_54_13_5442080
0.029297	-0.187500	0.685547	-0.749946	-0.328101	-0.496839	-0.316406	-0.140625	-0.093750	553	16_54_13_5603370
0.029297	-0.184570	0.688477	-0.759320	-0.328101	-0.496839	-0.316406	-0.082031	-0.105469	554	16_54_13_5764660
0.029297	-0.190430	0.688477	-0.759320	-0.318727	-0.506213	-0.316406	-0.105469	-0.152344	555	16_54_13_5925950
0.026367	-0.187500	0.685547	-0.759320	-0.318727	-0.506213	-0.328125	-0.070313	-0.105469	556	16_54_13_6087240
0.035156	-0.187500	0.688477	-0.759320	-0.318727	-0.496839	-0.316406	-0.082031	-0.093750	557	16_54_13_6248530
0.026367	-0.193359	0.694336	-0.768694	-0.328101	-0.496839	-0.351563	-0.070313	-0.128906	558	16_54_13_6409820
0.029297	-0.181641	0.688477	-0.759320	-0.328101	-0.496839	-0.304688	-0.082031	-0.105469	559	16_54_13_6571110
0.029297	-0.193359	0.697266	-0.759320	-0.328101	-0.496839	-0.316406	-0.105469	-0.093750	560	16_54_13_6732400
0.029297	-0.199219	0.688477	-0.768694	-0.318727	-0.496839	-0.316406	-0.128906	-0.117188	561	16_54_13_6893690
0.029297	-0.181641	0.685547	-0.768694	-0.318727	-0.496839	-0.304688	-0.105469	-0.152344	562	16_54_13_7054980
0.023438	-0.184570	0.694336	-0.759320	-0.328101	-0.506213	-0.257813	-0.070313	-0.164063	563	16_54_13_7216270
0.017578	-0.181641	0.694336	-0.768694	-0.328101	-0.496839	-0.339844	-0.093750	-0.117188	564	16_54_13_7377560
0.032227	-0.187500	0.691406	-0.759320	-0.318727	-0.506213	-0.304688	-0.082031	-0.070313	565	16_54_13_7538850
0.035156	-0.199219	0.685547	-0.759320	-0.318727	-0.506213	-0.316406	-0.117188	-0.093750	566	16_54_13_7700140
0.046875	-0.187500	0.694336	-0.759320	-0.328101	-0.496839	-0.316406	-0.140625	-0.128906	567	16_54_13_7861430
0.029297	-0.196289	0.682617	-0.759320	-0.328101	-0.496839	-0.316406	-0.070313	-0.164063	568	16_54_13_8022720
0.029297	-0.172852	0.700195	-0.749946	-0.318727	-0.496839	-0.316406	-0.082031	-0.128906	569	16_54_13_8184010
0.020508	-0.202148	0.691406	-0.759320	-0.318727	-0.506213	-0.316406	-0.082031	-0.105469	570	16_54_13_8345300
0.017578	-0.190430	0.679688	-0.768694	-0.318727	-0.506213	-0.339844	-0.093750	-0.152344	571	16_54_13_8506590
0.038086	-0.187500	0.691406	-0.759320	-0.318727	-0.496839	-0.316406	-0.093750	-0.105469	572	16_54_13_8667880
0.032227	-0.187500	0.694336	-0.768694	-0.318727	-0.496839	-0.316406	-0.128906	-0.105469	573	16_54_13_8829170
0.026367	-0.205078	0.691406	-0.768694	-0.318727	-0.506213	-0.164063	-0.070313	-0.058594	574	16_54_13_8990460
0.023438	-0.205078	0.688477	-0.749946	-0.328101	-0.506213	-0.316406	-0.070313	-0.093750	575	16_54_13_9151750
0.032227	-0.196289	0.691406	-0.759320	-0.328101	-0.506213	-0.316406	-0.070313	-0.093750	576	16_54_13_9313040
0.026367	-0.199219	0.691406	-0.759320	-0.328101	-0.506213	-0.316406	-0.093750	-0.093750	577	16_54_13_9474330
0.029297	-0.190430	0.691406	-0.759320	-0.318727	-0.496839	-0.316406	-0.117188	-0.117188	578	16_54_13_9635620
0.038086	-0.187500	0.691406	-0.759320	-0.328101	-0.496839	-0.339844	-0.082031	-0.117188	579	16_54_13_9796910
0.035156	-0.184570	0.694336	-0.759320	-0.318727	-0.506213	-0.316406	-0.105469	-0.105469	580	16_54_13_9958200
0.041016	-0.193359	0.700195	-0.759320	-0.318727	-0.496839	-0.316406	-0.093750	-0.152344	581	16_54_14_0119490
0.041016	-0.193359	0.688477	-0.759320	-0.328101	-0.496839	-0.316406	-0.117188	-0.117188	582	16_54_14_0280780
0.026367	-0.184570	0.685547	-0.759320	-0.318727	-0.496839	-0.351563	-0.093750	-0.070313	583	16_54_14_0442070
0.029297	-0.193359	0.682617	-0.759320	-0.328101	-0.506213	-0.316406	-0.140625	-0.070313	584	16_54_14_0603360
0.032227	-0.199219	0.679688	-0.759320	-0.328101	-0.506213	-0.316406	-0.128906	-0.093750	585	16_54_14_0764650
0.038086	-0.184570	0.688477	-0.759320	-0.318727	-0.496839	-0.339844	-0.093750	-0.105469	586	16_54_14_0925940
0.026367	-0.190430	0.694336	-0.759320	-0.328101	-0.506213	-0.316406	-0.152344	-0.093750	587	16_54_14_1087230
0.038086	-0.187500	0.682617	-0.749946	-0.328101	-0.496839	-0.316406	-0.117188	-0.082031	588	16_54_14_1248520
0.026367	-0.184570	0.688477	-0.768694	-0.328101	-0.506213	-0.316406	-0.093750	-0.117188	589	16_54_14_1409810
0.026367	-0.199219	0.688477	-0.768694	-0.328101	-0.506213	-0.304688	-0.117188	-0.011719	590	16_54_14_1571100
0.023438	-0.196289	0.688477	-0.759320	-0.328101	-0.506213	-0.316406	-0.128906	-0.082031	591	16_54_14_1732390
0.023438	-0.202148	0.697266	-0.759320	-0.328101	-0.496839	-0.339844	-0.117188	-0.082031	592	16_54_14_1893680
0.029297	-0.193359	0.694336	-0.759320	-0.318727	-0.496839	-0.316406	-0.093750	-0.128906	593	16_54_14_2054970
0.032227	-0.196289	0.691406	-0.768694	-0.328101	-0.496839	-0.316406	-0.070313	-0.175781	594	16_54_14_2216260
0.029297	-0.196289	0.691406	-0.759320	-0.328101	-0.496839	-0.304688	-0.070313	-0.128906	595	16_54_14_2377550
0.032227	-0.187500	0.697266	-0.759320	-0.318727	-0.496839	-0.316406	-0.093750	-0.058594	596	16_54_14_2538840
0.029297	-0.181641	0.682617	-0.759320	-0.318727	-0.496839	-0.316406	-0.128906	-0.070313	597	16_54_14_2700130
0.032227	-0.193359	0.688477	-0.759320	-0.328101	-0.506213	-0.316406	-0.105469	-0.117188	598	16_54_14_2861420
0.026367	-0.175781	0.685547	-0.759320	-0.328101	-0.496839	-0.328125	-0.082031	-0.140625	599	16_54_14_3022710
0.026367	-0.187500	0.682617	-0.768694	-0.328101	-0.506213	-0.234375	-0.105469	-0.082031	600	16_54_14_3184000
0.029297	-0.193359	0.688477	-0.768694	-0.328101	-0.496839	-0.257813	-0.128906	-0.105469	601	16_54_14_3345290
0.020508	-0.196289	0.688477	-0.759320	-0.328101	-0.496839	-0.316406	-0.082031	-0.117188	602	16_54_14_3506580
0.029297	-0.190430	0.682617	-0.759320	-0.318727	-0.506213	-0.316406	-0.117188	-0.128906	603	16_54_14_3667870
0.026367	-0.196289	0.688477	-0.749946	-0.318727	-0.506213	-0.316406	-0.128906	-0.117188	604	16_54_14_3829160
0.032227	-0.184570	0.688477	-0.759320	-0.328101	-0.506213	-0.351563	-0.128906	-0.128906	605	16_54_14_3990450
0.032227	-0.196289	0.694336	-0.768694	-0.318727	-0.496839	-0.210938	-0.058594	-0.046875	606	16_54_14_4151740
0.029297	-0.193359	0.691406	-0.768694	-0.328101	-0.506213	-0.117188	-0.082031	0.093750	607	16_54_14_4313030
0.023438	-0.196289	0.685547	-0.768694	-0.328101	-0.496839	-0.304688	-0.105469	-0.117188	608	16_54_14_4474320
0.043945	-0.187500	0.682617	-0.759320	-0.328101	-0.496839	-0.316406	-0.082031	-0.105469	609	16_54_14_4635610
0.029297	-0.193359	0.691406	-0.759320	-0.328101	-0.496839	-0.316406	-0.105469	-0.105469	610	16_54_14_4796900
0.026367	-0.181641	0.697266	-0.768694	-0.328101	-0.496839	-0.304688	-0.117188	-0.117188	611	16_54_14_4958190
0.023438	-0.193359	0.691406	-0.759320	-0.328101	-0.496839	-0.316406	-0.070313	-0.082031	612	16_54_14_5119480
0.020508	-0.199219	0.688477	-0.768694	-0.328101	-0.506213	-0.316406	-0.082031	-0.070313	613	16_54_14_5280770
0.029297	-0.193359	0.688477	-0.759320	-0.318727	-0.496839	-0.316406	-0.082031	-0.105469	614	16_54_14_5442060
0.035156	-0.184570	0.691406	-0.759320	-0.318727	-0.506213	-0.316406	-0.082031	-0.105469	615	16_54_14_5603350
0.032227	-0.190430	0.706055	-0.759320	-0.328101	-0.496839	-0.316406	-0.093750	-0.070313	616	16_54_14_5764640
0.029297	-0.190430	0.688477	-0.759320	-0.318727	-0.506213	-0.316406	-0.070313	-0.117188	617	16_54_14_5925930
0.029297	-0.184570	0.700195	-0.759320	-0.328101	-0.496839	-0.316406	-0.105469	-0.175781	618	16_54_14_6087220
0.023438	-0.199219	0.691406	-0.768694	-0.318727	-0.496839	-0.281250	-0.187500	-0.140625	619	16_54_14_6248510
0.029297	-0.202148	0.688477	-0.768694	-0.328101	-0.506213	-0.281250	-0.164063	-0.140625	620	16_54_14_6409800
0.026367	-0.181641	0.694336	-0.768694	-0.328101	-0.506213	-0.316406	-0.093750	-0.140625	621	16_54_14_6571090
0.035156	-0.193359	0.694336	-0.768694	-0.328101	-0.506213	-0.316406	-0.082031	-0.117188	622	16_54_14_6732380
0.020508	-0.184570	0.688477	-0.768694	-0.328101	-0.496839	-0.304688	-0.082031	-0.093750	623	16_54_14_6893670
0.029297	-0.190430	0.694336	-0.759320	-0.328101	-0.496839	-0.316406	-0.070313	-0.105469	624	16_54_14_7054960
0.023438	-0.193359	0.691406	-0.759320	-0.318727	-0.496839	-0.316406	-0.093750	-0.128906	625	16_54_14_7216250
0.020508	-0.184570	0.691406	-0.759320	-0.328101	-0.496839	-0.316406	-0.117188	-0.105469	626	16_54_14_7377540
0.035156	-0.190430	0.700195	-0.759320	-0.346850	-0.506213	-0.316406	-0.093750	-0.105469	627	16_54_14_7538830
0.029297	-0.193359	0.688477	-0.759320	-0.328101	-0.496839	-0.316406	-0.070313	-0.082031	628	16_54_14_7700120
0.029297	-0.184570	0.691406	-0.759320	-0.328101	-0.506213	-0.292969	-0.082031	-0.117188	629	16_54_14_7861410
0.029297	-0.199219	0.688477	-0.768694	-0.328101	-0.496839	-0.316406	-0.117188	-0.152344	630	16_54_14_8022700
0.029297	-0.193359	0.688477	-0.759320	-0.318727	-0.496839	-0.316406	-0.070313	-0.117188	631	16_54_14_8183990
0.020508	-0.181641	0.688477	-0.759320	-0.328101	-0.496839	-0.316406	-0.070313	-0.082031	632	16_54_14_8345280
0.026367	-0.193359	0.694336	-0.768694	-0.328101	-0.506213	-0.316406	-0.105469	-0.140625	633	16_54_14_8506570
0.032227	-0.190430	0.694336	-0.768694	-0.318727	-0.496839	-0.316406	-0.152344	-0.093750	634	16_54_14_8667860
0.029297	-0.184570	0.691406	-0.768694	-0.328101	-0.496839	-0.140625	-0.070313	-0.011719	635	16_54_14_8829150
0.017578	-0.190430	0.694336	-0.759320	-0.328101	-0.496839	-0.316406	-0.070313	-0.082031	636	16_54_14_8990440
0.035156	-0.184570	0.682617	-0.759320	-0.328101	-0.496839	-0.316406	-0.093750	-0.128906	637	16_54_14_9151730
0.029297	-0.190430	0.685547	-0.768694	-0.328101	-0.496839	-0.316406	-0.128906	-0.128906	638	16_54_14_9313020
0.023438	-0.193359	0.688477	-0.759320	-0.328101	-0.506213	-0.316406	-0.093750	-0.117188	639	16_54_14_9474310
0.023438	-0.193359	0.691406	-0.759320	-0.328101	-0.506213	-0.316406	-0.140625	-0.140625	640	16_54_14_9635600
0.023438	-0.181641	0.688477	-0.759320	-0.318727	-0.506213	-0.316406	-0.152344	-0.082031	641	16_54_14_9796890
0.029297	-0.187500	0.694336	-0.759320	-0.328101	-0.506213	-0.304688	-0.128906	-0.058594	642	16_54_14_9958180
0.032227	-0.184570	0.691406	-0.759320	-0.328101	-0.496839	-0.316406	-0.105469	-0.093750	643	16_54_15_0119470
0.035156	-0.193359	0.682617	-0.768694	-0.328101	-0.506213	-0.304688	-0.070313	-0.117188	644	16_54_15_0280760
0.032227	-0.187500	0.694336	-0.768694	-0.328101	-0.506213	-0.339844	-0.082031	-0.093750	645	16_54_15_0442050
0.020508	-0.187500	0.682617	-0.768694	-0.328101	-0.496839	-0.304688	-0.070313	-0.046875	646	16_54_15_0603340
0.035156	-0.196289	0.688477	-0.759320	-0.328101	-0.496839	-0.316406	-0.082031	-0.093750	647	16_54_15_0764630
0.035156	-0.184570	0.682617	-0.759320	-0.328101	-0.506213	-0.363281	-0.093750	-0.140625	648	16_54_15_0925920
0.023438	-0.193359	0.688477	-0.768694	-0.318727	-0.506213	-0.128906	-0.058594	0.058594	649	16_54_15_1087210
0.035156	-0.190430	0.694336	-0.759320	-0.318727	-0.506213	-0.316406	-0.117188	-0.093750	650	16_54_15_1248500
0.026367	-0.193359	0.691406	-0.768694	-0.328101	-0.506213	-0.304688	-0.117188	-0.105469	651	16_54_15_1409790
0.017578	-0.178711	0.694336	-0.749946	-0.318727	-0.506213	-0.316406	-0.070313	-0.152344	652	16_54_15_1571080
0.029297	-0.193359	0.691406	-0.759320	-0.318727	-0.506213	-0.339844	-0.093750	-0.046875	653	16_54_15_1732370
0.023438	-0.184570	0.688477	-0.768694	-0.328101	-0.506213	-0.316406	-0.128906	-0.152344	654	16_54_15_1893660
0.020508	-0.184570	0.691406	-0.759320	-0.328101	-0.506213	-0.316406	-0.117188	-0.093750	655	16_54_15_2054950
0.023438	-0.184570	0.694336	-0.759320	-0.318727	-0.496839	-0.316406	-0.105469	-0.058594	656	16_54_15_2216240
0.029297	-0.199219	0.688477	-0.768694	-0.328101	-0.496839	-0.316406	-0.082031	-0.105469	657	16_54_15_2377530
0.029297	-0.199219	0.682617	-0.759320	-0.328101	-0.496839	-0.316406	-0.093750	-0.164063	658	16_54_15_2538820
0.020508	-0.193359	0.688477	-0.768694	-0.328101	-0.506213	-0.105469	-0.070313	0.000000	659	16_54_15_2700110
0.026367	-0.199219	0.694336	-0.759320	-0.328101	-0.506213	-0.316406	-0.128906	-0.128906	660	16_54_15_2861400
0.026367	-0.187500	0.676758	-0.759320	-0.318727	-0.496839	-0.316406	-0.128906	-0.117188	661	16_54_15_3022690
0.029297	-0.187500	0.688477	-0.768694	-0.328101	-0.506213	-0.339844	-0.093750	-0.105469	662	16_54_15_3183980
0.032227	-0.199219	0.688477	-0.768694	-0.328101	-0.496839	-0.257813	-0.105469	-0.105469	663	16_54_15_3345270
0.017578	-0.187500	0.688477	-0.759320	-0.328101	-0.506213	-0.316406	-0.093750	-0.140625	664	16_54_15_3506560
0.032227	-0.193359	0.694336	-0.759320	-0.318727	-0.506213	-0.316406	-0.117188	-0.058594	665	16_54_15_3667850
0.029297	-0.190430	0.688477	-0.759320	-0.328101	-0.506213	-0.316406	-0.140625	-0.035156	666	16_54_15_3829140
0.029297	-0.196289	0.682617	-0.768694	-0.318727	-0.496839	-0.316406	-0.152344	-0.058594	667	16_54_15_3990430
0.029297	-0.205078	0.682617	-0.759320	-0.328101	-0.496839	-0.316406	-0.105469	-0.105469	668	16_54_15_4151720
0.023438	-0.190430	0.691406	-0.759320	-0.328101	-0.506213	-0.316406	-0.082031	-0.093750	669	16_54_15_4313010
0.026367	-0.193359	0.685547	-0.759320	-0.318727	-0.496839	-0.316406	-0.070313	-0.140625	670	16_54_15_4474300
0.023438	-0.187500	0.688477	-0.759320	-0.328101	-0.506213	-0.316406	-0.082031	-0.152344	671	16_54_15_4635590
0.023438	-0.199219	0.694336	-0.759320	-0.328101	-0.506213	-0.304688	-0.105469	-0.093750	672	16_54_15_4796880
0.035156	-0.193359	0.682617	-0.768694	-0.328101	-0.496839	-0.246094	-0.093750	-0.117188	673	16_54_15_4958170
0.017578	-0.199219	0.697266	-0.759320	-0.328101	-0.496839	-0.316406	-0.117188	-0.199219	674	16_54_15_5119460
0.023438	-0.190430	0.700195	-0.759320	-0.328101	-0.496839	-0.316406	-0.117188	-0.164063	675	16_54_15_5280750
0.029297	-0.181641	0.688477	-0.759320	-0.328101	-0.506213	-0.316406	-0.093750	-0.082031	676	16_54_15_5442040
0.032227	-0.199219	0.688477	-0.759320	-0.328101	-0.506213	-0.152344	-0.093750	0.058594	677	16_54_15_5603330
0.032227	-0.199219	0.685547	-0.768694	-0.328101	-0.506213	-0.316406	-0.082031	-0.093750	678	16_54_15_5764620
0.035156	-0.199219	0.691406	-0.768694	-0.328101	-0.506213	-0.316406	-0.070313	-0.140625	679	16_54_15_5925910
0.029297	-0.196289	0.682617	-0.768694	-0.328101	-0.506213	-0.328125	-0.070313	-0.128906	680	16_54_15_6087200
0.029297	-0.196289	0.691406	-0.768694	-0.328101	-0.506213	-0.316406	-0.093750	-0.140625	681	16_54_15_6248490
0.035156	-0.187500	0.688477	-0.759320	-0.328101	-0.506213	-0.316406	-0.128906	-0.082031	682	16_54_15_6409780
0.023438	-0.202148	0.697266	-0.768694	-0.328101	-0.506213	-0.304688	-0.082031	-0.058594	683	16_54_15_6571070
0.038086	-0.184570	0.691406	-0.768694	-0.328101	-0.506213	-0.316406	-0.117188	-0.082031	684	16_54_15_6732360
0.023438	-0.187500	0.691406	-0.759320	-0.318727	-0.506213	-0.316406	-0.093750	-0.105469	685	16_54_15_6893650
0.023438	-0.187500	0.685547	-0.768694	-0.328101	-0.506213	-0.304688	-0.117188	-0.175781	686	16_54_15_7054940
0.029297	-0.199219	0.694336	-0.759320	-0.328101	-0.506213	-0.316406	-0.082031	-0.128906	687	16_54_15_7216230
0.026367	-0.193359	0.697266	-0.759320	-0.328101	-0.496839	-0.339844	-0.082031	-0.082031	688	16_54_15_7377520
0.029297	-0.193359	0.682617	-0.768694	-0.328101	-0.506213	-0.304688	-0.082031	-0.128906	689	16_54_15_7538810
0.023438	-0.187500	0.688477	-0.759320	-0.328101	-0.496839	-0.210938	-0.093750	-0.128906	690	16_54_15_7700100
0.023438	-0.199219	0.694336	-0.768694	-0.328101	-0.496839	-0.316406	-0.082031	-0.152344	691	16_54_15_7861390
0.020508	-0.205078	0.691406	-0.768694	-0.328101	-0.506213	-0.316406	-0.117188	-0.152344	692	16_54_15_8022680
0.023438	-0.199219	0.691406	-0.768694	-0.328101	-0.496839	-0.316406	-0.105469	0.187500	693	16_54_15_8183970
0.035156	-0.187500	0.697266	-0.759320	-0.328101	-0.506213	-0.316406	-0.128906	-0.128906	694	16_54_15_8345260
0.026367	-0.196289	0.685547	-0.768694	-0.318727	-0.496839	-0.304688	-0.140625	-0.093750	695	16_54_15_8506550
0.032227	-0.184570	0.688477	-0.768694	-0.328101	-0.506213	-0.316406	-0.117188	-0.128906	696	16_54_15_8667840
0.032227	-0.184570	0.688477	-0.768694	-0.318727	-0.506213	-0.316406	-0.117188	-0.128906	697	16_54_15_8829130
0.029297	-0.187500	0.688477	-0.768694	-0.328101	-0.506213	-0.164063	-0.093750	-0.058594	698	16_54_15_8990420
0.026367	-0.184570	0.685547	-0.768694	-0.328101	-0.496839	-0.316406	-0.105469	-0.093750	699	16_54_15_9151710
0.029297	-0.196289	0.691406	-0.768694	-0.328101	-0.506213	-0.316406	-0.140625	-0.046875	700	16_54_15_9313000
0.017578	-0.187500	0.691406	-0.759320	-0.318727	-0.496839	-0.128906	-0.023438	0.222656	701	16_54_15_9474290
0.011719	-0.184570	0.685547	-0.759320	-0.328101	-0.506213	-0.316406	-0.093750	-0.070313	702	16_54_15_9635580
0.020508	-0.187500	0.688477	-0.759320	-0.328101	-0.506213	-0.316406	-0.105469	-0.117188	703	16_54_15_9796870
0.020508	-0.190430	0.691406	-0.768694	-0.328101	-0.506213	-0.316406	-0.070313	-0.117188	704	16_54_15_9958160
0.032227	-0.196289	0.691406	-0.759320	-0.328101	-0.506213	-0.304688	-0.093750	-0.105469	705	16_54_16_0119450
0.038086	-0.205078	0.694336	-0.759320	-0.318727	-0.496839	-0.316406	-0.128906	-0.117188	706	16_54_16_0280740
0.029297	-0.193359	0.688477	-0.759320	-0.328101	-0.506213	-0.316406	-0.082031	-0.105469	707	16_54_16_0442030
0.026367	-0.190430	0.697266	-0.759320	-0.328101	-0.496839	-0.316406	-0.117188	-0.128906	708	16_54_16_0603320
0.026367	-0.187500	0.682617	-0.759320	-0.328101	-0.496839	-0.316406	-0.117188	-0.199219	709	16_54_16_0764610
0.029297	-0.175781	0.688477	-0.768694	-0.328101	-0.506213	-0.304688	-0.117188	-0.105469	710	16_54_16_0925900
0.029297	-0.184570	0.682617	-0.759320	-0.328101	-0.506213	-0.304688	-0.128906	-0.058594	711	16_54_16_1087190
0.029297	-0.193359	0.688477	-0.768694	-0.318727	-0.506213	-0.316406	-0.082031	-0.105469	712	16_54_16_1248480
0.026367	-0.190430	0.694336	-0.768694	-0.328101	-0.506213	-0.281250	-0.046875	0.093750	713	16_54_16_1409770
0.029297	-0.193359	0.688477	-0.759320	-0.328101	-0.496839	-0.316406	-0.070313	0.199219	714	16_54_16_1571060
0.023438	-0.193359	0.688477	-0.759320	-0.328101	-0.496839	-0.316406	-0.082031	-0.140625	715	16_54_16_1732350
0.035156	-0.193359	0.694336	-0.768694	-0.328101	-0.496839	-0.316406	-0.117188	-0.152344	716	16_54_16_1893640
0.023438	-0.196289	0.691406	-0.759320	-0.328101	-0.496839	-0.199219	-0.117188	-0.105469	717	16_54_16_2054930
0.029297	-0.175781	0.688477	-0.759320	-0.328101	-0.496839	-0.304688	-0.164063	-0.175781	718	16_54_16_2216220
0.026367	-0.187500	0.694336	-0.759320	-0.328101	-0.506213	-0.316406	-0.093750	-0.140625	719	16_54_16_2377510
0.029297	-0.193359	0.685547	-0.768694	-0.328101	-0.496839	-0.105469	-0.070313	0.035156	720	16_54_16_2538800
0.032227	-0.190430	0.688477	-0.759320	-0.328101	-0.506213	-0.339844	-0.117188	-0.070313	721	16_54_16_2700090
0.032227	-0.184570	0.691406	-0.768694	-0.328101	-0.496839	-0.140625	-0.093750	0.070313	722	16_54_16_2861380
0.041016	-0.184570	0.688477	-0.768694	-0.318727	-0.496839	-0.222656	-0.070313	0.339844	723	16_54_16_3022670
0.029297	-0.193359	0.682617	-0.759320	-0.328101	-0.496839	-0.316406	-0.070313	-0.164063	724	16_54_16_3183960
0.020508	-0.193359	0.688477	-0.768694	-0.328101	-0.496839	-0.304688	-0.082031	-0.093750	725	16_54_16_3345250
0.032227	-0.193359	0.691406	-0.759320	-0.328101	-0.496839	-0.316406	-0.117188	-0.070313	726	16_54_16_3506540
0.017578	-0.193359	0.688477	-0.759320	-0.328101	-0.506213	-0.328125	-0.082031	-0.105469	727	16_54_16_3667830
0.026367	-0.184570	0.691406	-0.768694	-0.328101	-0.496839	-0.316406	-0.117188	-0.164063	728	16_54_16_3829120
0.026367	-0.193359	0.682617	-0.768694	-0.328101	-0.496839	-0.222656	-0.093750	-0.105469	729	16_54_16_3990410
0.017578	-0.196289	0.700195	-0.759320	-0.328101	-0.496839	-0.316406	-0.070313	-0.082031	730	16_54_16_4151700
0.032227	-0.193359	0.688477	-0.768694	-0.328101	-0.496839	-0.304688	-0.105469	-0.082031	731	16_54_16_4312990
0.032227	-0.181641	0.688477	-0.759320	-0.328101	-0.496839	-0.316406	-0.128906	-0.070313	732	16_54_16_4474280
0.026367	-0.184570	0.694336	-0.759320	-0.328101	-0.496839	-0.316406	-0.070313	-0.082031	733	16_54_16_4635570
0.026367	-0.190430	0.682617	-0.768694	-0.328101	-0.506213	-0.292969	-0.070313	-0.105469	734	16_54_16_4796860
0.029297	-0.190430	0.688477	-0.759320	-0.328101	-0.506213	-0.304688	-0.093750	-0.105469	735	16_54_16_4958150
0.029297	-0.193359	0.688477	-0.768694	-0.328101	-0.506213	-0.316406	-0.117188	-0.093750	736	16_54_16_5119440
0.029297	-0.193359	0.697266	-0.759320	-0.337475	-0.496839	-0.316406	-0.128906	-0.140625	737	16_54_16_5280730
0.023438	-0.187500	0.697266	-0.759320	-0.328101	-0.506213	-0.316406	-0.140625	-0.152344	738	16_54_16_5442020
0.038086	-0.199219	0.688477	-0.768694	-0.328101	-0.506213	-0.304688	-0.070313	-0.140625	739	16_54_16_5603310
0.029297	-0.190430	0.685547	-0.759320	-0.328101	-0.496839	-0.351563	-0.093750	-0.140625	740	16_54_16_5764600
0.023438	-0.181641	0.691406	-0.768694	-0.328101	-0.496839	-0.316406	-0.128906	-0.128906	741	16_54_16_5925890
0.026367	-0.199219	0.694336	-0.759320	-0.318727	-0.506213	-0.117188	-0.046875	0.011719	742	16_54_16_6087180
0.035156	-0.184570	0.694336	-0.768694	-0.328101	-0.506213	-0.292969	-0.093750	-0.093750	743	16_54_16_6248470
0.017578	-0.187500	0.688477	-0.768694	-0.328101	-0.506213	-0.316406	-0.128906	-0.105469	744	16_54_16_6409760
0.026367	-0.193359	0.697266	-0.759320	-0.328101	-0.506213	-0.316406	-0.093750	-0.105469	745	16_54_16_6571050
0.032227	-0.193359	0.697266	-0.768694	-0.328101	-0.496839	-0.304688	-0.093750	-0.082031	746	16_54_16_6732340
0.035156	-0.193359	0.688477	-0.759320	-0.328101	-0.506213	-0.316406	-0.128906	-0.058594	747	16_54_16_6893630
0.029297	-0.193359	0.688477	-0.768694	-0.328101	-0.496839	-0.304688	-0.093750	-0.082031	748	16_54_16_7054920
0.023438	-0.193359	0.682617	-0.759320	-0.328101	-0.496839	-0.316406	-0.082031	-0.128906	749	16_54_16_7216210
0.041016	-0.187500	0.682617	-0.759320	-0.318727	-0.506213	-0.328125	-0.105469	-0.082031	750	16_54_16_7377500
0.032227	-0.190430	0.682617	-0.768694	-0.328101	-0.506213	-0.304688	-0.082031	-0.105469	751	16_54_16_7538790
0.026367	-0.193359	0.688477	-0.759320	-0.328101	-0.506213	-0.328125	-0.093750	-0.152344	752	16_54_16_7700080
0.026367	-0.184570	0.688477	-0.768694	-0.328101	-0.506213	-0.316406	-0.093750	-0.140625	753	16_54_16_7861370
0.020508	-0.187500	0.682617	-0.768694	-0.328101	-0.506213	-0.316406	-0.117188	-0.117188	754	16_54_16_8022660
0.041016	-0.187500	0.691406	-0.768694	-0.318727	-0.496839	-0.316406	-0.093750	-0.128906	755	16_54_16_8183950
0.035156	-0.184570	0.694336	-0.759320	-0.318727	-0.506213	-0.304688	-0.105469	-0.164063	756	16_54_16_8345240
0.026367	-0.187500	0.688477	-0.749946	-0.318727	-0.506213	-0.316406	-0.128906	-0.128906	757	16_54_16_8506530
0.029297	-0.193359	0.691406	-0.759320	-0.328101	-0.496839	-0.316406	-0.070313	-0.093750	758	16_54_16_8667820
0.026367	-0.193359	0.691406	-0.759320	-0.318727	-0.506213	-0.304688	-0.082031	-0.117188	759	16_54_16_8829110
0.029297	-0.181641	0.694336	-0.768694	-0.318727	-0.496839	-0.316406	-0.082031	-0.105469	760	16_54_16_8990400
0.026367	-0.193359	0.682617	-0.759320	-0.328101	-0.506213	-0.328125	-0.082031	-0.140625	761	16_54_16_9151690
0.032227	-0.184570	0.691406	-0.759320	-0.318727	-0.506213	-0.316406	-0.093750	-0.164063	762	16_54_16_9312980
0.029297	-0.193359	0.685547	-0.768694	-0.318727	-0.506213	-0.351563	-0.105469	-0.140625	763	16_54_16_9474270
0.026367	-0.190430	0.694336	-0.759320	-0.328101	-0.496839	-0.328125	-0.082031	-0.152344	764	16_54_16_9635560
0.026367	-0.187500	0.688477	-0.768694	-0.318727	-0.496839	-0.328125	-0.082031	-0.152344	765	16_54_16_9796850
0.029297	-0.187500	0.688477	-0.768694	-0.328101	-0.496839	-0.339844	-0.093750	-0.164063	766	16_54_16_9958140
0.032227	-0.187500	0.694336	-0.759320	-0.318727	-0.506213	-0.316406	-0.070313	-0.152344	767	16_54_17_0119430
0.029297	-0.193359	0.682617	-0.768694	-0.328101	-0.506213	-0.304688	-0.105469	-0.117188	768	16_54_17_0280720
0.026367	-0.190430	0.688477	-0.759320	-0.328101	-0.506213	-0.316406	-0.164063	-0.058594	769	16_54_17_0442010
0.026367	-0.190430	0.688477	-0.768694	-0.328101	-0.506213	-0.304688	-0.128906	-0.082031	770	16_54_17_0603300
0.029297	-0.187500	0.694336	-0.759320	-0.328101	-0.506213	-0.316406	-0.070313	-0.152344	771	16_54_17_0764590
0.029297	-0.178711	0.691406	-0.768694	-0.328101	-0.506213	-0.316406	-0.082031	-0.152344	772	16_54_17_0925880
0.035156	-0.184570	0.685547	-0.759320	-0.318727	-0.506213	-0.304688	-0.105469	-0.117188	773	16_54_17_1087170
0.014648	-0.184570	0.697266	-0.759320	-0.318727	-0.496839	-0.187500	-0.011719	-0.035156	774	16_54_17_1248460
0.032227	-0.187500	0.688477	-0.759320	-0.328101	-0.506213	-0.304688	-0.117188	-0.164063	775	16_54_17_1409750
0.041016	-0.178711	0.691406	-0.768694	-0.318727	-0.496839	-0.269531	-0.093750	-0.117188	776	16_54_17_1571040
0.041016	-0.175781	0.691406	-0.768694	-0.318727	-0.496839	-0.269531	-0.070313	0.082031	777	16_54_17_1732330
0.043945	-0.193359	0.691406	-0.759320	-0.309353	-0.496839	-0.304688	-0.070313	-0.140625	778	16_54_17_1893620
0.041016	-0.210938	0.688477	-0.768694	-0.309353	-0.496839	-0.304688	-0.070313	-0.140625	779	16_54_17_2054910
0.046875	-0.205078	0.688477	-0.768694	-0.309353	-0.496839	-0.304688	-0.070313	-0.046875	780	16_54_17_2216200
0.035156	-0.199219	0.688477	-0.768694	-0.318727	-0.478090	-0.316406	-0.082031	-0.058594	781	16_54_17_2377490
0.038086	-0.184570	0.691406	-0.768694	-0.318727	-0.478090	-0.304688	-0.117188	-0.105469	782	16_54_17_2538780
0.029297	-0.199219	0.691406	-0.759320	-0.299978	-0.478090	-0.304688	-0.105469	-0.070313	783	16_54_17_2700070
0.026367	-0.208008	0.706055	-0.768694	-0.299978	-0.496839	-0.316406	-0.082031	-0.105469	784	16_54_17_2861360
0.014648	-0.193359	0.706055	-0.768694	-0.299978	-0.468716	-0.316406	-0.082031	-0.117188	785	16_54_17_3022650
-0.008789	-0.205078	0.685547	-0.768694	-0.318727	-0.468716	-0.316406	-0.058594	0.128906	786	16_54_17_3183940
0.005859	-0.193359	0.679688	-0.768694	-0.328101	-0.478090	-0.351563	-0.082031	-0.105469	787	16_54_17_3345230
0.017578	-0.196289	0.670898	-0.768694	-0.328101	-0.478090	-0.304688	-0.117188	-0.140625	788	16_54_17_3506520
0.011719	-0.193359	0.682617	-0.778068	-0.318727	-0.487465	-0.316406	-0.093750	-0.117188	789	16_54_17_3667810
0.000000	-0.208008	0.682617	-0.768694	-0.309353	-0.487465	-0.316406	-0.082031	-0.093750	790	16_54_17_3829100
0.000000	-0.210938	0.679688	-0.768694	-0.309353	-0.487465	-0.316406	-0.093750	-0.082031	791	16_54_17_3990390
0.005859	-0.208008	0.682617	-0.778068	-0.318727	-0.496839	-0.164063	-0.070313	0.082031	792	16_54_17_4151680
-0.005859	-0.205078	0.700195	-0.759320	-0.328101	-0.496839	-0.316406	-0.070313	-0.070313	793	16_54_17_4312970
0.005859	-0.184570	0.691406	-0.768694	-0.318727	-0.506213	-0.316406	-0.070313	-0.128906	794	16_54_17_4474260
0.000000	-0.172852	0.685547	-0.759320	-0.318727	-0.506213	-0.328125	-0.082031	-0.082031	795	16_54_17_4635550
-0.005859	-0.178711	0.688477	-0.749946	-0.328101	-0.515588	-0.316406	-0.105469	-0.058594	796	16_54_17_4796840
0.005859	-0.172852	0.682617	-0.759320	-0.337475	-0.524962	-0.316406	-0.105469	-0.105469	797	16_54_17_4958130
0.000000	-0.181641	0.676758	-0.759320	-0.337475	-0.524962	-0.316406	-0.152344	-0.105469	798	16_54_17_5119420
0.011719	-0.184570	0.682617	-0.749946	-0.346850	-0.524962	-0.304688	-0.117188	-0.117188	799	16_54_17_5280710
0.005859	-0.175781	0.688477	-0.749946	-0.356224	-0.524962	-0.316406	-0.105469	-0.093750	800	16_54_17_5442000
0.008789	-0.181641	0.688477	-0.759320	-0.356224	-0.534336	-0.304688	-0.070313	-0.093750	801	16_54_17_5603290
0.014648	-0.190430	0.700195	-0.759320	-0.356224	-0.524962	-0.316406	-0.093750	-0.128906	802	16_54_17_5764580
0.026367	-0.193359	0.691406	-0.749946	-0.365598	-0.534336	-0.316406	-0.152344	-0.152344	803	16_54_17_5925870
0.035156	-0.208008	0.682617	-0.768694	-0.365598	-0.534336	-0.316406	-0.117188	-0.140625	804	16_54_17_6087160
0.046875	-0.205078	0.688477	-0.759320	-0.365598	-0.524962	-0.304688	-0.082031	-0.140625	805	16_54_17_6248450
0.052734	-0.202148	0.691406	-0.768694	-0.356224	-0.524962	-0.316406	-0.117188	-0.164063	806	16_54_17_6409740
0.058594	-0.199219	0.691406	-0.768694	-0.337475	-0.515588	-0.316406	-0.105469	-0.152344	807	16_54_17_6571030
0.061523	-0.190430	0.703125	-0.759320	-0.328101	-0.515588	-0.304688	-0.093750	-0.128906	808	16_54_17_6732320
0.052734	-0.190430	0.706055	-0.759320	-0.309353	-0.506213	-0.316406	-0.117188	-0.117188	809	16_54_17_6893610
0.029297	-0.187500	0.700195	-0.759320	-0.309353	-0.506213	-0.316406	-0.117188	-0.128906	810	16_54_17_7054900
0.032227	-0.184570	0.694336	-0.749946	-0.299978	-0.496839	-0.316406	-0.105469	-0.128906	811	16_54_17_7216190
0.014648	-0.172852	0.694336	-0.749946	-0.309353	-0.506213	-0.304688	-0.117188	-0.140625	812	16_54_17_7377480
0.041016	-0.184570	0.700195	-0.749946	-0.318727	-0.506213	-0.316406	-0.105469	-0.117188	813	16_54_17_7538770
0.035156	-0.181641	0.720703	-0.768694	-0.318727	-0.506213	-0.058594	-0.070313	0.105469	814	16_54_17_7700060
0.041016	-0.178711	0.714844	-0.749946	-0.318727	-0.506213	-0.351563	-0.105469	-0.093750	815	16_54_17_7861350
0.046875	-0.178711	0.700195	-0.759320	-0.318727	-0.515588	-0.339844	-0.082031	-0.128906	816	16_54_17_8022640
0.035156	-0.199219	0.700195	-0.749946	-0.328101	-0.496839	-0.316406	-0.093750	-0.140625	817	16_54_17_8183930
0.046875	-0.202148	0.682617	-0.759320	-0.328101	-0.496839	-0.281250	-0.070313	0.199219	818	16_54_17_8345220
0.046875	-0.181641	0.667969	-0.759320	-0.318727	-0.496839	-0.246094	-0.117188	-0.093750	819	16_54_17_8506510
0.046875	-0.190430	0.665039	-0.759320	-0.309353	-0.487465	-0.304688	-0.117188	-0.152344	820	16_54_17_8667800
0.029297	-0.193359	0.659180	-0.759320	-0.299978	-0.478090	-0.316406	-0.082031	-0.128906	821	16_54_17_8829090
0.029297	-0.184570	0.665039	-0.749946	-0.299978	-0.487465	-0.304688	-0.082031	-0.117188	822	16_54_17_8990380
0.020508	-0.193359	0.676758	-0.759320	-0.299978	-0.478090	-0.304688	-0.128906	-0.105469	823	16_54_17_9151670
-0.002930	-0.187500	0.676758	-0.759320	-0.299978	-0.478090	-0.304688	-0.140625	-0.105469	824	16_54_17_9312960
0.002930	-0.190430	0.688477	-0.768694	-0.318727	-0.478090	-0.316406	-0.070313	-0.128906	825	16_54_17_9474250
-0.008789	-0.199219	0.706055	-0.768694	-0.318727	-0.478090	-0.339844	-0.070313	-0.164063	826	16_54_17_9635540
0.000000	-0.193359	0.703125	-0.768694	-0.328101	-0.478090	-0.292969	-0.070313	-0.093750	827	16_54_17_9796830
0.002930	-0.202148	0.700195	-0.768694	-0.337475	-0.487465	-0.328125	-0.093750	-0.082031	828	16_54_17_9958120
0.011719	-0.202148	0.688477	-0.768694	-0.337475	-0.496839	-0.304688	-0.128906	-0.140625	829	16_54_18_0119410
0.002930	-0.187500	0.682617	-0.768694	-0.328101	-0.496839	-0.257813	-0.093750	-0.082031	830	16_54_18_0280700
0.005859	-0.205078	0.682617	-0.759320	-0.328101	-0.506213	-0.304688	-0.128906	-0.117188	831	16_54_18_0441990
0.002930	-0.184570	0.676758	-0.768694	-0.328101	-0.496839	-0.316406	-0.082031	-0.117188	832	16_54_18_0603280
0.002930	-0.202148	0.676758	-0.759320	-0.328101	-0.496839	-0.140625	-0.082031	-0.011719	833	16_54_18_0764570
0.005859	-0.196289	0.685547	-0.759320	-0.328101	-0.496839	-0.316406	-0.105469	-0.152344	834	16_54_18_0925860
0.005859	-0.190430	0.682617	-0.768694	-0.328101	-0.496839	-0.105469	-0.035156	-0.035156	835	16_54_18_1087150
0.011719	-0.199219	0.688477	-0.759320	-0.328101	-0.506213	-0.316406	-0.093750	-0.105469	836	16_54_18_1248440
0.011719	-0.193359	0.688477	-0.759320	-0.328101	-0.506213	-0.316406	-0.093750	-0.128906	837	16_54_18_1409730
0.002930	-0.193359	0.691406	-0.768694	-0.337475	-0.506213	-0.316406	-0.117188	-0.082031	838	16_54_18_1571020
0.017578	-0.190430	0.691406	-0.768694	-0.337475	-0.515588	-0.304688	-0.105469	-0.082031	839	16_54_18_1732310
0.011719	-0.199219	0.688477	-0.768694	-0.346850	-0.515588	-0.316406	-0.093750	-0.046875	840	16_54_18_1893600
0.023438	-0.193359	0.691406	-0.768694	-0.346850	-0.515588	-0.304688	-0.082031	-0.105469	841	16_54_18_2054890
0.017578	-0.190430	0.676758	-0.759320	-0.346850	-0.506213	-0.304688	-0.128906	-0.117188	842	16_54_18_2216180
0.043945	-0.187500	0.700195	-0.768694	-0.346850	-0.515588	-0.304688	-0.128906	-0.117188	843	16_54_18_2377470
0.032227	-0.193359	0.688477	-0.768694	-0.337475	-0.506213	-0.316406	-0.082031	-0.128906	844	16_54_18_2538760
0.029297	-0.184570	0.688477	-0.768694	-0.328101	-0.515588	-0.023438	-0.070313	0.105469	845	16_54_18_2700050
0.032227	-0.190430	0.700195	-0.768694	-0.328101	-0.506213	-0.316406	-0.117188	-0.082031	846	16_54_18_2861340
0.041016	-0.196289	0.688477	-0.768694	-0.337475	-0.506213	-0.328125	-0.164063	-0.093750	847	16_54_18_3022630
0.026367	-0.190430	0.694336	-0.768694	-0.328101	-0.506213	-0.304688	-0.082031	0.117188	848	16_54_18_3183920
0.032227	-0.205078	0.688477	-0.759320	-0.337475	-0.506213	-0.316406	-0.117188	-0.164063	849	16_54_18_3345210
0.026367	-0.193359	0.694336	-0.749946	-0.328101	-0.506213	-0.316406	-0.128906	-0.140625	850	16_54_18_3506500
0.038086	-0.181641	0.700195	-0.759320	-0.328101	-0.506213	-0.316406	-0.128906	-0.105469	851	16_54_18_3667790
0.020508	-0.196289	0.694336	-0.759320	-0.328101	-0.506213	-0.304688	-0.105469	-0.152344	852	16_54_18_3829080
0.038086	-0.184570	0.691406	-0.759320	-0.328101	-0.506213	-0.257813	-0.070313	-0.105469	853	16_54_18_3990370
0.023438	-0.196289	0.688477	-0.768694	-0.328101	-0.496839	-0.199219	-0.058594	-0.035156	854	16_54_18_4151660
0.038086	-0.184570	0.688477	-0.768694	-0.328101	-0.496839	-0.292969	-0.105469	-0.082031	855	16_54_18_4312950
0.014648	-0.193359	0.694336	-0.768694	-0.328101	-0.496839	-0.082031	-0.023438	0.046875	856	16_54_18_4474240
0.035156	-0.190430	0.685547	-0.759320	-0.328101	-0.506213	-0.316406	-0.117188	-0.082031	857	16_54_18_4635530
0.020508	-0.193359	0.685547	-0.759320	-0.318727	-0.496839	-0.316406	-0.093750	-0.093750	858	16_54_18_4796820
0.029297	-0.190430	0.688477	-0.759320	-0.328101	-0.506213	-0.316406	-0.105469	-0.105469	859	16_54_18_4958110
0.017578	-0.187500	0.694336	-0.768694	-0.318727	-0.506213	-0.304688	-0.070313	-0.105469	860	16_54_18_5119400
0.029297	-0.187500	0.682617	-0.768694	-0.328101	-0.506213	-0.316406	-0.093750	-0.140625	861	16_54_18_5280690
0.017578	-0.187500	0.688477	-0.759320	-0.328101	-0.506213	-0.316406	-0.128906	-0.140625	862	16_54_18_5441980
0.020508	-0.190430	0.682617	-0.759320	-0.328101	-0.496839	-0.351563	-0.105469	-0.105469	863	16_54_18_5603270
0.026367	-0.187500	0.691406	-0.768694	-0.337475	-0.506213	-0.316406	-0.093750	-0.093750	864	16_54_18_5764560
0.029297	-0.205078	0.682617	-0.768694	-0.328101	-0.496839	-0.164063	-0.046875	-0.058594	865	16_54_18_5925850
0.026367	-0.190430	0.694336	-0.759320	-0.328101	-0.506213	-0.316406	-0.082031	-0.152344	866	16_54_18_6087140
0.026367	-0.193359	0.673828	-0.768694	-0.328101	-0.496839	-0.316406	-0.070313	-0.140625	867	16_54_18_6248430
0.026367	-0.196289	0.697266	-0.759320	-0.328101	-0.506213	-0.316406	-0.093750	-0.140625	868	16_54_18_6409720
0.029297	-0.196289	0.688477	-0.759320	-0.328101	-0.496839	-0.316406	-0.105469	-0.128906	869	16_54_18_6571010
0.023438	-0.190430	0.688477	-0.759320	-0.328101	-0.506213	-0.339844	-0.082031	-0.105469	870	16_54_18_6732300
0.029297	-0.190430	0.688477	-0.759320	-0.328101	-0.506213	-0.316406	-0.093750	-0.117188	871	16_54_18_6893590
0.023438	-0.181641	0.688477	-0.759320	-0.328101	-0.496839	-0.316406	-0.093750	-0.152344	872	16_54_18_7054880
0.020508	-0.187500	0.688477	-0.759320	-0.328101	-0.506213	-0.316406	-0.152344	-0.128906	873	16_54_18_7216170
0.020508	-0.193359	0.688477	-0.759320	-0.328101	-0.496839	-0.316406	-0.117188	-0.105469	874	16_54_18_7377460
0.029297	-0.175781	0.694336	-0.768694	-0.328101	-0.496839	-0.304688	-0.093750	-0.128906	875	16_54_18_7538750
0.017578	-0.199219	0.688477	-0.768694	-0.328101	-0.496839	-0.304688	-0.082031	-0.117188	876	16_54_18_7700040
0.029297	-0.193359	0.679688	-0.768694	-0.328101	-0.496839	-0.316406	-0.105469	-0.105469	877	16_54_18_7861330
0.026367	-0.202148	0.685547	-0.768694	-0.318727	-0.506213	-0.187500	-0.046875	-0.058594	878	16_54_18_8022620
0.026367	-0.187500	0.700195	-0.759320	-0.328101	-0.506213	-0.351563	-0.093750	-0.175781	879	16_54_18_8183910
0.026367	-0.199219	0.688477	-0.759320	-0.328101	-0.496839	-0.316406	-0.093750	-0.152344	880	16_54_18_8345200
0.020508	-0.187500	0.691406	-0.768694	-0.328101	-0.496839	-0.339844	-0.070313	-0.140625	881	16_54_18_8506490
0.017578	-0.187500	0.691406	-0.759320	-0.328101	-0.506213	-0.316406	-0.082031	-0.164063	882	16_54_18_8667780
0.023438	-0.193359	0.679688	-0.759320	-0.328101	-0.496839	-0.351563	-0.070313	-0.128906	883	16_54_18_8829070
0.026367	-0.190430	0.688477	-0.759320	-0.328101	-0.506213	-0.316406	-0.093750	-0.140625	884	16_54_18_8990360
0.014648	-0.193359	0.688477	-0.759320	-0.328101	-0.506213	-0.316406	-0.093750	-0.164063	885	16_54_18_9151650
0.020508	-0.184570	0.700195	-0.768694	-0.328101	-0.506213	-0.304688	-0.082031	-0.164063	886	16_54_18_9312940
0.029297	-0.193359	0.691406	-0.768694	-0.328101	-0.506213	-0.316406	-0.117188	-0.164063	887	16_54_18_9474230
0.017578	-0.190430	0.688477	-0.759320	-0.328101	-0.506213	-0.316406	-0.093750	-0.093750	888	16_54_18_9635520
0.020508	-0.196289	0.685547	-0.768694	-0.328101	-0.506213	-0.304688	-0.105469	-0.082031	889	16_54_18_9796810
0.026367	-0.190430	0.688477	-0.759320	-0.328101	-0.506213	-0.316406	-0.093750	-0.128906	890	16_54_18_9958100
0.026367	-0.199219	0.697266	-0.759320	-0.328101	-0.506213	-0.316406	-0.117188	-0.093750	891	16_54_19_0119390
0.029297	-0.199219	0.691406	-0.768694	-0.328101	-0.506213	-0.316406	-0.070313	-0.082031	892	16_54_19_0280680
0.026367	-0.184570	0.688477	-0.759320	-0.337475	-0.506213	-0.328125	-0.082031	-0.128906	893	16_54_19_0441970
0.029297	-0.187500	0.688477	-0.759320	-0.328101	-0.506213	-0.304688	-0.117188	-0.128906	894	16_54_19_0603260
0.032227	-0.181641	0.685547	-0.768694	-0.328101	-0.506213	-0.199219	-0.058594	-0.128906	895	16_54_19_0764550
0.011719	-0.193359	0.694336	-0.759320	-0.328101	-0.506213	-0.316406	-0.117188	-0.082031	896	16_54_19_0925840
0.032227	-0.193359	0.691406	-0.768694	-0.328101	-0.506213	-0.140625	-0.046875	-0.011719	897	16_54_19_1087130
0.029297	-0.187500	0.685547	-0.768694	-0.328101	-0.496839	-0.316406	-0.140625	-0.105469	898	16_54_19_1248420
0.038086	-0.193359	0.691406	-0.768694	-0.328101	-0.496839	-0.187500	-0.035156	0.093750	899	16_54_19_1409710
0.023438	-0.193359	0.691406	-0.768694	-0.328101	-0.506213	-0.316406	-0.105469	-0.093750	900	16_54_19_1571000
0.023438	-0.190430	0.688477	-0.778068	-0.328101	-0.506213	-0.234375	-0.140625	-0.105469	901	16_54_19_1732290
0.017578	-0.196289	0.697266	-0.768694	-0.328101	-0.496839	-0.316406	-0.082031	-0.128906	902	16_54_19_1893580
0.032227	-0.199219	0.691406	-0.759320	-0.328101	-0.506213	-0.316406	-0.070313	-0.199219	903	16_54_19_2054870
0.026367	-0.184570	0.700195	-0.759320	-0.328101	-0.506213	-0.304688	-0.070313	-0.175781	904	16_54_19_2216160
0.026367	-0.187500	0.685547	-0.759320	-0.328101	-0.496839	-0.316406	-0.082031	-0.164063	905	16_54_19_2377450
0.032227	-0.190430	0.682617	-0.759320	-0.318727	-0.496839	-0.316406	-0.070313	-0.164063	906	16_54_19_2538740
0.026367	-0.196289	0.688477	-0.759320	-0.328101	-0.496839	-0.316406	-0.082031	-0.105469	907	16_54_19_2700030
0.023438	-0.184570	0.688477	-0.759320	-0.328101	-0.506213	-0.082031	-0.070313	0.046875	908	16_54_19_2861320
0.020508	-0.187500	0.688477	-0.768694	-0.328101	-0.506213	-0.316406	-0.152344	-0.128906	909	16_54_19_3022610
0.008789	-0.193359	0.688477	-0.759320	-0.328101	-0.506213	-0.316406	-0.117188	-0.105469	910	16_54_19_3183900
0.014648	-0.187500	0.688477	-0.759320	-0.328101	-0.506213	-0.316406	-0.093750	-0.105469	911	16_54_19_3345190
0.017578	-0.184570	0.685547	-0.768694	-0.318727	-0.506213	-0.269531	-0.082031	-0.082031	912	16_54_19_3506480
0.026367	-0.196289	0.691406	-0.768694	-0.318727	-0.496839	-0.316406	-0.093750	-0.082031	913	16_54_19_3667770
0.029297	-0.205078	0.688477	-0.759320	-0.328101	-0.506213	-0.316406	-0.070313	-0.058594	914	16_54_19_3829060
0.026367	-0.187500	0.694336	-0.768694	-0.328101	-0.506213	-0.222656	-0.046875	-0.046875	915	16_54_19_3990350
0.020508	-0.190430	0.688477	-0.768694	-0.318727	-0.496839	-0.316406	-0.070313	-0.152344	916	16_54_19_4151640
0.029297	-0.184570	0.688477	-0.759320	-0.328101	-0.496839	-0.316406	-0.070313	-0.105469	917	16_54_19_4312930
0.029297	-0.196289	0.688477	-0.759320	-0.328101	-0.506213	-0.316406	-0.105469	-0.046875	918	16_54_19_4474220
0.026367	-0.181641	0.694336	-0.759320	-0.328101	-0.534336	-0.339844	-0.140625	-0.070313	919	16_54_19_4635510
0.038086	-0.187500	0.694336	-0.768694	-0.328101	-0.496839	-0.222656	-0.023438	0.105469	920	16_54_19_4796800
0.023438	-0.190430	0.679688	-0.768694	-0.328101	-0.496839	-0.316406	-0.070313	-0.152344	921	16_54_19_4958090
0.035156	-0.187500	0.694336	-0.759320	-0.328101	-0.506213	-0.328125	-0.070313	0.035156	922	16_54_19_5119380
0.029297	-0.190430	0.682617	-0.759320	-0.328101	-0.506213	-0.316406	-0.082031	-0.117188	923	16_54_19_5280670
0.020508	-0.187500	0.688477	-0.759320	-0.328101	-0.506213	-0.339844	-0.117188	-0.152344	924	16_54_19_5441960
0.029297	-0.190430	0.694336	-0.768694	-0.328101	-0.506213	-0.316406	-0.117188	-0.128906	925	16_54_19_5603250
0.029297	-0.196289	0.697266	-0.759320	-0.328101	-0.496839	-0.316406	-0.082031	-0.128906	926	16_54_19_5764540
0.029297	-0.187500	0.688477	-0.759320	-0.328101	-0.506213	-0.316406	-0.117188	-0.140625	927	16_54_19_5925830
0.020508	-0.205078	0.682617	-0.759320	-0.328101	-0.506213	-0.316406	-0.117188	-0.128906	928	16_54_19_6087120
0.035156	-0.196289	0.700195	-0.768694	-0.328101	-0.506213	-0.058594	-0.093750	0.082031	929	16_54_19_6248410
0.029297	-0.193359	0.679688	-0.759320	-0.328101	-0.506213	-0.339844	-0.140625	-0.117188	930	16_54_19_6409700
0.026367	-0.193359	0.688477	-0.768694	-0.328101	-0.496839	-0.292969	-0.070313	0.187500	931	16_54_19_6570990
0.026367	-0.193359	0.688477	-0.768694	-0.328101	-0.496839	-0.304688	-0.082031	-0.140625	932	16_54_19_6732280
0.026367	-0.184570	0.688477	-0.759320	-0.328101	-0.496839	-0.328125	-0.082031	-0.140625	933	16_54_19_6893570
0.029297	-0.184570	0.688477	-0.759320	-0.328101	-0.496839	-0.316406	-0.082031	-0.140625	934	16_54_19_7054860
0.017578	-0.184570	0.691406	-0.759320	-0.318727	-0.496839	-0.351563	-0.117188	-0.140625	935	16_54_19_7216150
0.026367	-0.199219	0.688477	-0.768694	-0.328101	-0.506213	-0.210938	-0.105469	-0.070313	936	16_54_19_7377440
0.023438	-0.193359	0.688477	-0.768694	-0.337475	-0.506213	-0.304688	-0.070313	-0.128906	937	16_54_19_7538730
0.029297	-0.196289	0.682617	-0.759320	-0.328101	-0.506213	-0.316406	-0.082031	-0.152344	938	16_54_19_7700020
0.038086	-0.187500	0.691406	-0.768694	-0.337475	-0.496839	-0.070313	-0.070313	0.023438	939	16_54_19_7861310
0.026367	-0.181641	0.688477	-0.768694	-0.328101	-0.506213	-0.316406	-0.117188	-0.105469	940	16_54_19_8022600
0.026367	-0.190430	0.685547	-0.759320	-0.328101	-0.506213	-0.316406	-0.082031	-0.093750	941	16_54_19_8183890
0.029297	-0.193359	0.691406	-0.759320	-0.328101	-0.496839	-0.316406	-0.082031	-0.082031	942	16_54_19_8345180
0.029297	-0.175781	0.688477	-0.768694	-0.328101	-0.506213	-0.316406	-0.082031	0.035156	943	16_54_19_8506470
0.029297	-0.181641	0.685547	-0.759320	-0.328101	-0.496839	-0.316406	-0.105469	-0.117188	944	16_54_19_8667760
0.026367	-0.196289	0.691406	-0.759320	-0.337475	-0.496839	-0.316406	-0.093750	-0.035156	945	16_54_19_8829050
0.029297	-0.193359	0.685547	-0.768694	-0.328101	-0.506213	-0.316406	-0.117188	-0.035156	946	16_54_19_8990340
0.017578	-0.193359	0.685547	-0.759320	-0.328101	-0.506213	-0.304688	-0.082031	-0.128906	947	16_54_19_9151630
0.038086	-0.187500	0.688477	-0.768694	-0.328101	-0.496839	-0.316406	-0.070313	-0.117188	948	16_54_19_9312920
0.014648	-0.184570	0.694336	-0.759320	-0.328101	-0.506213	-0.328125	-0.070313	-0.082031	949	16_54_19_9474210
0.029297	-0.190430	0.685547	-0.768694	-0.328101	-0.496839	-0.128906	-0.035156	0.046875	950	16_54_19_9635500
0.035156	-0.193359	0.694336	-0.759320	-0.328101	-0.496839	-0.351563	-0.093750	-0.152344	951	16_54_19_9796790
0.023438	-0.184570	0.691406	-0.768694	-0.328101	-0.506213	-0.281250	-0.035156	0.046875	952	16_54_19_9958080
0.029297	-0.178711	0.691406	-0.768694	-0.328101	-0.496839	-0.269531	-0.093750	-0.105469	953	16_54_20_0119370
0.023438	-0.199219	0.691406	-0.768694	-0.328101	-0.506213	-0.304688	-0.093750	-0.140625	954	16_54_20_0280660
0.023438	-0.181641	0.700195	-0.759320	-0.337475	-0.496839	-0.316406	-0.117188	-0.152344	955	16_54_20_0441950
0.026367	-0.193359	0.694336	-0.759320	-0.328101	-0.506213	-0.316406	-0.082031	-0.140625	956	16_54_20_0603240
0.032227	-0.199219	0.688477	-0.768694	-0.318727	-0.506213	-0.304688	-0.093750	-0.105469	957	16_54_20_0764530
0.029297	-0.193359	0.691406	-0.759320	-0.328101	-0.506213	-0.304688	-0.117188	-0.140625	958	16_54_20_0925820
0.023438	-0.187500	0.688477	-0.768694	-0.328101	-0.506213	-0.316406	-0.105469	-0.152344	959	16_54_20_1087110
0.029297	-0.193359	0.697266	-0.759320	-0.328101	-0.506213	-0.304688	-0.070313	-0.105469	960	16_54_20_1248400
0.017578	-0.184570	0.688477	-0.759320	-0.328101	-0.506213	-0.316406	-0.093750	-0.140625	961	16_54_20_1409690
0.026367	-0.187500	0.682617	-0.759320	-0.328101	-0.506213	-0.316406	-0.105469	-0.175781	962	16_54_20_1570980
0.041016	-0.196289	0.691406	-0.759320	-0.328101	-0.506213	-0.316406	-0.093750	-0.105469	963	16_54_20_1732270
0.035156	-0.181641	0.682617	-0.768694	-0.328101	-0.506213	-0.269531	-0.117188	0.082031	964	16_54_20_1893560
0.023438	-0.199219	0.688477	-0.759320	-0.328101	-0.506213	-0.316406	-0.082031	-0.070313	965	16_54_20_2054850
0.029297	-0.190430	0.688477	-0.768694	-0.328101	-0.506213	-0.316406	-0.082031	-0.140625	966	16_54_20_2216140
0.029297	-0.193359	0.682617	-0.768694	-0.328101	-0.496839	-0.316406	-0.070313	-0.152344	967	16_54_20_2377430
0.020508	-0.181641	0.691406	-0.759320	-0.328101	-0.506213	-0.304688	-0.082031	-0.128906	968	16_54_20_2538720
0.035156	-0.181641	0.688477	-0.759320	-0.328101	-0.506213	-0.175781	-0.046875	0.000000	969	16_54_20_2700010
0.041016	-0.196289	0.691406	-0.759320	-0.328101	-0.496839	-0.316406	-0.082031	-0.058594	970	16_54_20_2861300
0.017578	-0.199219	0.691406	-0.768694	-0.328101	-0.506213	-0.316406	-0.140625	-0.117188	971	16_54_20_3022590
0.023438	-0.193359	0.688477	-0.768694	-0.328101	-0.496839	-0.363281	-0.140625	-0.105469	972	16_54_20_3183880
0.023438	-0.187500	0.688477	-0.759320	-0.328101	-0.496839	-0.316406	-0.082031	-0.070313	973	16_54_20_3345170
0.026367	-0.187500	0.682617	-0.768694	-0.328101	-0.506213	-0.246094	-0.082031	0.222656	974	16_54_20_3506460
0.020508	-0.202148	0.688477	-0.768694	-0.328101	-0.496839	-0.316406	-0.070313	-0.128906	975	16_54_20_3667750
0.032227	-0.187500	0.688477	-0.759320	-0.328101	-0.496839	-0.316406	-0.082031	-0.175781	976	16_54_20_3829040
0.029297	-0.181641	0.682617	-0.759320	-0.328101	-0.506213	-0.316406	-0.117188	-0.152344	977	16_54_20_3990330
0.023438	-0.187500	0.688477	-0.759320	-0.328101	-0.506213	-0.316406	-0.093750	-0.128906	978	16_54_20_4151620
0.026367	-0.184570	0.700195	-0.759320	-0.328101	-0.496839	-0.304688	-0.070313	-0.152344	979	16_54_20_4312910
0.020508	-0.178711	0.685547	-0.768694	-0.337475	-0.506213	-0.316406	-0.082031	-0.199219	980	16_54_20_4474200
0.026367	-0.184570	0.700195	-0.759320	-0.328101	-0.506213	-0.316406	-0.128906	-0.175781	981	16_54_20_4635490
0.038086	-0.184570	0.688477	-0.768694	-0.328101	-0.496839	-0.292969	-0.128906	-0.117188	982	16_54_20_4796780
0.026367	-0.184570	0.688477	-0.768694	-0.328101	-0.496839	-0.316406	-0.093750	-0.152344	983	16_54_20_4958070
0.038086	-0.175781	0.688477	-0.759320	-0.328101	-0.506213	-0.316406	-0.070313	-0.164063	984	16_54_20_5119360
0.035156	-0.193359	0.688477	-0.759320	-0.328101	-0.506213	-0.257813	-0.070313	-0.128906	985	16_54_20_5280650
0.020508	-0.199219	0.688477	-0.768694	-0.328101	-0.496839	-0.316406	-0.093750	-0.164063	986	16_54_20_5441940
0.038086	-0.193359	0.682617	-0.768694	-0.328101	-0.496839	-0.316406	-0.128906	-0.164063	987	16_54_20_5603230
0.029297	-0.193359	0.694336	-0.759320	-0.328101	-0.496839	-0.339844	-0.082031	-0.175781	988	16_54_20_5764520
0.032227	-0.190430	0.688477	-0.759320	-0.328101	-0.506213	-0.316406	-0.082031	-0.152344	989	16_54_20_5925810
0.026367	-0.187500	0.688477	-0.759320	-0.328101	-0.496839	-0.316406	-0.117188	-0.140625	990	16_54_20_6087100
0.023438	-0.196289	0.685547	-0.768694	-0.328101	-0.506213	-0.304688	-0.117188	-0.152344	991	16_54_20_6248390
0.029297	-0.184570	0.685547	-0.759320	-0.328101	-0.496839	-0.316406	-0.105469	-0.140625	992	16_54_20_6409680
0.020508	-0.190430	0.685547	-0.768694	-0.328101	-0.506213	-0.269531	-0.093750	0.082031	993	16_54_20_6570970
0.017578	-0.199219	0.682617	-0.768694	-0.309353	-0.496839	-0.316406	-0.117188	-0.046875	994	16_54_20_6732260
0.029297	-0.196289	0.682617	-0.768694	-0.328101	-0.506213	-0.316406	-0.093750	-0.105469	995	16_54_20_6893550
0.020508	-0.190430	0.688477	-0.768694	-0.328101	-0.506213	-0.339844	-0.105469	-0.117188	996	16_54_20_7054840
0.026367	-0.187500	0.691406	-0.759320	-0.328101	-0.506213	-0.316406	-0.093750	-0.105469	997	16_54_20_7216130
0.026367	-0.187500	0.694336	-0.759320	-0.328101	-0.506213	-0.304688	-0.117188	-0.117188	998	16_54_20_7377420
0.029297	-0.196289	0.691406	-0.759320	-0.328101	-0.496839	-0.351563	-0.070313	-0.105469	999	16_54_20_7538710
0.026367	-0.187500	0.691406	-0.768694	-0.328101	-0.496839	-0.316406	-0.082031	-0.093750	1000	16_54_20_7700000
0.026367	-0.196289	0.688477	-0.768694	-0.328101	-0.506213	-0.316406	-0.082031	-0.117188	1001	16_54_20_7861290
0.020508	-0.193359	0.703125	-0.759320	-0.328101	-0.506213	-0.316406	-0.093750	-0.082031	1002	16_54_20_8022580
0.035156	-0.190430	0.688477	-0.759320	-0.328101	-0.496839	-0.316406	-0.105469	-0.058594	1003	16_54_20_8183870
0.032227	-0.193359	0.694336	-0.759320	-0.328101	-0.496839	-0.316406	-0.164063	-0.070313	1004	16_54_20_8345160
0.020508	-0.193359	0.688477	-0.768694	-0.328101	-0.496839	-0.304688	-0.164063	-0.105469	1005	16_54_20_8506450
0.029297	-0.196289	0.691406	-0.768694	-0.328101	-0.496839	-0.304688	-0.117188	-0.140625	1006	16_54_20_8667740
0.035156	-0.184570	0.691406	-0.759320	-0.328101	-0.506213	-0.316406	-0.117188	-0.105469	1007	16_54_20_8829030
0.023438	-0.196289	0.694336	-0.768694	-0.328101	-0.506213	-0.304688	-0.093750	-0.093750	1008	16_54_20_8990320
0.023438	-0.196289	0.688477	-0.759320	-0.328101	-0.506213	-0.316406	-0.128906	-0.105469	1009	16_54_20_9151610
0.017578	-0.187500	0.694336	-0.749946	-0.328101	-0.496839	-0.210938	-0.058594	-0.058594	1010	16_54_20_9312900
0.020508	-0.193359	0.691406	-0.768694	-0.328101	-0.506213	-0.316406	-0.117188	-0.152344	1011	16_54_20_9474190
0.020508	-0.199219	0.688477	-0.768694	-0.328101	-0.496839	-0.316406	-0.117188	-0.152344	1012	16_54_20_9635480
0.029297	-0.187500	0.691406	-0.768694	-0.328101	-0.506213	-0.339844	-0.093750	-0.128906	1013	16_54_20_9796770
0.032227	-0.190430	0.691406	-0.759320	-0.328101	-0.506213	-0.316406	-0.117188	-0.152344	1014	16_54_20_9958060
0.029297	-0.193359	0.688477	-0.768694	-0.328101	-0.506213	-0.316406	-0.082031	-0.152344	1015	16_54_21_0119350
0.026367	-0.187500	0.688477	-0.759320	-0.328101	-0.506213	-0.316406	-0.093750	-0.152344	1016	16_54_21_0280640
0.029297	-0.193359	0.679688	-0.768694	-0.337475	-0.496839	-0.210938	-0.093750	-0.058594	1017	16_54_21_0441930
0.020508	-0.193359	0.682617	-0.759320	-0.328101	-0.496839	-0.316406	-0.093750	-0.093750	1018	16_54_21_0603220
0.029297	-0.196289	0.688477	-0.759320	-0.328101	-0.496839	-0.339844	-0.070313	-0.093750	1019	16_54_21_0764510
0.026367	-0.193359	0.685547	-0.768694	-0.328101	-0.506213	-0.175781	-0.035156	-0.070313	1020	16_54_21_0925800
0.026367	-0.199219	0.682617	-0.759320	-0.328101	-0.506213	-0.316406	-0.093750	-0.164063	1021	16_54_21_1087090
0.023438	-0.190430	0.688477	-0.768694	-0.328101	-0.506213	-0.316406	-0.105469	-0.175781	1022	16_54_21_1248380
0.017578	-0.193359	0.700195	-0.759320	-0.328101	-0.506213	-0.316406	-0.093750	-0.175781	1023	16_54_21_1409670
0.023438	-0.193359	0.694336	-0.759320	-0.328101	-0.506213	-0.316406	-0.093750	-0.105469	1024	16_54_21_1570960
0.020508	-0.187500	0.700195	-0.759320	-0.328101	-0.506213	-0.316406	-0.117188	-0.082031	1025	16_54_21_1732250
0.038086	-0.187500	0.688477	-0.759320	-0.328101	-0.496839	-0.316406	-0.082031	-0.117188	1026	16_54_21_1893540
0.026367	-0.199219	0.682617	-0.759320	-0.328101	-0.506213	-0.328125	-0.070313	-0.140625	1027	16_54_21_2054830
0.020508	-0.196289	0.679688	-0.759320	-0.337475	-0.506213	-0.316406	-0.082031	-0.128906	1028	16_54_21_2216120
0.026367	-0.193359	0.688477	-0.759320	-0.328101	-0.506213	-0.339844	-0.082031	-0.105469	1029	16_54_21_2377410
0.029297	-0.196289	0.688477	-0.768694	-0.328101	-0.506213	-0.316406	-0.082031	-0.152344	1030	16_54_21_2538700
0.017578	-0.187500	0.691406	-0.768694	-0.328101	-0.506213	-0.164063	-0.082031	-0.070313	1031	16_54_21_2699990
0.029297	-0.196289	0.694336	-0.768694	-0.328101	-0.506213	-0.316406	-0.093750	-0.128906	1032	16_54_21_2861280
0.026367	-0.187500	0.697266	-0.768694	-0.328101	-0.506213	-0.316406	-0.070313	-0.105469	1033	16_54_21_3022570
0.026367	-0.190430	0.688477	-0.768694	-0.328101	-0.506213	-0.316406	-0.082031	-0.105469	1034	16_54_21_3183860
0.017578	-0.190430	0.700195	-0.768694	-0.328101	-0.496839	-0.281250	-0.058594	0.234375	1035	16_54_21_3345150
0.023438	-0.202148	0.676758	-0.768694	-0.328101	-0.506213	-0.328125	-0.070313	-0.152344	1036	16_54_21_3506440
0.020508	-0.190430	0.682617	-0.768694	-0.328101	-0.496839	-0.304688	-0.093750	-0.187500	1037	16_54_21_3667730
0.017578	-0.205078	0.694336	-0.759320	-0.328101	-0.506213	-0.316406	-0.105469	-0.164063	1038	16_54_21_3829020
0.023438	-0.184570	0.694336	-0.768694	-0.328101	-0.506213	-0.316406	-0.082031	-0.140625	1039	16_54_21_3990310
0.026367	-0.181641	0.688477	-0.768694	-0.328101	-0.506213	-0.316406	-0.117188	-0.152344	1040	16_54_21_4151600
0.023438	-0.199219	0.691406	-0.759320	-0.318727	-0.496839	-0.316406	-0.117188	-0.128906	1041	16_54_21_4312890
0.020508	-0.193359	0.691406	-0.768694	-0.328101	-0.506213	-0.316406	-0.128906	-0.128906	1042	16_54_21_4474180
0.035156	-0.190430	0.688477	-0.768694	-0.328101	-0.506213	-0.105469	-0.117188	0.000000	1043	16_54_21_4635470
0.023438	-0.193359	0.688477	-0.768694	-0.328101	-0.506213	-0.339844	-0.105469	-0.105469	1044	16_54_21_4796760
0.020508	-0.181641	0.694336	-0.768694	-0.328101	-0.506213	-0.281250	-0.128906	-0.058594	1045	16_54_21_4958050
0.029297	-0.190430	0.682617	-0.759320	-0.328101	-0.506213	-0.316406	-0.070313	-0.093750	1046	16_54_21_5119340
0.029297	-0.193359	0.694336	-0.768694	-0.328101	-0.506213	-0.351563	-0.070313	-0.105469	1047	16_54_21_5280630
0.032227	-0.193359	0.694336	-0.768694	-0.328101	-0.506213	-0.316406	-0.070313	-0.105469	1048	16_54_21_5441920
0.026367	-0.196289	0.694336	-0.759320	-0.328101	-0.506213	-0.316406	-0.093750	-0.093750	1049	16_54_21_5603210
0.029297	-0.199219	0.688477	-0.759320	-0.328101	-0.506213	-0.316406	-0.105469	-0.093750	1050	16_54_21_5764500
0.023438	-0.187500	0.691406	-0.768694	-0.328101	-0.496839	-0.316406	-0.105469	-0.093750	1051	16_54_21_5925790
0.029297	-0.196289	0.688477	-0.768694	-0.328101	-0.506213	-0.292969	-0.164063	-0.035156	1052	16_54_21_6087080
0.020508	-0.193359	0.688477	-0.759320	-0.328101	-0.496839	-0.316406	-0.117188	-0.070313	1053	16_54_21_6248370
0.023438	-0.193359	0.688477	-0.768694	-0.337475	-0.506213	-0.316406	-0.093750	-0.140625	1054	16_54_21_6409660
0.029297	-0.193359	0.694336	-0.768694	-0.328101	-0.506213	-0.316406	-0.117188	-0.105469	1055	16_54_21_6570950
0.023438	-0.190430	0.682617	-0.768694	-0.328101	-0.506213	-0.281250	-0.070313	-0.058594	1056	16_54_21_6732240
0.029297	-0.196289	0.688477	-0.768694	-0.328101	-0.506213	-0.316406	-0.105469	-0.128906	1057	16_54_21_6893530
0.029297	-0.196289	0.688477	-0.759320	-0.328101	-0.506213	-0.316406	-0.152344	-0.035156	1058	16_54_21_7054820
0.017578	-0.193359	0.688477	-0.759320	-0.328101	-0.506213	-0.316406	-0.117188	-0.093750	1059	16_54_21_7216110
0.026367	-0.187500	0.688477	-0.768694	-0.318727	-0.506213	-0.351563	-0.105469	-0.117188	1060	16_54_21_7377400
0.029297	-0.199219	0.691406	-0.768694	-0.328101	-0.496839	-0.351563	-0.093750	-0.140625	1061	16_54_21_7538690
0.020508	-0.193359	0.688477	-0.768694	-0.328101	-0.496839	-0.316406	-0.117188	-0.105469	1062	16_54_21_7699980
0.026367	-0.193359	0.694336	-0.759320	-0.365598	-0.496839	-0.316406	-0.117188	-0.082031	1063	16_54_21_7861270
0.029297	-0.193359	0.688477	-0.759320	-0.337475	-0.506213	-0.316406	-0.128906	-0.117188	1064	16_54_21_8022560
0.029297	-0.178711	0.694336	-0.759320	-0.328101	-0.506213	-0.304688	-0.117188	-0.117188	1065	16_54_21_8183850
0.029297	-0.190430	0.691406	-0.768694	-0.328101	-0.506213	-0.281250	-0.105469	-0.105469	1066	16_54_21_8345140
0.029297	-0.178711	0.691406	-0.759320	-0.328101	-0.506213	-0.304688	-0.070313	-0.117188	1067	16_54_21_8506430
0.029297	-0.193359	0.676758	-0.768694	-0.328101	-0.506213	-0.316406	-0.093750	-0.140625	1068	16_54_21_8667720
0.029297	-0.199219	0.682617	-0.768694	-0.328101	-0.506213	-0.304688	-0.117188	-0.175781	1069	16_54_21_8829010
0.011719	-0.187500	0.688477	-0.768694	-0.328101	-0.506213	-0.222656	-0.093750	-0.093750	1070	16_54_21_8990300
0.029297	-0.190430	0.685547	-0.768694	-0.328101	-0.506213	-0.222656	-0.093750	-0.011719	1071	16_54_21_9151590
0.026367	-0.193359	0.691406	-0.768694	-0.337475	-0.506213	-0.316406	-0.152344	-0.082031	1072	16_54_21_9312880
0.026367	-0.199219	0.694336	-0.768694	-0.328101	-0.506213	-0.316406	-0.128906	-0.140625	1073	16_54_21_9474170
0.023438	-0.193359	0.682617	-0.759320	-0.328101	-0.506213	-0.316406	-0.070313	-0.117188	1074	16_54_21_9635460
0.026367	-0.178711	0.688477	-0.759320	-0.328101	-0.506213	-0.316406	-0.093750	-0.070313	1075	16_54_21_9796750
0.020508	-0.190430	0.682617	-0.768694	-0.328101	-0.496839	-0.304688	-0.128906	-0.070313	1076	16_54_21_9958040
0.032227	-0.193359	0.688477	-0.759320	-0.328101	-0.496839	-0.316406	-0.093750	-0.093750	1077	16_54_22_0119330
0.023438	-0.190430	0.691406	-0.768694	-0.328101	-0.506213	-0.269531	-0.093750	-0.058594	1078	16_54_22_0280620
0.020508	-0.190430	0.685547	-0.768694	-0.328101	-0.496839	-0.281250	-0.070313	-0.082031	1079	16_54_22_0441910
0.029297	-0.187500	0.691406	-0.768694	-0.337475	-0.496839	-0.316406	-0.070313	-0.082031	1080	16_54_22_0603200
0.029297	-0.187500	0.688477	-0.768694	-0.328101	-0.506213	-0.316406	-0.082031	-0.105469	1081	16_54_22_0764490
0.017578	-0.202148	0.676758	-0.768694	-0.328101	-0.506213	-0.316406	-0.082031	-0.117188	1082	16_54_22_0925780
0.029297	-0.190430	0.691406	-0.768694	-0.328101	-0.496839	-0.304688	-0.093750	-0.093750	1083	16_54_22_1087070
0.026367	-0.193359	0.691406	-0.759320	-0.337475	-0.506213	-0.316406	-0.093750	-0.117188	1084	16_54_22_1248360
0.032227	-0.187500	0.682617	-0.759320	-0.328101	-0.506213	-0.304688	-0.117188	-0.105469	1085	16_54_22_1409650
0.014648	-0.184570	0.688477	-0.759320	-0.328101	-0.506213	-0.316406	-0.128906	-0.105469	1086	16_54_22_1570940
0.023438	-0.196289	0.685547	-0.768694	-0.337475	-0.496839	-0.316406	-0.128906	-0.117188	1087	16_54_22_1732230
0.020508	-0.187500	0.694336	-0.759320	-0.328101	-0.496839	-0.316406	-0.105469	-0.082031	1088	16_54_22_1893520
0.017578	-0.193359	0.688477	-0.759320	-0.328101	-0.506213	-0.316406	-0.105469	-0.128906	1089	16_54_22_2054810
0.008789	-0.199219	0.688477	-0.768694	-0.328101	-0.506213	-0.304688	-0.164063	-0.152344	1090	16_54_22_2216100
0.017578	-0.190430	0.694336	-0.759320	-0.328101	-0.506213	-0.316406	-0.164063	-0.152344	1091	16_54_22_2377390
0.011719	-0.199219	0.688477	-0.768694	-0.337475	-0.496839	-0.316406	-0.093750	-0.140625	1092	16_54_22_2538680
0.020508	-0.193359	0.682617	-0.768694	-0.328101	-0.496839	-0.304688	-0.082031	-0.128906	1093	16_54_22_2699970
0.017578	-0.196289	0.688477	-0.768694	-0.337475	-0.506213	-0.105469	-0.105469	0.046875	1094	16_54_22_2861260
0.035156	-0.184570	0.694336	-0.759320	-0.328101	-0.506213	-0.316406	-0.117188	-0.105469	1095	16_54_22_3022550
0.029297	-0.184570	0.688477	-0.768694	-0.337475	-0.506213	-0.339844	-0.117188	-0.140625	1096	16_54_22_3183840
0.026367	-0.184570	0.700195	-0.759320	-0.328101	-0.506213	-0.292969	-0.070313	-0.128906	1097	16_54_22_3345130
0.029297	-0.175781	0.694336	-0.768694	-0.328101	-0.506213	-0.304688	-0.046875	0.011719	1098	16_54_22_3506420
0.029297	-0.202148	0.685547	-0.759320	-0.318727	-0.496839	-0.351563	-0.082031	-0.152344	1099	16_54_22_3667710
